block,Trial,square1,square2,square3,square4,currPoints,totalPoints,square,choiceKey.keys,choiceKey.rt,armNum,blockType,blockNum
prac,0.0,100.0,0.0,0.0,0.0,0,0.0,square3,,,2,p,0.0
prac,1.0,100.0,0.0,0.0,0.0,0,0.0,square4,,,3,p,0.0
prac,2.0,100.0,0.0,0.0,0.0,0,0.0,square3,,,2,p,0.0
prac,3.0,100.0,0.0,0.0,0.0,100,100.0,square1,,,0,p,0.0
prac,4.0,100.0,0.0,0.0,0.0,99999,100.0,invalid,,,-1,p,0.0
prac,5.0,100.0,0.0,0.0,0.0,0,100.0,square2,,,1,p,0.0
prac,6.0,100.0,0.0,0.0,0.0,100,200.0,square1,,,0,p,0.0
prac,7.0,100.0,0.0,0.0,0.0,0,200.0,square4,,,3,p,0.0
prac,8.0,100.0,0.0,0.0,0.0,100,300.0,square1,,,0,p,0.0
prac,9.0,100.0,0.0,0.0,0.0,100,400.0,square1,,,0,p,0.0
V10,0.0,28.0,21.0,37.0,46.0,46,46.0,square4,f,1.0105,3,V,10.0
V10,1.0,26.0,19.0,41.0,49.0,19,65.0,square2,i,0.8917,1,V,10.0
V10,2.0,29.0,20.0,43.0,48.0,43,108.0,square3,j,0.6439,2,V,10.0
V10,3.0,27.0,27.0,37.0,44.0,27,135.0,square1,r,0.5307,0,V,10.0
V10,4.0,28.0,16.0,36.0,47.0,28,163.0,square1,r,0.559,0,V,10.0
V10,5.0,33.0,25.0,42.0,54.0,42,205.0,square3,j,0.7565,2,V,10.0
V10,6.0,28.0,19.0,35.0,45.0,45,250.0,square4,f,0.5654,3,V,10.0
V10,7.0,30.0,24.0,35.0,49.0,24,274.0,square2,i,0.5495,1,V,10.0
V10,8.0,37.0,29.0,41.0,47.0,41,315.0,square3,j,0.6605,2,V,10.0
V10,9.0,28.0,21.0,41.0,48.0,28,343.0,square1,r,1.1104,0,V,10.0
V10,10.0,27.0,22.0,39.0,42.0,39,382.0,square3,j,1.0166,2,V,10.0
V10,11.0,32.0,16.0,41.0,48.0,16,398.0,square2,i,0.4247,1,V,10.0
V10,12.0,34.0,15.0,33.0,49.0,33,431.0,square3,j,0.6231,2,V,10.0
V10,13.0,36.0,19.0,41.0,45.0,45,476.0,square4,f,0.3607,3,V,10.0
V10,14.0,28.0,23.0,35.0,53.0,53,529.0,square4,f,0.5925,3,V,10.0
V10,15.0,26.0,28.0,40.0,50.0,50,579.0,square4,f,0.6473,3,V,10.0
V10,16.0,30.0,25.0,42.0,47.0,47,626.0,square4,f,0.6789,3,V,10.0
V10,17.0,31.0,19.0,38.0,50.0,38,664.0,square3,j,0.6066,2,V,10.0
V10,18.0,34.0,21.0,35.0,48.0,34,698.0,square1,r,0.5426,0,V,10.0
V10,19.0,31.0,24.0,39.0,46.0,24,722.0,square2,i,0.5655,1,V,10.0
V10,20.0,28.0,22.0,42.0,47.0,28,750.0,square1,r,0.4324,0,V,10.0
V10,21.0,24.0,20.0,41.0,47.0,47,797.0,square4,f,0.3438,3,V,10.0
V10,22.0,32.0,22.0,34.0,44.0,44,841.0,square4,f,0.7493,3,V,10.0
V10,23.0,29.0,23.0,37.0,47.0,37,878.0,square3,j,0.5635,2,V,10.0
V10,24.0,25.0,25.0,38.0,46.0,46,924.0,square4,f,0.5821,3,V,10.0
V10,25.0,30.0,24.0,41.0,45.0,41,965.0,square3,j,0.5755,2,V,10.0
V10,26.0,32.0,17.0,38.0,49.0,49,1014.0,square4,f,0.4924,3,V,10.0
V10,27.0,34.0,21.0,38.0,47.0,38,1052.0,square3,j,0.4266,2,V,10.0
V10,28.0,29.0,21.0,37.0,45.0,45,1097.0,square4,f,0.422,3,V,10.0
V10,29.0,30.0,20.0,31.0,47.0,31,1128.0,square3,j,1.123,2,V,10.0
V10,30.0,28.0,21.0,35.0,44.0,28,1156.0,square1,r,0.3974,0,V,10.0
V10,31.0,36.0,25.0,14.0,8.0,8,1164.0,square4,f,0.3633,3,V,10.0
V10,32.0,38.0,27.0,19.0,11.0,19,1183.0,square3,j,0.4888,2,V,10.0
V10,33.0,39.0,21.0,20.0,13.0,21,1204.0,square2,i,0.3918,1,V,10.0
V10,34.0,34.0,24.0,20.0,10.0,34,1238.0,square1,r,0.2599,0,V,10.0
V10,35.0,44.0,29.0,17.0,11.0,44,1282.0,square1,r,0.4829,0,V,10.0
V10,36.0,33.0,30.0,17.0,9.0,17,1299.0,square3,j,0.3936,2,V,10.0
V10,37.0,31.0,27.0,12.0,6.0,31,1330.0,square1,r,0.3927,0,V,10.0
V10,38.0,34.0,29.0,15.0,10.0,29,1359.0,square2,i,0.3596,1,V,10.0
V10,39.0,35.0,21.0,19.0,5.0,35,1394.0,square1,r,0.4489,0,V,10.0
V10,40.0,32.0,26.0,18.0,6.0,32,1426.0,square1,r,0.5265,0,V,10.0
V10,41.0,34.0,32.0,13.0,9.0,32,1458.0,square2,i,0.578,1,V,10.0
V10,42.0,35.0,30.0,16.0,8.0,35,1493.0,square1,r,0.4593,0,V,10.0
V10,43.0,38.0,32.0,16.0,8.0,32,1525.0,square2,i,0.5474,1,V,10.0
V10,44.0,34.0,20.0,18.0,3.0,3,1528.0,square4,f,0.4468,3,V,10.0
V10,45.0,38.0,22.0,23.0,9.0,38,1566.0,square1,r,0.4087,0,V,10.0
V10,46.0,36.0,28.0,16.0,10.0,16,1582.0,square3,j,0.4499,2,V,10.0
V10,47.0,36.0,27.0,13.0,8.0,27,1609.0,square2,i,0.4308,1,V,10.0
V10,48.0,35.0,27.0,14.0,12.0,35,1644.0,square1,r,0.3758,0,V,10.0
V10,49.0,33.0,28.0,16.0,10.0,33,1677.0,square1,r,0.2892,0,V,10.0
V10,50.0,31.0,29.0,19.0,8.0,31,1708.0,square1,r,0.3261,0,V,10.0
V10,51.0,32.0,21.0,20.0,12.0,32,1740.0,square1,r,0.3428,0,V,10.0
V10,52.0,29.0,25.0,21.0,10.0,29,1769.0,square1,r,0.4597,0,V,10.0
V10,53.0,39.0,29.0,23.0,2.0,29,1798.0,square2,i,0.3295,1,V,10.0
V10,54.0,33.0,28.0,19.0,7.0,19,1817.0,square3,j,0.3492,2,V,10.0
V10,55.0,34.0,24.0,15.0,8.0,24,1841.0,square2,i,0.4264,1,V,10.0
V10,56.0,35.0,20.0,21.0,9.0,35,1876.0,square1,r,0.2751,0,V,10.0
V10,57.0,33.0,27.0,19.0,7.0,33,1909.0,square1,r,0.3942,0,V,10.0
V10,58.0,38.0,24.0,16.0,7.0,38,1947.0,square1,r,0.4037,0,V,10.0
V10,59.0,34.0,29.0,15.0,5.0,34,1981.0,square1,r,0.3125,0,V,10.0
V10,60.0,34.0,22.0,19.0,9.0,34,2015.0,square1,r,0.2148,0,V,10.0
V10,61.0,39.0,31.0,20.0,10.0,39,2054.0,square1,r,0.1254,0,V,10.0
V10,62.0,35.0,24.0,18.0,6.0,35,2089.0,square1,r,0.0061,0,V,10.0
V10,63.0,35.0,26.0,18.0,9.0,35,2124.0,square1,r,0.912,0,V,10.0
V10,64.0,31.0,55.0,23.0,23.0,31,2155.0,square1,r,0.5631,0,V,10.0
V10,65.0,35.0,50.0,22.0,27.0,35,2190.0,square1,r,0.5285,0,V,10.0
V10,66.0,35.0,53.0,25.0,29.0,35,2225.0,square1,r,0.5741,0,V,10.0
V10,67.0,38.0,44.0,17.0,29.0,38,2263.0,square1,r,0.3603,0,V,10.0
V10,68.0,36.0,48.0,22.0,27.0,36,2299.0,square1,r,0.3106,0,V,10.0
V10,69.0,41.0,53.0,17.0,28.0,41,2340.0,square1,r,0.3453,0,V,10.0
V10,70.0,40.0,48.0,23.0,28.0,40,2380.0,square1,r,0.3935,0,V,10.0
V10,71.0,39.0,43.0,24.0,20.0,24,2404.0,square3,j,0.5604,2,V,10.0
V10,72.0,36.0,49.0,19.0,25.0,25,2429.0,square4,f,0.3156,3,V,10.0
V10,73.0,39.0,49.0,23.0,32.0,49,2478.0,square2,i,0.359,1,V,10.0
V10,74.0,36.0,44.0,17.0,29.0,44,2522.0,square2,i,0.4446,1,V,10.0
V10,75.0,37.0,46.0,20.0,30.0,46,2568.0,square2,i,0.4273,1,V,10.0
V10,76.0,38.0,47.0,23.0,30.0,47,2615.0,square2,i,0.4779,1,V,10.0
V10,77.0,36.0,49.0,22.0,32.0,49,2664.0,square2,i,0.4408,1,V,10.0
V10,78.0,41.0,44.0,19.0,27.0,44,2708.0,square2,i,0.5104,1,V,10.0
V10,79.0,41.0,48.0,22.0,27.0,41,2749.0,square1,r,0.3066,0,V,10.0
V10,80.0,34.0,44.0,26.0,29.0,44,2793.0,square2,i,0.1938,1,V,10.0
V10,81.0,38.0,47.0,18.0,29.0,47,2840.0,square2,i,0.3549,1,V,10.0
V10,82.0,43.0,43.0,23.0,28.0,43,2883.0,square2,i,0.374,1,V,10.0
V10,83.0,34.0,51.0,23.0,26.0,51,2934.0,square2,i,0.2935,1,V,10.0
V10,84.0,36.0,46.0,18.0,25.0,46,2980.0,square2,i,0.3494,1,V,10.0
V10,85.0,39.0,46.0,25.0,26.0,46,3026.0,square2,i,0.3953,1,V,10.0
V10,86.0,39.0,50.0,27.0,27.0,50,3076.0,square2,i,0.4276,1,V,10.0
V10,87.0,38.0,46.0,20.0,30.0,46,3122.0,square2,i,0.394,1,V,10.0
V10,88.0,37.0,49.0,22.0,28.0,49,3171.0,square2,i,0.332,1,V,10.0
V10,89.0,34.0,51.0,25.0,26.0,51,3222.0,square2,i,0.3637,1,V,10.0
V10,90.0,41.0,49.0,22.0,29.0,49,3271.0,square2,i,0.3109,1,V,10.0
V10,91.0,37.0,45.0,26.0,32.0,45,3316.0,square2,i,0.3438,1,V,10.0
V10,92.0,42.0,42.0,27.0,28.0,27,3343.0,square3,j,0.0054,2,V,10.0
V10,93.0,41.0,48.0,19.0,36.0,36,3379.0,square4,f,0.0005,3,V,10.0
V10,94.0,43.0,49.0,23.0,31.0,49,3428.0,square2,i,1.1771,1,V,10.0
V10,95.0,39.0,46.0,18.0,27.0,46,3474.0,square2,i,1.1114,1,V,10.0
V10,96.0,37.0,48.0,24.0,27.0,48,3522.0,square2,i,0.3437,1,V,10.0
V10,97.0,42.0,50.0,23.0,31.0,50,3572.0,square2,i,0.3607,1,V,10.0
V10,98.0,33.0,47.0,25.0,32.0,47,3619.0,square2,i,0.4565,1,V,10.0
V10,99.0,39.0,48.0,23.0,32.0,48,3667.0,square2,i,1.0099,1,V,10.0
V12,0.0,47.0,30.0,38.0,55.0,47,47.0,square1,f,1.315,0,V,12.0
V12,1.0,46.0,33.0,39.0,57.0,33,80.0,square2,j,0.2571,1,V,12.0
V12,2.0,51.0,29.0,42.0,52.0,52,132.0,square4,i,0.1448,3,V,12.0
V12,3.0,52.0,30.0,38.0,62.0,38,170.0,square3,r,0.0006,2,V,12.0
V12,4.0,48.0,30.0,39.0,62.0,48,218.0,square1,f,0.1965,0,V,12.0
V12,5.0,55.0,34.0,43.0,61.0,61,279.0,square4,i,0.0604,3,V,12.0
V12,6.0,45.0,35.0,42.0,56.0,56,335.0,square4,i,0.0518,3,V,12.0
V12,7.0,48.0,29.0,35.0,57.0,57,392.0,square4,i,0.2293,3,V,12.0
V12,8.0,46.0,33.0,38.0,59.0,46,438.0,square1,f,0.045,0,V,12.0
V12,9.0,44.0,31.0,42.0,56.0,31,469.0,square2,j,0.6635,1,V,12.0
V12,10.0,48.0,34.0,45.0,55.0,45,514.0,square3,r,0.6488,2,V,12.0
V12,11.0,45.0,32.0,41.0,55.0,55,569.0,square4,i,0.1079,3,V,12.0
V12,12.0,52.0,26.0,42.0,57.0,57,626.0,square4,i,0.0255,3,V,12.0
V12,13.0,56.0,31.0,41.0,54.0,54,680.0,square4,i,0.0007,3,V,12.0
V12,14.0,44.0,34.0,40.0,64.0,64,744.0,square4,i,1.3306,3,V,12.0
V12,15.0,48.0,32.0,39.0,61.0,61,805.0,square4,i,0.2768,3,V,12.0
V12,16.0,49.0,33.0,37.0,58.0,58,863.0,square4,i,0.11,3,V,12.0
V12,17.0,45.0,33.0,43.0,57.0,57,920.0,square4,i,0.2105,3,V,12.0
V12,18.0,45.0,28.0,40.0,58.0,45,965.0,square1,f,0.6102,0,V,12.0
V12,19.0,42.0,33.0,43.0,59.0,42,1007.0,square1,f,0.1134,0,V,12.0
V12,20.0,46.0,30.0,38.0,62.0,46,1053.0,square1,f,0.6737,0,V,12.0
V12,21.0,46.0,35.0,40.0,55.0,40,1093.0,square3,r,0.6442,2,V,12.0
V12,22.0,46.0,34.0,36.0,63.0,34,1127.0,square2,j,0.4595,1,V,12.0
V12,23.0,54.0,34.0,42.0,56.0,56,1183.0,square4,i,0.1321,3,V,12.0
V12,24.0,44.0,30.0,41.0,59.0,59,1242.0,square4,i,0.0006,3,V,12.0
V12,25.0,49.0,33.0,37.0,64.0,64,1306.0,square4,i,0.0007,3,V,12.0
V12,26.0,52.0,34.0,39.0,57.0,57,1363.0,square4,i,0.0436,3,V,12.0
V12,27.0,50.0,26.0,37.0,55.0,55,1418.0,square4,i,1.0157,3,V,12.0
V12,28.0,41.0,29.0,46.0,21.0,21,1439.0,square4,i,0.3724,3,V,12.0
V12,29.0,41.0,28.0,51.0,20.0,41,1480.0,square1,f,0.3099,0,V,12.0
V12,30.0,32.0,31.0,46.0,22.0,31,1511.0,square2,j,0.2326,1,V,12.0
V12,31.0,38.0,28.0,45.0,22.0,45,1556.0,square3,r,0.0802,2,V,12.0
V12,32.0,35.0,27.0,44.0,16.0,44,1600.0,square3,r,0.5412,2,V,12.0
V12,33.0,39.0,29.0,49.0,21.0,49,1649.0,square3,r,0.3773,2,V,12.0
V12,34.0,39.0,28.0,49.0,15.0,49,1698.0,square3,r,0.2447,2,V,12.0
V12,35.0,36.0,29.0,50.0,17.0,50,1748.0,square3,r,0.2571,2,V,12.0
V12,36.0,41.0,28.0,48.0,12.0,48,1796.0,square3,r,0.2932,2,V,12.0
V12,37.0,34.0,29.0,46.0,25.0,46,1842.0,square3,r,0.206,2,V,12.0
V12,38.0,38.0,28.0,51.0,19.0,51,1893.0,square3,r,0.3054,2,V,12.0
V12,39.0,39.0,31.0,45.0,13.0,45,1938.0,square3,r,0.3616,2,V,12.0
V12,40.0,35.0,28.0,46.0,26.0,46,1984.0,square3,r,0.2946,2,V,12.0
V12,41.0,38.0,27.0,46.0,20.0,46,2030.0,square3,r,0.3565,2,V,12.0
V12,42.0,40.0,26.0,50.0,23.0,50,2080.0,square3,r,0.2771,2,V,12.0
V12,43.0,33.0,30.0,45.0,18.0,45,2125.0,square3,r,0.3212,2,V,12.0
V12,44.0,39.0,31.0,46.0,22.0,46,2171.0,square3,r,0.2938,2,V,12.0
V12,45.0,32.0,26.0,42.0,20.0,42,2213.0,square3,r,0.2985,2,V,12.0
V12,46.0,36.0,29.0,43.0,24.0,43,2256.0,square3,r,0.3768,2,V,12.0
V12,47.0,37.0,30.0,46.0,21.0,46,2302.0,square3,r,0.4766,2,V,12.0
V12,48.0,37.0,27.0,44.0,19.0,44,2346.0,square3,r,0.4443,2,V,12.0
V12,49.0,36.0,33.0,55.0,16.0,55,2401.0,square3,r,0.2769,2,V,12.0
V12,50.0,45.0,28.0,44.0,18.0,44,2445.0,square3,r,0.0278,2,V,12.0
V12,51.0,35.0,32.0,49.0,19.0,49,2494.0,square3,r,0.1098,2,V,12.0
V12,52.0,36.0,56.0,31.0,52.0,56,2550.0,square2,j,0.4259,1,V,12.0
V12,53.0,36.0,57.0,29.0,45.0,57,2607.0,square2,j,0.2084,1,V,12.0
V12,54.0,38.0,61.0,28.0,51.0,61,2668.0,square2,j,0.5766,1,V,12.0
V12,55.0,35.0,60.0,29.0,47.0,60,2728.0,square2,j,0.4615,1,V,12.0
V12,56.0,34.0,62.0,29.0,46.0,62,2790.0,square2,j,0.3724,1,V,12.0
V12,57.0,43.0,57.0,32.0,46.0,57,2847.0,square2,j,0.5088,1,V,12.0
V12,58.0,40.0,59.0,32.0,50.0,59,2906.0,square2,j,0.6777,1,V,12.0
V12,59.0,41.0,62.0,33.0,48.0,41,2947.0,square1,f,0.4478,0,V,12.0
V12,60.0,36.0,61.0,32.0,49.0,61,3008.0,square2,j,0.1612,1,V,12.0
V12,61.0,39.0,56.0,32.0,44.0,56,3064.0,square2,j,0.5318,1,V,12.0
V12,62.0,39.0,57.0,30.0,46.0,57,3121.0,square2,j,0.41,1,V,12.0
V12,63.0,42.0,53.0,29.0,46.0,53,3174.0,square2,j,0.4296,1,V,12.0
V12,64.0,35.0,57.0,32.0,50.0,57,3231.0,square2,j,0.5142,1,V,12.0
V12,65.0,44.0,58.0,32.0,49.0,49,3280.0,square4,i,0.3651,3,V,12.0
V12,66.0,44.0,56.0,29.0,52.0,29,3309.0,square3,r,0.4273,2,V,12.0
V12,67.0,41.0,60.0,30.0,49.0,60,3369.0,square2,j,0.3045,1,V,12.0
V12,68.0,42.0,58.0,32.0,45.0,58,3427.0,square2,j,0.4983,1,V,12.0
V12,69.0,36.0,60.0,33.0,50.0,60,3487.0,square2,j,0.4959,1,V,12.0
V12,70.0,36.0,57.0,27.0,46.0,57,3544.0,square2,j,0.4102,1,V,12.0
V12,71.0,41.0,59.0,32.0,48.0,59,3603.0,square2,j,0.226,1,V,12.0
V12,72.0,34.0,59.0,31.0,49.0,59,3662.0,square2,j,0.4143,1,V,12.0
V12,73.0,71.0,53.0,65.0,49.0,71,3733.0,square1,f,0.005,0,V,12.0
V12,74.0,69.0,49.0,63.0,45.0,69,3802.0,square1,f,0.2598,0,V,12.0
V12,75.0,72.0,51.0,56.0,46.0,72,3874.0,square1,f,0.4235,0,V,12.0
V12,76.0,72.0,48.0,58.0,43.0,72,3946.0,square1,f,0.3426,0,V,12.0
V12,77.0,74.0,57.0,59.0,44.0,74,4020.0,square1,f,0.4447,0,V,12.0
V12,78.0,69.0,55.0,63.0,50.0,69,4089.0,square1,f,0.3279,0,V,12.0
V12,79.0,73.0,53.0,58.0,43.0,73,4162.0,square1,f,0.3441,0,V,12.0
V12,80.0,71.0,47.0,65.0,40.0,71,4233.0,square1,f,0.3933,0,V,12.0
V12,81.0,66.0,49.0,57.0,40.0,66,4299.0,square1,f,0.1916,0,V,12.0
V12,82.0,71.0,53.0,57.0,48.0,71,4370.0,square1,f,0.3438,0,V,12.0
V12,83.0,70.0,50.0,56.0,49.0,70,4440.0,square1,f,0.4096,0,V,12.0
V12,84.0,69.0,45.0,64.0,43.0,69,4509.0,square1,f,0.3437,0,V,12.0
V12,85.0,64.0,48.0,54.0,42.0,64,4573.0,square1,f,0.2948,0,V,12.0
V12,86.0,71.0,49.0,63.0,44.0,71,4644.0,square1,f,0.2598,0,V,12.0
V12,87.0,72.0,52.0,55.0,42.0,72,4716.0,square1,f,0.3119,0,V,12.0
V12,88.0,64.0,48.0,59.0,44.0,64,4780.0,square1,f,0.2757,0,V,12.0
V12,89.0,69.0,48.0,62.0,45.0,69,4849.0,square1,f,0.3395,0,V,12.0
V12,90.0,68.0,56.0,60.0,42.0,68,4917.0,square1,f,0.26,0,V,12.0
V12,91.0,69.0,52.0,62.0,45.0,52,4969.0,square2,j,0.6422,1,V,12.0
V12,92.0,65.0,50.0,64.0,47.0,64,5033.0,square3,r,0.2012,2,V,12.0
V12,93.0,68.0,51.0,62.0,43.0,43,5076.0,square4,i,0.261,3,V,12.0
V12,94.0,68.0,52.0,60.0,38.0,68,5144.0,square1,f,0.1268,0,V,12.0
V12,95.0,71.0,52.0,58.0,47.0,71,5215.0,square1,f,0.278,0,V,12.0
V12,96.0,66.0,49.0,59.0,44.0,66,5281.0,square1,f,0.3273,0,V,12.0
V12,97.0,74.0,47.0,54.0,47.0,74,5355.0,square1,f,0.4938,0,V,12.0
V12,98.0,68.0,43.0,64.0,41.0,68,5423.0,square1,f,0.293,0,V,12.0
V12,99.0,71.0,53.0,62.0,44.0,71,5494.0,square1,f,0.3619,0,V,12.0
V7,0.0,86.0,61.0,78.0,68.0,68,68.0,square4,r,1.1634,3,V,7.0
V7,1.0,95.0,62.0,79.0,70.0,95,163.0,square1,i,0.3816,0,V,7.0
V7,2.0,89.0,67.0,81.0,77.0,81,244.0,square3,j,0.2939,2,V,7.0
V7,3.0,90.0,56.0,85.0,72.0,56,300.0,square2,f,0.2926,1,V,7.0
V7,4.0,91.0,65.0,77.0,71.0,91,391.0,square1,i,0.257,0,V,7.0
V7,5.0,91.0,58.0,84.0,72.0,84,475.0,square3,j,0.4784,2,V,7.0
V7,6.0,94.0,65.0,87.0,72.0,94,569.0,square1,i,0.3299,0,V,7.0
V7,7.0,89.0,67.0,79.0,67.0,89,658.0,square1,i,0.3604,0,V,7.0
V7,8.0,91.0,65.0,84.0,68.0,91,749.0,square1,i,0.3272,0,V,7.0
V7,9.0,92.0,60.0,87.0,69.0,92,841.0,square1,i,0.4337,0,V,7.0
V7,10.0,90.0,67.0,81.0,76.0,90,931.0,square1,i,0.2602,0,V,7.0
V7,11.0,86.0,67.0,83.0,73.0,86,1017.0,square1,i,0.2296,0,V,7.0
V7,12.0,90.0,62.0,80.0,72.0,80,1097.0,square3,j,0.3166,2,V,7.0
V7,13.0,84.0,60.0,88.0,71.0,71,1168.0,square4,r,0.1437,3,V,7.0
V7,14.0,95.0,64.0,80.0,70.0,95,1263.0,square1,i,0.7776,0,V,7.0
V7,15.0,86.0,60.0,81.0,70.0,86,1349.0,square1,i,0.3793,0,V,7.0
V7,16.0,85.0,65.0,77.0,69.0,85,1434.0,square1,i,0.328,0,V,7.0
V7,17.0,91.0,65.0,81.0,70.0,65,1499.0,square2,f,0.1429,1,V,7.0
V7,18.0,95.0,61.0,81.0,76.0,95,1594.0,square1,i,0.2721,0,V,7.0
V7,19.0,90.0,58.0,79.0,72.0,90,1684.0,square1,i,0.3942,0,V,7.0
V7,20.0,94.0,68.0,80.0,79.0,94,1778.0,square1,i,0.2895,0,V,7.0
V7,21.0,92.0,66.0,82.0,70.0,92,1870.0,square1,i,0.0271,0,V,7.0
V7,22.0,92.0,64.0,83.0,72.0,92,1962.0,square1,i,0.0238,0,V,7.0
V7,23.0,91.0,68.0,82.0,73.0,91,2053.0,square1,i,0.1429,0,V,7.0
V7,24.0,87.0,71.0,82.0,72.0,87,2140.0,square1,i,0.3241,0,V,7.0
V7,25.0,91.0,68.0,90.0,74.0,91,2231.0,square1,i,0.2948,0,V,7.0
V7,26.0,89.0,65.0,83.0,72.0,89,2320.0,square1,i,0.3929,0,V,7.0
V7,27.0,91.0,61.0,81.0,73.0,91,2411.0,square1,i,0.0552,0,V,7.0
V7,28.0,90.0,66.0,81.0,72.0,90,2501.0,square1,i,0.1603,0,V,7.0
V7,29.0,89.0,67.0,77.0,71.0,89,2590.0,square1,i,0.1944,0,V,7.0
V7,30.0,95.0,68.0,84.0,71.0,95,2685.0,square1,i,0.0572,0,V,7.0
V7,31.0,95.0,61.0,81.0,70.0,95,2780.0,square1,i,0.0768,0,V,7.0
V7,32.0,89.0,65.0,82.0,75.0,89,2869.0,square1,i,0.592,0,V,7.0
V7,33.0,77.0,50.0,80.0,61.0,77,2946.0,square1,i,0.4226,0,V,7.0
V7,34.0,76.0,54.0,78.0,61.0,78,3024.0,square3,j,0.2973,2,V,7.0
V7,35.0,71.0,51.0,80.0,64.0,64,3088.0,square4,r,0.1399,3,V,7.0
V7,36.0,75.0,51.0,80.0,62.0,51,3139.0,square2,f,0.0239,1,V,7.0
V7,37.0,73.0,58.0,86.0,63.0,86,3225.0,square3,j,0.0005,2,V,7.0
V7,38.0,73.0,50.0,86.0,61.0,86,3311.0,square3,j,0.1464,2,V,7.0
V7,39.0,67.0,53.0,78.0,61.0,78,3389.0,square3,j,0.2269,2,V,7.0
V7,40.0,71.0,53.0,84.0,58.0,84,3473.0,square3,j,0.0771,2,V,7.0
V7,41.0,75.0,51.0,83.0,63.0,83,3556.0,square3,j,0.0475,2,V,7.0
V7,42.0,69.0,48.0,87.0,63.0,87,3643.0,square3,j,0.1777,2,V,7.0
V7,43.0,70.0,58.0,81.0,60.0,81,3724.0,square3,j,0.1266,2,V,7.0
V7,44.0,68.0,56.0,76.0,63.0,76,3800.0,square3,j,0.1763,2,V,7.0
V7,45.0,74.0,59.0,76.0,56.0,76,3876.0,square3,j,0.6672,2,V,7.0
V7,46.0,72.0,54.0,77.0,61.0,77,3953.0,square3,j,0.0443,2,V,7.0
V7,47.0,69.0,47.0,81.0,62.0,81,4034.0,square3,j,0.076,2,V,7.0
V7,48.0,75.0,52.0,81.0,57.0,81,4115.0,square3,j,0.0627,2,V,7.0
V7,49.0,74.0,55.0,78.0,60.0,78,4193.0,square3,j,0.6936,2,V,7.0
V7,50.0,71.0,51.0,80.0,61.0,80,4273.0,square3,j,0.3165,2,V,7.0
V7,51.0,75.0,55.0,85.0,62.0,85,4358.0,square3,j,0.158,2,V,7.0
V7,52.0,75.0,59.0,76.0,59.0,76,4434.0,square3,j,0.2936,2,V,7.0
V7,53.0,72.0,53.0,84.0,66.0,66,4500.0,square4,r,0.378,3,V,7.0
V7,54.0,69.0,51.0,81.0,60.0,51,4551.0,square2,f,0.7108,1,V,7.0
V7,55.0,74.0,56.0,75.0,54.0,75,4626.0,square3,j,0.5225,2,V,7.0
V7,56.0,76.0,51.0,83.0,58.0,83,4709.0,square3,j,0.6485,2,V,7.0
V7,57.0,71.0,53.0,80.0,64.0,80,4789.0,square3,j,0.3768,2,V,7.0
V7,58.0,81.0,56.0,79.0,61.0,79,4868.0,square3,j,0.5737,2,V,7.0
V7,59.0,71.0,55.0,83.0,59.0,83,4951.0,square3,j,0.0444,2,V,7.0
V7,60.0,73.0,53.0,83.0,64.0,83,5034.0,square3,j,0.4113,2,V,7.0
V7,61.0,70.0,53.0,77.0,63.0,77,5111.0,square3,j,0.4802,2,V,7.0
V7,62.0,71.0,54.0,76.0,61.0,99999,5111.0,invalid,,,-1,V,7.0
V7,63.0,68.0,45.0,79.0,65.0,79,5190.0,square3,j,0.8567,2,V,7.0
V7,64.0,65.0,55.0,79.0,59.0,79,5269.0,square3,j,0.0925,2,V,7.0
V7,65.0,74.0,54.0,81.0,61.0,81,5350.0,square3,j,0.3453,2,V,7.0
V7,66.0,70.0,56.0,81.0,63.0,81,5431.0,square3,j,0.2767,2,V,7.0
V7,67.0,70.0,85.0,64.0,92.0,64,5495.0,square3,j,0.1934,2,V,7.0
V7,68.0,73.0,85.0,68.0,92.0,68,5563.0,square3,j,0.4566,2,V,7.0
V7,69.0,75.0,83.0,70.0,91.0,70,5633.0,square3,j,0.69,2,V,7.0
V7,70.0,75.0,85.0,69.0,91.0,69,5702.0,square3,j,1.9156,2,V,7.0
V7,71.0,71.0,86.0,65.0,94.0,94,5796.0,square4,r,0.8106,3,V,7.0
V7,72.0,77.0,86.0,65.0,98.0,98,5894.0,square4,r,0.2608,3,V,7.0
V7,73.0,77.0,84.0,63.0,94.0,94,5988.0,square4,r,0.2901,3,V,7.0
V7,74.0,71.0,86.0,64.0,91.0,91,6079.0,square4,r,0.0945,3,V,7.0
V7,75.0,73.0,90.0,60.0,90.0,90,6169.0,square4,r,0.1601,3,V,7.0
V7,76.0,79.0,84.0,68.0,95.0,95,6264.0,square4,r,0.106,3,V,7.0
V7,77.0,73.0,85.0,66.0,89.0,89,6353.0,square4,r,0.0777,3,V,7.0
V7,78.0,75.0,82.0,67.0,91.0,91,6444.0,square4,r,0.3613,3,V,7.0
V7,79.0,72.0,85.0,60.0,90.0,90,6534.0,square4,r,0.3266,3,V,7.0
V7,80.0,73.0,83.0,66.0,97.0,97,6631.0,square4,r,0.3095,3,V,7.0
V7,81.0,73.0,84.0,67.0,92.0,92,6723.0,square4,r,0.0991,3,V,7.0
V7,82.0,69.0,84.0,65.0,91.0,84,6807.0,square2,f,0.4272,1,V,7.0
V7,83.0,76.0,83.0,72.0,99.0,76,6883.0,square1,i,0.0309,0,V,7.0
V7,84.0,72.0,84.0,70.0,94.0,94,6977.0,square4,r,0.2463,3,V,7.0
V7,85.0,77.0,83.0,67.0,88.0,88,7065.0,square4,r,0.578,3,V,7.0
V7,86.0,76.0,80.0,67.0,90.0,90,7155.0,square4,r,0.4944,3,V,7.0
V7,87.0,70.0,86.0,67.0,95.0,95,7250.0,square4,r,0.7837,3,V,7.0
V7,88.0,76.0,84.0,67.0,100.0,100,7350.0,square4,r,0.8568,3,V,7.0
V7,89.0,71.0,88.0,60.0,97.0,97,7447.0,square4,r,0.0934,3,V,7.0
V7,90.0,69.0,82.0,71.0,95.0,95,7542.0,square4,r,1.0104,3,V,7.0
V7,91.0,80.0,84.0,65.0,92.0,92,7634.0,square4,r,0.1102,3,V,7.0
V7,92.0,77.0,85.0,68.0,85.0,85,7719.0,square4,r,0.2763,3,V,7.0
V7,93.0,72.0,84.0,66.0,91.0,91,7810.0,square4,r,0.3772,3,V,7.0
V7,94.0,69.0,83.0,66.0,95.0,95,7905.0,square4,r,0.3772,3,V,7.0
V7,95.0,70.0,86.0,75.0,91.0,91,7996.0,square4,r,0.3939,3,V,7.0
V7,96.0,74.0,85.0,66.0,88.0,88,8084.0,square4,r,0.2002,3,V,7.0
V7,97.0,77.0,82.0,73.0,91.0,91,8175.0,square4,r,0.7266,3,V,7.0
V7,98.0,76.0,91.0,62.0,94.0,94,8269.0,square4,r,1.1102,3,V,7.0
V7,99.0,74.0,84.0,67.0,88.0,88,8357.0,square4,r,1.3752,3,V,7.0
S12,0.0,38.0,42.0,30.0,42.0,30,30.0,square3,r,1.2479,2,S,12.0
S12,1.0,30.0,42.0,28.0,37.0,99999,30.0,invalid,,,-1,S,12.0
S12,2.0,34.0,41.0,38.0,43.0,41,71.0,square2,i,1.5923,1,S,12.0
S12,3.0,38.0,51.0,38.0,38.0,38,109.0,square1,j,0.5434,0,S,12.0
S12,4.0,32.0,37.0,33.0,45.0,45,154.0,square4,f,0.5269,3,S,12.0
S12,5.0,38.0,52.0,36.0,35.0,52,206.0,square2,i,0.6162,1,S,12.0
S12,6.0,30.0,43.0,30.0,38.0,30,236.0,square3,r,0.4258,2,S,12.0
S12,7.0,38.0,39.0,30.0,39.0,39,275.0,square4,f,0.2439,3,S,12.0
S12,8.0,37.0,49.0,35.0,38.0,37,312.0,square1,j,0.3772,0,S,12.0
S12,9.0,37.0,44.0,29.0,38.0,44,356.0,square2,i,0.1833,1,S,12.0
S12,10.0,35.0,42.0,30.0,45.0,42,398.0,square2,i,0.441,1,S,12.0
S12,11.0,34.0,45.0,36.0,32.0,45,443.0,square2,i,0.413,1,S,12.0
S12,12.0,33.0,45.0,35.0,42.0,45,488.0,square2,i,0.327,1,S,12.0
S12,13.0,36.0,36.0,29.0,40.0,29,517.0,square3,r,0.2765,2,S,12.0
S12,14.0,36.0,49.0,32.0,42.0,42,559.0,square4,f,0.3294,3,S,12.0
S12,15.0,35.0,43.0,35.0,46.0,35,594.0,square1,j,0.1099,0,S,12.0
S12,16.0,39.0,48.0,41.0,43.0,48,642.0,square2,i,0.4768,1,S,12.0
S12,17.0,35.0,47.0,27.0,38.0,47,689.0,square2,i,0.3445,1,S,12.0
S12,18.0,37.0,51.0,33.0,33.0,51,740.0,square2,i,0.3654,1,S,12.0
S12,19.0,41.0,42.0,33.0,36.0,42,782.0,square2,i,0.3793,1,S,12.0
S12,20.0,34.0,44.0,26.0,41.0,44,826.0,square2,i,0.2946,1,S,12.0
S12,21.0,35.0,37.0,29.0,35.0,37,863.0,square2,i,0.3601,1,S,12.0
S12,22.0,37.0,48.0,31.0,41.0,48,911.0,square2,i,0.2774,1,S,12.0
S12,23.0,36.0,43.0,27.0,45.0,43,954.0,square2,i,0.31,1,S,12.0
S12,24.0,39.0,48.0,38.0,38.0,38,992.0,square4,f,0.6268,3,S,12.0
S12,25.0,31.0,43.0,30.0,40.0,43,1035.0,square2,i,0.4565,1,S,12.0
S12,26.0,35.0,48.0,34.0,33.0,48,1083.0,square2,i,0.3904,1,S,12.0
S12,27.0,46.0,46.0,28.0,38.0,46,1129.0,square2,i,0.7103,1,S,12.0
S12,28.0,32.0,37.0,32.0,40.0,37,1166.0,square2,i,0.1786,1,S,12.0
S12,29.0,38.0,41.0,32.0,44.0,41,1207.0,square2,i,0.3736,1,S,12.0
S12,30.0,32.0,48.0,29.0,42.0,32,1239.0,square1,j,0.1067,0,S,12.0
S12,31.0,34.0,46.0,30.0,42.0,46,1285.0,square2,i,0.4271,1,S,12.0
S12,32.0,39.0,43.0,41.0,40.0,41,1326.0,square3,r,0.6772,2,S,12.0
S12,33.0,36.0,47.0,33.0,46.0,46,1372.0,square4,f,0.3635,3,S,12.0
S12,34.0,36.0,41.0,34.0,41.0,41,1413.0,square2,i,0.2787,1,S,12.0
S12,35.0,34.0,42.0,31.0,43.0,43,1456.0,square4,f,0.0247,3,S,12.0
S12,36.0,39.0,43.0,26.0,33.0,33,1489.0,square4,f,0.6163,3,S,12.0
S12,37.0,39.0,49.0,30.0,42.0,49,1538.0,square2,i,0.5271,1,S,12.0
S12,38.0,33.0,47.0,36.0,41.0,33,1571.0,square1,j,0.3418,0,S,12.0
S12,39.0,29.0,46.0,35.0,36.0,35,1606.0,square3,r,0.2721,2,S,12.0
S12,40.0,39.0,39.0,29.0,36.0,39,1645.0,square2,i,0.4768,1,S,12.0
S12,41.0,33.0,44.0,31.0,40.0,40,1685.0,square4,f,0.1599,3,S,12.0
S12,42.0,34.0,46.0,25.0,37.0,37,1722.0,square4,f,0.3932,3,S,12.0
S12,43.0,37.0,42.0,30.0,42.0,42,1764.0,square4,f,0.3928,3,S,12.0
S12,44.0,33.0,49.0,36.0,39.0,39,1803.0,square4,f,0.4407,3,S,12.0
S12,45.0,35.0,40.0,30.0,47.0,47,1850.0,square4,f,0.2259,3,S,12.0
S12,46.0,40.0,41.0,29.0,35.0,35,1885.0,square4,f,0.2934,3,S,12.0
S12,47.0,32.0,42.0,28.0,43.0,43,1928.0,square4,f,0.293,3,S,12.0
S12,48.0,43.0,47.0,31.0,38.0,43,1971.0,square1,j,0.0396,0,S,12.0
S12,49.0,37.0,41.0,35.0,40.0,37,2008.0,square1,j,0.3749,0,S,12.0
S2,0.0,62.0,57.0,71.0,74.0,62,62.0,square1,r,1.0666,0,S,2.0
S2,1.0,64.0,59.0,72.0,67.0,72,134.0,square3,i,0.1784,2,S,2.0
S2,2.0,68.0,57.0,75.0,68.0,68,202.0,square4,j,0.225,3,S,2.0
S2,3.0,69.0,57.0,80.0,70.0,57,259.0,square2,f,0.1939,1,S,2.0
S2,4.0,66.0,60.0,74.0,68.0,74,333.0,square3,i,0.1107,2,S,2.0
S2,5.0,63.0,62.0,77.0,72.0,77,410.0,square3,i,0.176,2,S,2.0
S2,6.0,69.0,61.0,75.0,74.0,75,485.0,square3,i,0.145,2,S,2.0
S2,7.0,74.0,66.0,79.0,72.0,79,564.0,square3,i,0.1786,2,S,2.0
S2,8.0,81.0,65.0,76.0,72.0,76,640.0,square3,i,0.2118,2,S,2.0
S2,9.0,70.0,66.0,78.0,70.0,78,718.0,square3,i,0.1235,2,S,2.0
S2,10.0,70.0,72.0,70.0,74.0,70,788.0,square3,i,0.1924,2,S,2.0
S2,11.0,64.0,66.0,72.0,67.0,72,860.0,square3,i,0.0774,2,S,2.0
S2,12.0,66.0,57.0,70.0,67.0,70,930.0,square3,i,0.1912,2,S,2.0
S2,13.0,68.0,68.0,71.0,73.0,71,1001.0,square3,i,0.1292,2,S,2.0
S2,14.0,70.0,63.0,77.0,71.0,77,1078.0,square3,i,0.0946,2,S,2.0
S2,15.0,64.0,66.0,75.0,66.0,75,1153.0,square3,i,0.1637,2,S,2.0
S2,16.0,67.0,61.0,73.0,70.0,73,1226.0,square3,i,0.0987,2,S,2.0
S2,17.0,65.0,58.0,71.0,75.0,71,1297.0,square3,i,0.1063,2,S,2.0
S2,18.0,72.0,64.0,81.0,61.0,81,1378.0,square3,i,0.1567,2,S,2.0
S2,19.0,60.0,63.0,72.0,65.0,72,1450.0,square3,i,0.099,2,S,2.0
S2,20.0,68.0,56.0,71.0,70.0,71,1521.0,square3,i,0.1435,2,S,2.0
S2,21.0,65.0,65.0,74.0,71.0,74,1595.0,square3,i,0.1471,2,S,2.0
S2,22.0,69.0,62.0,77.0,72.0,77,1672.0,square3,i,0.1448,2,S,2.0
S2,23.0,64.0,71.0,74.0,65.0,74,1746.0,square3,i,0.0826,2,S,2.0
S2,24.0,66.0,62.0,78.0,70.0,78,1824.0,square3,i,0.0934,2,S,2.0
S2,25.0,67.0,69.0,76.0,66.0,76,1900.0,square3,i,0.2457,2,S,2.0
S2,26.0,65.0,63.0,74.0,69.0,65,1965.0,square1,r,0.2761,0,S,2.0
S2,27.0,68.0,64.0,67.0,68.0,64,2029.0,square2,f,0.1292,1,S,2.0
S2,28.0,61.0,52.0,71.0,68.0,68,2097.0,square4,j,0.1241,3,S,2.0
S2,29.0,67.0,64.0,73.0,69.0,73,2170.0,square3,i,0.2112,2,S,2.0
S2,30.0,67.0,53.0,77.0,67.0,77,2247.0,square3,i,0.2103,2,S,2.0
S2,31.0,67.0,69.0,69.0,68.0,69,2316.0,square3,i,0.013,2,S,2.0
S2,32.0,71.0,63.0,73.0,70.0,73,2389.0,square3,i,0.1451,2,S,2.0
S2,33.0,61.0,65.0,68.0,71.0,68,2457.0,square3,i,0.0883,2,S,2.0
S2,34.0,66.0,55.0,78.0,68.0,78,2535.0,square3,i,0.3303,2,S,2.0
S2,35.0,60.0,57.0,66.0,66.0,66,2601.0,square3,i,0.0963,2,S,2.0
S2,36.0,64.0,63.0,73.0,72.0,73,2674.0,square3,i,0.1267,2,S,2.0
S2,37.0,65.0,62.0,75.0,68.0,75,2749.0,square3,i,0.0457,2,S,2.0
S2,38.0,69.0,57.0,71.0,62.0,71,2820.0,square3,i,0.0805,2,S,2.0
S2,39.0,72.0,66.0,74.0,74.0,74,2894.0,square3,i,0.1478,2,S,2.0
S2,40.0,66.0,63.0,76.0,59.0,76,2970.0,square3,i,0.0609,2,S,2.0
S2,41.0,74.0,64.0,67.0,76.0,67,3037.0,square3,i,1.0979,2,S,2.0
S2,42.0,62.0,67.0,72.0,68.0,72,3109.0,square3,i,0.0745,2,S,2.0
S2,43.0,69.0,63.0,75.0,71.0,75,3184.0,square3,i,0.0616,2,S,2.0
S2,44.0,72.0,60.0,74.0,67.0,74,3258.0,square3,i,0.1306,2,S,2.0
S2,45.0,69.0,63.0,76.0,73.0,76,3334.0,square3,i,0.1939,2,S,2.0
S2,46.0,64.0,71.0,75.0,72.0,75,3409.0,square3,i,0.0937,2,S,2.0
S2,47.0,75.0,62.0,75.0,69.0,75,3484.0,square3,i,0.0641,2,S,2.0
S2,48.0,66.0,65.0,74.0,68.0,74,3558.0,square3,i,0.0258,2,S,2.0
S2,49.0,67.0,64.0,72.0,76.0,72,3630.0,square3,i,0.0601,2,S,2.0
S9,0.0,36.0,36.0,32.0,32.0,32,32.0,square4,r,1.1469,3,S,9.0
S9,1.0,40.0,29.0,36.0,24.0,40,72.0,square1,i,0.5442,0,S,9.0
S9,2.0,31.0,43.0,22.0,29.0,43,115.0,square2,j,0.3753,1,S,9.0
S9,3.0,41.0,33.0,28.0,27.0,28,143.0,square3,f,0.5734,2,S,9.0
S9,4.0,34.0,29.0,32.0,31.0,29,172.0,square2,j,0.4232,1,S,9.0
S9,5.0,41.0,32.0,22.0,29.0,29,201.0,square4,r,0.3976,3,S,9.0
S9,6.0,44.0,30.0,21.0,28.0,44,245.0,square1,i,0.2778,0,S,9.0
S9,7.0,39.0,37.0,26.0,24.0,39,284.0,square1,i,0.4276,0,S,9.0
S9,8.0,41.0,33.0,23.0,20.0,23,307.0,square3,f,0.4671,2,S,9.0
S9,9.0,30.0,35.0,24.0,27.0,35,342.0,square2,j,0.076,1,S,9.0
S9,10.0,41.0,29.0,23.0,28.0,41,383.0,square1,i,0.2938,0,S,9.0
S9,11.0,37.0,38.0,22.0,33.0,33,416.0,square4,r,0.3765,3,S,9.0
S9,12.0,35.0,31.0,27.0,32.0,35,451.0,square1,i,0.1725,0,S,9.0
S9,13.0,38.0,37.0,30.0,29.0,37,488.0,square2,j,0.3543,1,S,9.0
S9,14.0,36.0,38.0,30.0,37.0,30,518.0,square3,f,0.395,2,S,9.0
S9,15.0,40.0,29.0,27.0,24.0,29,547.0,square2,j,0.1883,1,S,9.0
S9,16.0,33.0,37.0,29.0,28.0,28,575.0,square4,r,0.5773,3,S,9.0
S9,17.0,41.0,32.0,36.0,31.0,41,616.0,square1,i,0.1563,0,S,9.0
S9,18.0,39.0,26.0,16.0,35.0,39,655.0,square1,i,0.3961,0,S,9.0
S9,19.0,35.0,30.0,23.0,27.0,35,690.0,square1,i,0.3428,0,S,9.0
S9,20.0,39.0,34.0,23.0,29.0,39,729.0,square1,i,0.3928,0,S,9.0
S9,21.0,35.0,37.0,28.0,31.0,35,764.0,square1,i,0.2161,0,S,9.0
S9,22.0,37.0,30.0,23.0,38.0,37,801.0,square1,i,0.2589,0,S,9.0
S9,23.0,37.0,34.0,27.0,34.0,37,838.0,square1,i,0.2793,0,S,9.0
S9,24.0,31.0,34.0,26.0,27.0,34,872.0,square2,j,0.2817,1,S,9.0
S9,25.0,38.0,40.0,29.0,24.0,29,901.0,square3,f,0.2257,2,S,9.0
S9,26.0,43.0,31.0,21.0,24.0,24,925.0,square4,r,0.1254,3,S,9.0
S9,27.0,30.0,31.0,23.0,28.0,30,955.0,square1,i,0.5442,0,S,9.0
S9,28.0,44.0,32.0,31.0,32.0,32,987.0,square2,j,0.5437,1,S,9.0
S9,29.0,36.0,38.0,22.0,22.0,36,1023.0,square1,i,0.0448,0,S,9.0
S9,30.0,41.0,30.0,26.0,29.0,41,1064.0,square1,i,0.361,0,S,9.0
S9,31.0,39.0,37.0,30.0,32.0,39,1103.0,square1,i,0.413,0,S,9.0
S9,32.0,35.0,39.0,28.0,31.0,35,1138.0,square1,i,0.7622,0,S,9.0
S9,33.0,37.0,39.0,29.0,32.0,37,1175.0,square1,i,0.3961,0,S,9.0
S9,34.0,46.0,33.0,21.0,25.0,46,1221.0,square1,i,0.3089,0,S,9.0
S9,35.0,38.0,33.0,28.0,28.0,38,1259.0,square1,i,0.3766,0,S,9.0
S9,36.0,40.0,37.0,21.0,32.0,40,1299.0,square1,i,0.3311,0,S,9.0
S9,37.0,38.0,43.0,23.0,37.0,38,1337.0,square1,i,0.7757,0,S,9.0
S9,38.0,36.0,31.0,29.0,29.0,36,1373.0,square1,i,0.2085,0,S,9.0
S9,39.0,41.0,29.0,26.0,28.0,41,1414.0,square1,i,0.0573,0,S,9.0
S9,40.0,32.0,36.0,26.0,28.0,32,1446.0,square1,i,0.8286,0,S,9.0
S9,41.0,40.0,37.0,35.0,28.0,40,1486.0,square1,i,1.0423,0,S,9.0
S9,42.0,43.0,32.0,26.0,37.0,43,1529.0,square1,i,0.1663,0,S,9.0
S9,43.0,40.0,31.0,23.0,31.0,40,1569.0,square1,i,0.2628,0,S,9.0
S9,44.0,42.0,38.0,24.0,40.0,42,1611.0,square1,i,0.1609,0,S,9.0
S9,45.0,36.0,35.0,30.0,33.0,36,1647.0,square1,i,0.2446,0,S,9.0
S9,46.0,38.0,30.0,33.0,26.0,38,1685.0,square1,i,0.3058,0,S,9.0
S9,47.0,39.0,37.0,25.0,26.0,39,1724.0,square1,i,0.9916,0,S,9.0
S9,48.0,36.0,35.0,26.0,27.0,36,1760.0,square1,i,0.6606,0,S,9.0
S9,49.0,40.0,32.0,24.0,28.0,40,1800.0,square1,i,0.3089,0,S,9.0
S1,0.0,72.0,58.0,70.0,66.0,99999,0.0,invalid,,,-1,S,1.0
S1,1.0,75.0,64.0,66.0,69.0,66,66.0,square3,i,0.6463,2,S,1.0
S1,2.0,75.0,62.0,62.0,79.0,75,141.0,square1,r,0.5273,0,S,1.0
S1,3.0,68.0,62.0,63.0,69.0,62,203.0,square2,f,0.3107,1,S,1.0
S1,4.0,82.0,63.0,64.0,73.0,73,276.0,square4,j,0.3819,3,S,1.0
S1,5.0,66.0,70.0,65.0,73.0,66,342.0,square1,r,0.3967,0,S,1.0
S1,6.0,73.0,65.0,62.0,65.0,65,407.0,square2,f,0.4275,1,S,1.0
S1,7.0,70.0,61.0,65.0,66.0,66,473.0,square4,j,0.2494,3,S,1.0
S1,8.0,78.0,63.0,67.0,68.0,67,540.0,square3,i,0.2301,2,S,1.0
S1,9.0,74.0,67.0,66.0,68.0,66,606.0,square3,i,0.5932,2,S,1.0
S1,10.0,73.0,59.0,68.0,68.0,68,674.0,square3,i,0.3137,2,S,1.0
S1,11.0,76.0,65.0,62.0,81.0,62,736.0,square3,i,0.277,2,S,1.0
S1,12.0,77.0,66.0,69.0,63.0,77,813.0,square1,r,0.343,0,S,1.0
S1,13.0,75.0,63.0,68.0,73.0,75,888.0,square1,r,0.3261,0,S,1.0
S1,14.0,67.0,60.0,67.0,69.0,67,955.0,square1,r,0.3162,0,S,1.0
S1,15.0,70.0,63.0,69.0,73.0,70,1025.0,square1,r,0.1655,0,S,1.0
S1,16.0,69.0,61.0,69.0,69.0,69,1094.0,square1,r,0.2661,0,S,1.0
S1,17.0,73.0,68.0,67.0,73.0,73,1167.0,square1,r,0.3768,0,S,1.0
S1,18.0,70.0,58.0,73.0,66.0,70,1237.0,square1,r,0.4934,0,S,1.0
S1,19.0,75.0,58.0,62.0,68.0,75,1312.0,square1,r,0.2942,0,S,1.0
S1,20.0,76.0,58.0,72.0,67.0,76,1388.0,square1,r,0.2274,0,S,1.0
S1,21.0,69.0,66.0,66.0,67.0,69,1457.0,square1,r,0.0943,0,S,1.0
S1,22.0,70.0,68.0,65.0,65.0,70,1527.0,square1,r,0.2116,0,S,1.0
S1,23.0,71.0,60.0,64.0,64.0,71,1598.0,square1,r,0.3403,0,S,1.0
S1,24.0,70.0,72.0,62.0,67.0,70,1668.0,square1,r,0.2284,0,S,1.0
S1,25.0,68.0,60.0,70.0,65.0,68,1736.0,square1,r,0.2807,0,S,1.0
S1,26.0,76.0,64.0,72.0,69.0,76,1812.0,square1,r,0.1776,0,S,1.0
S1,27.0,71.0,56.0,70.0,65.0,71,1883.0,square1,r,0.1729,0,S,1.0
S1,28.0,67.0,67.0,71.0,76.0,67,1950.0,square1,r,0.3505,0,S,1.0
S1,29.0,78.0,64.0,64.0,74.0,78,2028.0,square1,r,0.3732,0,S,1.0
S1,30.0,74.0,63.0,65.0,71.0,74,2102.0,square1,r,0.2831,0,S,1.0
S1,31.0,78.0,58.0,69.0,69.0,78,2180.0,square1,r,0.1716,0,S,1.0
S1,32.0,71.0,67.0,68.0,60.0,71,2251.0,square1,r,0.1605,0,S,1.0
S1,33.0,68.0,63.0,65.0,73.0,68,2319.0,square1,r,0.0781,0,S,1.0
S1,34.0,71.0,62.0,74.0,73.0,71,2390.0,square1,r,0.1585,0,S,1.0
S1,35.0,75.0,59.0,67.0,77.0,75,2465.0,square1,r,0.2104,0,S,1.0
S1,36.0,77.0,60.0,66.0,67.0,77,2542.0,square1,r,0.0446,0,S,1.0
S1,37.0,69.0,60.0,69.0,75.0,69,2611.0,square1,r,0.228,0,S,1.0
S1,38.0,77.0,64.0,62.0,70.0,77,2688.0,square1,r,0.0883,0,S,1.0
S1,39.0,72.0,66.0,69.0,65.0,72,2760.0,square1,r,0.4776,0,S,1.0
S1,40.0,69.0,63.0,66.0,69.0,69,2829.0,square1,r,0.3822,0,S,1.0
S1,41.0,72.0,62.0,70.0,70.0,72,2901.0,square1,r,0.123,0,S,1.0
S1,42.0,78.0,60.0,63.0,62.0,78,2979.0,square1,r,0.1937,0,S,1.0
S1,43.0,71.0,62.0,67.0,73.0,71,3050.0,square1,r,0.1776,0,S,1.0
S1,44.0,75.0,63.0,69.0,73.0,75,3125.0,square1,r,0.5427,0,S,1.0
S1,45.0,66.0,60.0,68.0,73.0,66,3191.0,square1,r,0.14,0,S,1.0
S1,46.0,74.0,67.0,69.0,71.0,74,3265.0,square1,r,0.411,0,S,1.0
S1,47.0,71.0,66.0,68.0,70.0,71,3336.0,square1,r,0.1636,0,S,1.0
S1,48.0,72.0,75.0,71.0,77.0,72,3408.0,square1,r,0.3122,0,S,1.0
S1,49.0,65.0,57.0,66.0,75.0,65,3473.0,square1,r,0.328,0,S,1.0
S7,0.0,68.0,73.0,62.0,57.0,62,62.0,square3,r,1.5991,2,S,7.0
S7,1.0,74.0,67.0,66.0,59.0,59,121.0,square4,i,0.027,3,S,7.0
S7,2.0,68.0,69.0,65.0,60.0,69,190.0,square2,j,0.5592,1,S,7.0
S7,3.0,74.0,68.0,65.0,63.0,74,264.0,square1,f,0.2046,0,S,7.0
S7,4.0,68.0,74.0,67.0,63.0,68,332.0,square1,f,0.3605,0,S,7.0
S7,5.0,68.0,67.0,61.0,57.0,68,400.0,square1,f,0.1605,0,S,7.0
S7,6.0,72.0,64.0,65.0,51.0,72,472.0,square1,f,0.328,0,S,7.0
S7,7.0,69.0,63.0,69.0,63.0,69,541.0,square1,f,0.0642,0,S,7.0
S7,8.0,71.0,68.0,63.0,54.0,71,612.0,square1,f,0.1441,0,S,7.0
S7,9.0,81.0,66.0,68.0,62.0,81,693.0,square1,f,0.2612,0,S,7.0
S7,10.0,72.0,73.0,68.0,61.0,72,765.0,square1,f,0.3408,0,S,7.0
S7,11.0,72.0,72.0,62.0,58.0,72,837.0,square1,f,0.3597,0,S,7.0
S7,12.0,66.0,66.0,62.0,61.0,66,903.0,square1,f,0.078,0,S,7.0
S7,13.0,73.0,75.0,75.0,68.0,73,976.0,square1,f,0.1994,0,S,7.0
S7,14.0,71.0,73.0,72.0,66.0,71,1047.0,square1,f,0.2639,0,S,7.0
S7,15.0,75.0,68.0,68.0,65.0,75,1122.0,square1,f,0.3439,0,S,7.0
S7,16.0,67.0,65.0,62.0,56.0,67,1189.0,square1,f,0.4765,0,S,7.0
S7,17.0,72.0,67.0,63.0,64.0,72,1261.0,square1,f,0.0007,0,S,7.0
S7,18.0,73.0,69.0,66.0,65.0,73,1334.0,square1,f,0.2949,0,S,7.0
S7,19.0,75.0,70.0,62.0,58.0,75,1409.0,square1,f,0.1775,0,S,7.0
S7,20.0,76.0,63.0,67.0,62.0,76,1485.0,square1,f,0.0006,0,S,7.0
S7,21.0,79.0,76.0,63.0,64.0,79,1564.0,square1,f,0.1761,0,S,7.0
S7,22.0,67.0,72.0,63.0,62.0,67,1631.0,square1,f,0.311,0,S,7.0
S7,23.0,69.0,71.0,70.0,62.0,69,1700.0,square1,f,0.2569,0,S,7.0
S7,24.0,74.0,67.0,70.0,62.0,74,1774.0,square1,f,0.2616,0,S,7.0
S7,25.0,70.0,67.0,72.0,62.0,70,1844.0,square1,f,0.6099,0,S,7.0
S7,26.0,72.0,62.0,74.0,65.0,72,1916.0,square1,f,0.0609,0,S,7.0
S7,27.0,69.0,70.0,68.0,62.0,69,1985.0,square1,f,0.3636,0,S,7.0
S7,28.0,65.0,66.0,60.0,62.0,65,2050.0,square1,f,0.2775,0,S,7.0
S7,29.0,70.0,64.0,60.0,68.0,70,2120.0,square1,f,0.3761,0,S,7.0
S7,30.0,69.0,69.0,64.0,57.0,69,2189.0,square1,f,0.35,0,S,7.0
S7,31.0,77.0,67.0,65.0,60.0,77,2266.0,square1,f,0.23,0,S,7.0
S7,32.0,67.0,75.0,65.0,58.0,67,2333.0,square1,f,0.344,0,S,7.0
S7,33.0,74.0,66.0,66.0,60.0,74,2407.0,square1,f,0.032,0,S,7.0
S7,34.0,72.0,72.0,66.0,61.0,72,2479.0,square1,f,0.3576,0,S,7.0
S7,35.0,67.0,68.0,64.0,62.0,67,2546.0,square1,f,0.1395,0,S,7.0
S7,36.0,64.0,63.0,70.0,58.0,64,2610.0,square1,f,0.1341,0,S,7.0
S7,37.0,80.0,72.0,64.0,53.0,80,2690.0,square1,f,0.531,0,S,7.0
S7,38.0,78.0,69.0,76.0,67.0,78,2768.0,square1,f,0.2967,0,S,7.0
S7,39.0,69.0,66.0,60.0,67.0,69,2837.0,square1,f,0.0942,0,S,7.0
S7,40.0,72.0,71.0,63.0,66.0,72,2909.0,square1,f,0.3615,0,S,7.0
S7,41.0,80.0,73.0,65.0,63.0,80,2989.0,square1,f,0.4283,0,S,7.0
S7,42.0,77.0,60.0,65.0,59.0,77,3066.0,square1,f,0.1616,0,S,7.0
S7,43.0,70.0,72.0,70.0,63.0,70,3136.0,square1,f,0.1273,0,S,7.0
S7,44.0,77.0,70.0,66.0,58.0,77,3213.0,square1,f,0.3825,0,S,7.0
S7,45.0,75.0,69.0,73.0,58.0,75,3288.0,square1,f,1.1768,0,S,7.0
S7,46.0,74.0,71.0,63.0,63.0,74,3362.0,square1,f,0.7895,0,S,7.0
S7,47.0,73.0,75.0,71.0,64.0,73,3435.0,square1,f,1.035,0,S,7.0
S7,48.0,78.0,79.0,64.0,58.0,78,3513.0,square1,f,0.3611,0,S,7.0
S7,49.0,75.0,72.0,66.0,72.0,75,3588.0,square1,f,1.4548,0,S,7.0
S10,0.0,72.0,76.0,80.0,64.0,64,64.0,square4,r,1.8374,3,S,10.0
S10,1.0,76.0,75.0,74.0,65.0,75,139.0,square2,i,0.6546,1,S,10.0
S10,2.0,70.0,72.0,79.0,74.0,70,209.0,square1,j,0.5322,0,S,10.0
S10,3.0,69.0,77.0,76.0,68.0,76,285.0,square3,f,0.7282,2,S,10.0
S10,4.0,72.0,79.0,77.0,70.0,77,362.0,square3,f,0.7899,2,S,10.0
S10,5.0,68.0,74.0,72.0,64.0,68,430.0,square1,j,1.0798,0,S,10.0
S10,6.0,70.0,77.0,72.0,62.0,77,507.0,square2,i,0.4093,1,S,10.0
S10,7.0,78.0,81.0,80.0,74.0,74,581.0,square4,r,0.0952,3,S,10.0
S10,8.0,78.0,78.0,82.0,66.0,82,663.0,square3,f,0.3271,2,S,10.0
S10,9.0,69.0,76.0,77.0,65.0,77,740.0,square3,f,0.4622,2,S,10.0
S10,10.0,72.0,78.0,72.0,75.0,72,812.0,square3,f,0.1792,2,S,10.0
S10,11.0,71.0,76.0,78.0,66.0,78,890.0,square3,f,0.2961,2,S,10.0
S10,12.0,73.0,83.0,79.0,69.0,79,969.0,square3,f,0.2965,2,S,10.0
S10,13.0,68.0,77.0,65.0,65.0,65,1034.0,square3,f,0.1949,2,S,10.0
S10,14.0,69.0,84.0,79.0,65.0,79,1113.0,square3,f,0.3949,2,S,10.0
S10,15.0,72.0,84.0,70.0,71.0,70,1183.0,square3,f,0.2473,2,S,10.0
S10,16.0,79.0,80.0,82.0,67.0,82,1265.0,square3,f,0.0007,2,S,10.0
S10,17.0,69.0,83.0,75.0,70.0,75,1340.0,square3,f,0.246,2,S,10.0
S10,18.0,69.0,75.0,69.0,68.0,69,1409.0,square3,f,0.1104,2,S,10.0
S10,19.0,70.0,83.0,73.0,66.0,73,1482.0,square3,f,0.327,2,S,10.0
S10,20.0,69.0,83.0,75.0,66.0,75,1557.0,square3,f,0.4229,2,S,10.0
S10,21.0,77.0,70.0,75.0,70.0,75,1632.0,square3,f,0.8265,2,S,10.0
S10,22.0,73.0,77.0,81.0,69.0,81,1713.0,square3,f,0.5434,2,S,10.0
S10,23.0,73.0,78.0,70.0,65.0,70,1783.0,square3,f,0.026,2,S,10.0
S10,24.0,70.0,80.0,75.0,66.0,75,1858.0,square3,f,0.1333,2,S,10.0
S10,25.0,70.0,80.0,73.0,72.0,73,1931.0,square3,f,0.1763,2,S,10.0
S10,26.0,73.0,75.0,73.0,75.0,73,2004.0,square3,f,1.0271,2,S,10.0
S10,27.0,77.0,81.0,83.0,66.0,83,2087.0,square3,f,0.1428,2,S,10.0
S10,28.0,73.0,79.0,79.0,73.0,79,2166.0,square3,f,1.1273,2,S,10.0
S10,29.0,73.0,79.0,72.0,69.0,99999,2166.0,invalid,,,-1,S,10.0
S10,30.0,71.0,85.0,79.0,69.0,79,2245.0,square3,f,0.1251,2,S,10.0
S10,31.0,71.0,85.0,83.0,66.0,83,2328.0,square3,f,0.2107,2,S,10.0
S10,32.0,78.0,79.0,77.0,65.0,77,2405.0,square3,f,0.715,2,S,10.0
S10,33.0,83.0,79.0,72.0,68.0,72,2477.0,square3,f,1.0447,2,S,10.0
S10,34.0,68.0,74.0,79.0,72.0,79,2556.0,square3,f,0.0655,2,S,10.0
S10,35.0,70.0,83.0,79.0,67.0,79,2635.0,square3,f,0.0609,2,S,10.0
S10,36.0,67.0,76.0,75.0,72.0,75,2710.0,square3,f,0.5115,2,S,10.0
S10,37.0,76.0,82.0,79.0,60.0,79,2789.0,square3,f,1.2478,2,S,10.0
S10,38.0,72.0,75.0,69.0,68.0,69,2858.0,square3,f,0.0055,2,S,10.0
S10,39.0,73.0,78.0,76.0,70.0,76,2934.0,square3,f,1.045,2,S,10.0
S10,40.0,76.0,77.0,66.0,60.0,66,3000.0,square3,f,0.4565,2,S,10.0
S10,41.0,74.0,83.0,73.0,67.0,73,3073.0,square3,f,0.1272,2,S,10.0
S10,42.0,72.0,69.0,80.0,63.0,80,3153.0,square3,f,0.127,2,S,10.0
S10,43.0,69.0,74.0,72.0,68.0,72,3225.0,square3,f,0.244,2,S,10.0
S10,44.0,67.0,76.0,70.0,65.0,70,3295.0,square3,f,0.2803,2,S,10.0
S10,45.0,76.0,81.0,74.0,72.0,74,3369.0,square3,f,0.3604,2,S,10.0
S10,46.0,76.0,79.0,76.0,66.0,76,3445.0,square3,f,0.0607,2,S,10.0
S10,47.0,67.0,81.0,84.0,60.0,84,3529.0,square3,f,0.3604,2,S,10.0
S10,48.0,73.0,83.0,75.0,66.0,75,3604.0,square3,f,0.428,2,S,10.0
S10,49.0,66.0,77.0,74.0,71.0,74,3678.0,square3,f,0.4271,2,S,10.0
