block,Trial,square1,square2,square3,square4,currPoints,totalPoints,square,choiceKey.keys,choiceKey.rt,armNum,blockType,blockNum
prac,0.0,100.0,0.0,0.0,0.0,99999,0.0,invalid,,,-1,p,0.0
prac,1.0,100.0,0.0,0.0,0.0,99999,0.0,invalid,,,-1,p,0.0
prac,2.0,100.0,0.0,0.0,0.0,0,0.0,square3,,,2,p,0.0
prac,3.0,100.0,0.0,0.0,0.0,0,0.0,square2,,,1,p,0.0
prac,4.0,100.0,0.0,0.0,0.0,0,0.0,square4,,,3,p,0.0
prac,5.0,100.0,0.0,0.0,0.0,100,100.0,square1,,,0,p,0.0
prac,6.0,100.0,0.0,0.0,0.0,100,200.0,square1,,,0,p,0.0
prac,7.0,100.0,0.0,0.0,0.0,100,300.0,square1,,,0,p,0.0
prac,8.0,100.0,0.0,0.0,0.0,100,400.0,square1,,,0,p,0.0
prac,9.0,100.0,0.0,0.0,0.0,100,500.0,square1,,,0,p,0.0
NS5,0.0,26.0,19.0,54.0,39.0,19,19.0,square2,i,0.8995,1,N,5.0
NS5,1.0,21.0,17.0,51.0,42.0,42,61.0,square4,j,0.3653,3,N,5.0
NS5,2.0,19.0,17.0,52.0,42.0,19,80.0,square1,f,0.281,0,N,5.0
NS5,3.0,21.0,16.0,55.0,38.0,55,135.0,square3,r,0.2914,2,N,5.0
NS5,4.0,14.0,26.0,52.0,44.0,52,187.0,square3,r,0.3019,2,N,5.0
NS5,5.0,18.0,25.0,47.0,42.0,25,212.0,square2,i,0.1213,1,N,5.0
NS5,6.0,23.0,21.0,54.0,38.0,38,250.0,square4,j,0.1742,3,N,5.0
NS5,7.0,18.0,27.0,56.0,39.0,18,268.0,square1,f,0.0082,0,N,5.0
NS5,8.0,18.0,28.0,57.0,40.0,57,325.0,square3,r,0.5802,2,N,5.0
NS5,9.0,15.0,29.0,53.0,38.0,53,378.0,square3,r,0.2793,2,N,5.0
NS5,10.0,13.0,26.0,56.0,41.0,56,434.0,square3,r,0.1983,2,N,5.0
NS5,11.0,11.0,25.0,58.0,41.0,58,492.0,square3,r,0.1459,2,N,5.0
NS5,12.0,9.0,22.0,53.0,40.0,53,545.0,square3,r,0.1465,2,N,5.0
NS5,13.0,11.0,21.0,55.0,39.0,55,600.0,square3,r,0.1197,2,N,5.0
NS5,14.0,12.0,17.0,49.0,38.0,49,649.0,square3,r,0.0886,2,N,5.0
NS5,15.0,18.0,19.0,52.0,37.0,52,701.0,square3,r,0.7619,2,N,5.0
NS5,16.0,18.0,20.0,49.0,40.0,49,750.0,square3,r,0.3133,2,N,5.0
NS5,17.0,16.0,16.0,50.0,41.0,16,766.0,square2,i,0.0084,1,N,5.0
NS5,18.0,16.0,18.0,51.0,43.0,43,809.0,square4,j,0.5218,3,N,5.0
NS5,19.0,14.0,20.0,44.0,45.0,44,853.0,square3,r,0.1976,2,N,5.0
NS5,20.0,19.0,21.0,42.0,48.0,48,901.0,square4,j,0.0663,3,N,5.0
NS5,21.0,19.0,22.0,43.0,47.0,47,948.0,square4,j,0.1966,3,N,5.0
NS5,22.0,17.0,15.0,43.0,47.0,43,991.0,square3,r,0.1974,2,N,5.0
NS5,23.0,16.0,28.0,37.0,47.0,16,1007.0,square1,f,0.5253,0,N,5.0
NS5,24.0,20.0,21.0,38.0,49.0,38,1045.0,square3,r,0.3065,2,N,5.0
NS5,25.0,22.0,17.0,34.0,46.0,46,1091.0,square4,j,0.1983,3,N,5.0
NS5,26.0,30.0,16.0,32.0,50.0,50,1141.0,square4,j,0.283,3,N,5.0
NS5,27.0,21.0,20.0,35.0,42.0,42,1183.0,square4,j,0.2313,3,N,5.0
NS5,28.0,20.0,23.0,39.0,42.0,39,1222.0,square3,r,0.2803,2,N,5.0
NS5,29.0,21.0,18.0,39.0,41.0,41,1263.0,square4,j,0.5491,3,N,5.0
NS5,30.0,20.0,11.0,41.0,44.0,44,1307.0,square4,j,0.2076,3,N,5.0
NS5,31.0,20.0,9.0,36.0,43.0,43,1350.0,square4,j,0.3585,3,N,5.0
NS5,32.0,21.0,13.0,35.0,46.0,35,1385.0,square3,r,0.3343,2,N,5.0
NS5,33.0,16.0,22.0,32.0,44.0,44,1429.0,square4,j,0.3118,3,N,5.0
NS5,34.0,20.0,20.0,33.0,37.0,20,1449.0,square2,i,0.318,1,N,5.0
NS5,35.0,19.0,27.0,34.0,40.0,19,1468.0,square1,f,0.502,0,N,5.0
NS5,36.0,20.0,23.0,31.0,37.0,37,1505.0,square4,j,0.1148,3,N,5.0
NS5,37.0,15.0,28.0,41.0,40.0,40,1545.0,square4,j,0.2001,3,N,5.0
NS5,38.0,18.0,21.0,45.0,37.0,37,1582.0,square4,j,0.0917,3,N,5.0
NS5,39.0,23.0,22.0,40.0,34.0,34,1616.0,square4,j,0.0662,3,N,5.0
NS5,40.0,22.0,25.0,44.0,26.0,26,1642.0,square4,j,0.2271,3,N,5.0
NS5,41.0,28.0,25.0,39.0,29.0,39,1681.0,square3,r,0.2549,2,N,5.0
NS5,42.0,27.0,27.0,42.0,35.0,42,1723.0,square3,r,0.2007,2,N,5.0
NS5,43.0,25.0,25.0,49.0,38.0,49,1772.0,square3,r,0.0676,2,N,5.0
NS5,44.0,24.0,26.0,42.0,30.0,42,1814.0,square3,r,0.2282,2,N,5.0
NS5,45.0,33.0,22.0,43.0,37.0,43,1857.0,square3,r,0.3297,2,N,5.0
NS5,46.0,32.0,24.0,50.0,38.0,50,1907.0,square3,r,0.2577,2,N,5.0
NS5,47.0,39.0,25.0,52.0,29.0,52,1959.0,square3,r,0.3238,2,N,5.0
NS5,48.0,42.0,22.0,46.0,33.0,46,2005.0,square3,r,0.2531,2,N,5.0
NS5,49.0,40.0,26.0,40.0,33.0,40,2045.0,square3,r,0.2825,2,N,5.0
NS5,50.0,34.0,19.0,47.0,33.0,47,2092.0,square3,r,0.2766,2,N,5.0
NS5,51.0,29.0,25.0,45.0,29.0,45,2137.0,square3,r,0.0624,2,N,5.0
NS5,52.0,29.0,24.0,48.0,35.0,48,2185.0,square3,r,0.0085,2,N,5.0
NS5,53.0,24.0,25.0,45.0,40.0,45,2230.0,square3,r,0.2884,2,N,5.0
NS5,54.0,26.0,25.0,51.0,36.0,51,2281.0,square3,r,0.009,2,N,5.0
NS5,55.0,25.0,28.0,56.0,34.0,56,2337.0,square3,r,0.0381,2,N,5.0
NS5,56.0,23.0,27.0,54.0,36.0,54,2391.0,square3,r,0.0093,2,N,5.0
NS5,57.0,19.0,25.0,51.0,31.0,51,2442.0,square3,r,0.0089,2,N,5.0
NS5,58.0,20.0,30.0,53.0,29.0,53,2495.0,square3,r,0.2524,2,N,5.0
NS5,59.0,17.0,30.0,52.0,28.0,52,2547.0,square3,r,0.0897,2,N,5.0
NS5,60.0,15.0,30.0,55.0,30.0,55,2602.0,square3,r,0.1461,2,N,5.0
NS5,61.0,22.0,29.0,54.0,30.0,54,2656.0,square3,r,0.1468,2,N,5.0
NS5,62.0,18.0,31.0,55.0,32.0,55,2711.0,square3,r,0.361,2,N,5.0
NS5,63.0,19.0,31.0,51.0,37.0,51,2762.0,square3,r,0.3406,2,N,5.0
NS5,64.0,20.0,30.0,45.0,35.0,45,2807.0,square3,r,0.3067,2,N,5.0
NS5,65.0,24.0,21.0,55.0,38.0,55,2862.0,square3,r,0.3291,2,N,5.0
NS5,66.0,22.0,29.0,58.0,36.0,58,2920.0,square3,r,0.3414,2,N,5.0
NS5,67.0,22.0,26.0,51.0,36.0,51,2971.0,square3,r,0.3377,2,N,5.0
NS5,68.0,20.0,28.0,52.0,36.0,52,3023.0,square3,r,0.3301,2,N,5.0
NS5,69.0,18.0,27.0,52.0,40.0,52,3075.0,square3,r,0.3112,2,N,5.0
NS5,70.0,22.0,34.0,55.0,39.0,55,3130.0,square3,r,0.3042,2,N,5.0
NS5,71.0,27.0,37.0,59.0,41.0,59,3189.0,square3,r,0.3353,2,N,5.0
NS5,72.0,27.0,37.0,57.0,40.0,57,3246.0,square3,r,0.3375,2,N,5.0
NS5,73.0,35.0,36.0,55.0,38.0,55,3301.0,square3,r,0.3404,2,N,5.0
NS5,74.0,27.0,36.0,52.0,36.0,52,3353.0,square3,r,0.3089,2,N,5.0
NS5,75.0,31.0,40.0,53.0,38.0,53,3406.0,square3,r,0.2237,2,N,5.0
NS5,76.0,33.0,41.0,59.0,35.0,59,3465.0,square3,r,0.1692,2,N,5.0
NS5,77.0,33.0,42.0,56.0,38.0,56,3521.0,square3,r,0.0928,2,N,5.0
NS5,78.0,30.0,42.0,53.0,37.0,53,3574.0,square3,r,0.066,2,N,5.0
NS5,79.0,27.0,49.0,51.0,44.0,51,3625.0,square3,r,0.0353,2,N,5.0
NS5,80.0,31.0,49.0,45.0,44.0,45,3670.0,square3,r,0.0406,2,N,5.0
NS5,81.0,33.0,51.0,48.0,43.0,48,3718.0,square3,r,0.0656,2,N,5.0
NS5,82.0,31.0,54.0,41.0,43.0,41,3759.0,square3,r,0.0357,2,N,5.0
NS5,83.0,25.0,57.0,42.0,40.0,42,3801.0,square3,r,0.3679,2,N,5.0
NS5,84.0,36.0,57.0,45.0,38.0,38,3839.0,square4,j,0.4676,3,N,5.0
NS5,85.0,36.0,62.0,44.0,42.0,44,3883.0,square3,r,0.0909,2,N,5.0
NS5,86.0,33.0,55.0,48.0,43.0,48,3931.0,square3,r,0.0891,2,N,5.0
NS5,87.0,37.0,53.0,44.0,46.0,44,3975.0,square3,r,0.065,2,N,5.0
NS5,88.0,36.0,54.0,41.0,48.0,41,4016.0,square3,r,0.09,2,N,5.0
NS5,89.0,39.0,62.0,47.0,47.0,47,4063.0,square3,r,0.0382,2,N,5.0
NS5,90.0,37.0,62.0,51.0,48.0,51,4114.0,square3,r,0.0091,2,N,5.0
NS5,91.0,40.0,64.0,48.0,53.0,48,4162.0,square3,r,0.1432,2,N,5.0
NS5,92.0,42.0,64.0,51.0,55.0,51,4213.0,square3,r,0.0913,2,N,5.0
NS5,93.0,39.0,63.0,51.0,53.0,51,4264.0,square3,r,0.0945,2,N,5.0
NS5,94.0,41.0,60.0,50.0,58.0,50,4314.0,square3,r,0.1978,2,N,5.0
NS5,95.0,36.0,55.0,53.0,52.0,53,4367.0,square3,r,0.0645,2,N,5.0
NS5,96.0,36.0,56.0,55.0,56.0,55,4422.0,square3,r,0.0635,2,N,5.0
NS5,97.0,28.0,52.0,57.0,53.0,57,4479.0,square3,r,0.0095,2,N,5.0
NS5,98.0,29.0,53.0,53.0,43.0,53,4532.0,square3,r,0.0391,2,N,5.0
NS5,99.0,25.0,55.0,53.0,46.0,53,4585.0,square3,r,0.4709,2,N,5.0
NS8,0.0,61.0,62.0,34.0,32.0,99999,0.0,invalid,,,-1,N,8.0
NS8,1.0,57.0,56.0,38.0,27.0,57,57.0,square1,r,1.8973,0,N,8.0
NS8,2.0,66.0,55.0,42.0,28.0,99999,57.0,invalid,,,-1,N,8.0
NS8,3.0,67.0,51.0,37.0,28.0,28,85.0,square4,f,0.4544,3,N,8.0
NS8,4.0,65.0,53.0,38.0,32.0,53,138.0,square2,j,0.3525,1,N,8.0
NS8,5.0,67.0,52.0,43.0,33.0,43,181.0,square3,i,0.324,2,N,8.0
NS8,6.0,56.0,47.0,41.0,36.0,56,237.0,square1,r,0.3251,0,N,8.0
NS8,7.0,58.0,46.0,37.0,31.0,46,283.0,square2,j,0.203,1,N,8.0
NS8,8.0,60.0,58.0,36.0,35.0,36,319.0,square3,i,0.154,2,N,8.0
NS8,9.0,60.0,66.0,41.0,39.0,66,385.0,square2,j,0.1006,1,N,8.0
NS8,10.0,60.0,60.0,36.0,33.0,60,445.0,square1,r,0.31,0,N,8.0
NS8,11.0,53.0,63.0,32.0,35.0,35,480.0,square4,f,0.3675,3,N,8.0
NS8,12.0,51.0,60.0,32.0,29.0,51,531.0,square1,r,0.0775,0,N,8.0
NS8,13.0,53.0,65.0,30.0,32.0,65,596.0,square2,j,0.4803,1,N,8.0
NS8,14.0,56.0,69.0,25.0,33.0,69,665.0,square2,j,0.275,1,N,8.0
NS8,15.0,57.0,71.0,29.0,35.0,71,736.0,square2,j,0.0167,1,N,8.0
NS8,16.0,55.0,64.0,31.0,33.0,64,800.0,square2,j,0.0168,1,N,8.0
NS8,17.0,48.0,65.0,29.0,32.0,65,865.0,square2,j,0.0177,1,N,8.0
NS8,18.0,44.0,64.0,28.0,34.0,64,929.0,square2,j,0.7145,1,N,8.0
NS8,19.0,46.0,60.0,26.0,33.0,46,975.0,square1,r,0.3258,0,N,8.0
NS8,20.0,41.0,58.0,29.0,35.0,58,1033.0,square2,j,0.1547,1,N,8.0
NS8,21.0,45.0,57.0,29.0,35.0,57,1090.0,square2,j,0.3086,1,N,8.0
NS8,22.0,47.0,53.0,32.0,32.0,53,1143.0,square2,j,0.0842,1,N,8.0
NS8,23.0,49.0,52.0,33.0,35.0,52,1195.0,square2,j,0.2528,1,N,8.0
NS8,24.0,56.0,53.0,30.0,37.0,53,1248.0,square2,j,0.079,1,N,8.0
NS8,25.0,57.0,48.0,28.0,42.0,48,1296.0,square2,j,0.2365,1,N,8.0
NS8,26.0,52.0,48.0,33.0,43.0,48,1344.0,square2,j,0.012,1,N,8.0
NS8,27.0,53.0,45.0,28.0,47.0,53,1397.0,square1,r,0.4328,0,N,8.0
NS8,28.0,50.0,43.0,27.0,41.0,50,1447.0,square1,r,0.2013,0,N,8.0
NS8,29.0,53.0,52.0,29.0,43.0,53,1500.0,square1,r,0.2641,0,N,8.0
NS8,30.0,54.0,51.0,30.0,41.0,54,1554.0,square1,r,0.1603,0,N,8.0
NS8,31.0,50.0,50.0,31.0,42.0,50,1604.0,square1,r,0.0524,0,N,8.0
NS8,32.0,50.0,50.0,35.0,43.0,50,1654.0,square1,r,0.3449,0,N,8.0
NS8,33.0,46.0,48.0,39.0,41.0,46,1700.0,square1,r,0.3338,0,N,8.0
NS8,34.0,47.0,46.0,41.0,40.0,46,1746.0,square2,j,0.1556,1,N,8.0
NS8,35.0,57.0,45.0,36.0,37.0,36,1782.0,square3,i,0.4432,2,N,8.0
NS8,36.0,53.0,49.0,41.0,38.0,38,1820.0,square4,f,0.1986,3,N,8.0
NS8,37.0,57.0,50.0,41.0,39.0,50,1870.0,square2,j,0.0484,1,N,8.0
NS8,38.0,61.0,51.0,39.0,43.0,51,1921.0,square2,j,0.0842,1,N,8.0
NS8,39.0,59.0,54.0,41.0,36.0,54,1975.0,square2,j,0.1186,1,N,8.0
NS8,40.0,53.0,55.0,47.0,40.0,55,2030.0,square2,j,0.0914,1,N,8.0
NS8,41.0,53.0,55.0,43.0,39.0,55,2085.0,square2,j,0.0879,1,N,8.0
NS8,42.0,59.0,55.0,45.0,40.0,55,2140.0,square2,j,0.1638,1,N,8.0
NS8,43.0,54.0,46.0,51.0,37.0,46,2186.0,square2,j,0.0875,1,N,8.0
NS8,44.0,56.0,44.0,50.0,35.0,56,2242.0,square1,r,0.1959,0,N,8.0
NS8,45.0,51.0,46.0,41.0,37.0,51,2293.0,square1,r,0.2129,0,N,8.0
NS8,46.0,52.0,43.0,44.0,34.0,43,2336.0,square2,j,0.1892,1,N,8.0
NS8,47.0,46.0,41.0,36.0,37.0,46,2382.0,square1,r,0.1495,0,N,8.0
NS8,48.0,47.0,46.0,39.0,37.0,46,2428.0,square2,j,0.0791,1,N,8.0
NS8,49.0,48.0,36.0,38.0,40.0,48,2476.0,square1,r,0.0116,0,N,8.0
NS8,50.0,51.0,37.0,36.0,46.0,37,2513.0,square2,j,0.1979,1,N,8.0
NS8,51.0,53.0,38.0,40.0,43.0,53,2566.0,square1,r,0.2972,0,N,8.0
NS8,52.0,47.0,32.0,37.0,44.0,47,2613.0,square1,r,0.2229,0,N,8.0
NS8,53.0,52.0,31.0,38.0,46.0,31,2644.0,square2,j,0.1482,1,N,8.0
NS8,54.0,44.0,34.0,40.0,45.0,44,2688.0,square1,r,0.0115,0,N,8.0
NS8,55.0,46.0,26.0,37.0,41.0,46,2734.0,square1,r,0.3581,0,N,8.0
NS8,56.0,42.0,29.0,36.0,40.0,36,2770.0,square3,i,0.1407,2,N,8.0
NS8,57.0,39.0,21.0,39.0,40.0,40,2810.0,square4,f,0.1338,3,N,8.0
NS8,58.0,42.0,18.0,39.0,40.0,40,2850.0,square4,f,0.2914,3,N,8.0
NS8,59.0,46.0,16.0,41.0,39.0,39,2889.0,square4,f,0.5163,3,N,8.0
NS8,60.0,45.0,20.0,40.0,39.0,45,2934.0,square1,r,0.303,0,N,8.0
NS8,61.0,45.0,26.0,42.0,39.0,45,2979.0,square1,r,0.2823,0,N,8.0
NS8,62.0,46.0,21.0,45.0,37.0,46,3025.0,square1,r,0.2518,0,N,8.0
NS8,63.0,50.0,23.0,40.0,38.0,50,3075.0,square1,r,0.2964,0,N,8.0
NS8,64.0,46.0,24.0,41.0,33.0,46,3121.0,square1,r,0.2919,0,N,8.0
NS8,65.0,48.0,28.0,42.0,32.0,32,3153.0,square4,f,0.8229,3,N,8.0
NS8,66.0,47.0,20.0,40.0,35.0,20,3173.0,square2,j,0.045,1,N,8.0
NS8,67.0,49.0,25.0,46.0,34.0,49,3222.0,square1,r,0.0414,0,N,8.0
NS8,68.0,47.0,24.0,45.0,33.0,47,3269.0,square1,r,0.2671,0,N,8.0
NS8,69.0,45.0,21.0,47.0,35.0,45,3314.0,square1,r,0.1377,0,N,8.0
NS8,70.0,44.0,21.0,47.0,37.0,44,3358.0,square1,r,0.139,0,N,8.0
NS8,71.0,44.0,15.0,41.0,38.0,44,3402.0,square1,r,0.1052,0,N,8.0
NS8,72.0,47.0,19.0,49.0,40.0,40,3442.0,square4,f,0.3244,3,N,8.0
NS8,73.0,39.0,21.0,53.0,38.0,39,3481.0,square1,r,0.1074,0,N,8.0
NS8,74.0,42.0,19.0,53.0,35.0,35,3516.0,square4,f,0.2944,3,N,8.0
NS8,75.0,37.0,18.0,43.0,35.0,37,3553.0,square1,r,0.0734,0,N,8.0
NS8,76.0,35.0,14.0,42.0,38.0,42,3595.0,square3,i,0.4265,2,N,8.0
NS8,77.0,38.0,19.0,47.0,44.0,47,3642.0,square3,i,0.2386,2,N,8.0
NS8,78.0,38.0,18.0,50.0,46.0,50,3692.0,square3,i,0.1398,2,N,8.0
NS8,79.0,33.0,22.0,54.0,44.0,54,3746.0,square3,i,0.2308,2,N,8.0
NS8,80.0,38.0,21.0,56.0,52.0,56,3802.0,square3,i,0.1888,2,N,8.0
NS8,81.0,37.0,22.0,56.0,43.0,56,3858.0,square3,i,0.2979,2,N,8.0
NS8,82.0,30.0,26.0,60.0,42.0,60,3918.0,square3,i,0.1061,2,N,8.0
NS8,83.0,38.0,22.0,54.0,46.0,54,3972.0,square3,i,0.5901,2,N,8.0
NS8,84.0,33.0,18.0,52.0,46.0,52,4024.0,square3,i,0.0102,2,N,8.0
NS8,85.0,42.0,12.0,57.0,48.0,57,4081.0,square3,i,0.042,2,N,8.0
NS8,86.0,45.0,19.0,58.0,42.0,58,4139.0,square3,i,0.0438,2,N,8.0
NS8,87.0,46.0,10.0,65.0,44.0,65,4204.0,square3,i,0.0108,2,N,8.0
NS8,88.0,45.0,11.0,59.0,45.0,59,4263.0,square3,i,0.0425,2,N,8.0
NS8,89.0,42.0,11.0,60.0,47.0,60,4323.0,square3,i,0.1674,2,N,8.0
NS8,90.0,40.0,7.0,64.0,49.0,64,4387.0,square3,i,0.107,2,N,8.0
NS8,91.0,42.0,11.0,64.0,48.0,64,4451.0,square3,i,0.2068,2,N,8.0
NS8,92.0,43.0,13.0,60.0,43.0,60,4511.0,square3,i,0.2031,2,N,8.0
NS8,93.0,44.0,12.0,64.0,45.0,64,4575.0,square3,i,0.0424,2,N,8.0
NS8,94.0,45.0,16.0,65.0,49.0,65,4640.0,square3,i,0.3326,2,N,8.0
NS8,95.0,45.0,24.0,66.0,42.0,66,4706.0,square3,i,0.1085,2,N,8.0
NS8,96.0,53.0,27.0,67.0,44.0,67,4773.0,square3,i,0.2033,2,N,8.0
NS8,97.0,50.0,29.0,68.0,43.0,68,4841.0,square3,i,0.011,2,N,8.0
NS8,98.0,52.0,29.0,66.0,37.0,66,4907.0,square3,i,0.0489,2,N,8.0
NS8,99.0,53.0,32.0,65.0,37.0,65,4972.0,square3,i,0.0452,2,N,8.0
NS4,0.0,55.0,53.0,59.0,44.0,53,53.0,square2,r,1.1808,1,N,4.0
NS4,1.0,49.0,56.0,64.0,41.0,49,102.0,square1,i,0.3256,0,N,4.0
NS4,2.0,50.0,54.0,71.0,48.0,48,150.0,square4,j,0.1568,3,N,4.0
NS4,3.0,53.0,58.0,67.0,50.0,67,217.0,square3,f,0.102,2,N,4.0
NS4,4.0,49.0,51.0,70.0,55.0,70,287.0,square3,f,0.2021,2,N,4.0
NS4,5.0,55.0,59.0,73.0,58.0,73,360.0,square3,f,0.0142,2,N,4.0
NS4,6.0,56.0,54.0,71.0,57.0,71,431.0,square3,f,0.1033,2,N,4.0
NS4,7.0,60.0,54.0,75.0,52.0,75,506.0,square3,f,0.0154,2,N,4.0
NS4,8.0,58.0,53.0,74.0,52.0,74,580.0,square3,f,0.0185,2,N,4.0
NS4,9.0,46.0,48.0,78.0,51.0,78,658.0,square3,f,0.0577,2,N,4.0
NS4,10.0,55.0,48.0,78.0,51.0,78,736.0,square3,f,0.0143,2,N,4.0
NS4,11.0,55.0,44.0,79.0,49.0,79,815.0,square3,f,0.0137,2,N,4.0
NS4,12.0,50.0,40.0,79.0,50.0,40,855.0,square2,r,0.5265,1,N,4.0
NS4,13.0,45.0,39.0,79.0,53.0,45,900.0,square1,i,0.1793,0,N,4.0
NS4,14.0,44.0,38.0,77.0,56.0,56,956.0,square4,j,0.2265,3,N,4.0
NS4,15.0,45.0,32.0,68.0,52.0,68,1024.0,square3,f,0.1541,2,N,4.0
NS4,16.0,49.0,32.0,74.0,53.0,74,1098.0,square3,f,0.1041,2,N,4.0
NS4,17.0,45.0,32.0,69.0,51.0,69,1167.0,square3,f,0.0606,2,N,4.0
NS4,18.0,50.0,34.0,69.0,47.0,69,1236.0,square3,f,0.058,2,N,4.0
NS4,19.0,50.0,36.0,65.0,53.0,65,1301.0,square3,f,0.0602,2,N,4.0
NS4,20.0,45.0,36.0,62.0,53.0,62,1363.0,square3,f,0.1858,2,N,4.0
NS4,21.0,49.0,35.0,62.0,55.0,62,1425.0,square3,f,0.2397,2,N,4.0
NS4,22.0,53.0,32.0,61.0,60.0,61,1486.0,square3,f,0.0143,2,N,4.0
NS4,23.0,52.0,33.0,58.0,54.0,54,1540.0,square4,j,0.0129,3,N,4.0
NS4,24.0,48.0,32.0,52.0,60.0,52,1592.0,square3,f,0.199,2,N,4.0
NS4,25.0,47.0,30.0,53.0,57.0,30,1622.0,square2,r,0.0665,1,N,4.0
NS4,26.0,50.0,30.0,60.0,55.0,50,1672.0,square1,i,0.0552,0,N,4.0
NS4,27.0,50.0,28.0,62.0,47.0,62,1734.0,square3,f,0.0128,2,N,4.0
NS4,28.0,54.0,28.0,58.0,49.0,58,1792.0,square3,f,0.0986,2,N,4.0
NS4,29.0,44.0,29.0,50.0,49.0,50,1842.0,square3,f,0.1867,2,N,4.0
NS4,30.0,43.0,26.0,55.0,57.0,43,1885.0,square1,i,0.2405,0,N,4.0
NS4,31.0,43.0,25.0,60.0,54.0,54,1939.0,square4,j,0.0132,3,N,4.0
NS4,32.0,34.0,27.0,58.0,56.0,56,1995.0,square4,j,0.0567,3,N,4.0
NS4,33.0,34.0,20.0,60.0,62.0,60,2055.0,square3,f,0.3763,2,N,4.0
NS4,34.0,38.0,28.0,58.0,57.0,58,2113.0,square3,f,0.1906,2,N,4.0
NS4,35.0,40.0,24.0,63.0,59.0,63,2176.0,square3,f,0.0605,2,N,4.0
NS4,36.0,36.0,30.0,56.0,63.0,56,2232.0,square3,f,0.1485,2,N,4.0
NS4,37.0,40.0,29.0,54.0,63.0,54,2286.0,square3,f,0.2021,2,N,4.0
NS4,38.0,40.0,33.0,53.0,69.0,53,2339.0,square3,f,0.1113,2,N,4.0
NS4,39.0,36.0,30.0,57.0,67.0,57,2396.0,square3,f,0.0583,2,N,4.0
NS4,40.0,33.0,33.0,58.0,68.0,58,2454.0,square3,f,0.0562,2,N,4.0
NS4,41.0,34.0,28.0,58.0,72.0,58,2512.0,square3,f,0.059,2,N,4.0
NS4,42.0,35.0,30.0,60.0,70.0,60,2572.0,square3,f,0.0566,2,N,4.0
NS4,43.0,35.0,34.0,57.0,63.0,57,2629.0,square3,f,0.1051,2,N,4.0
NS4,44.0,30.0,32.0,59.0,69.0,59,2688.0,square3,f,0.0592,2,N,4.0
NS4,45.0,29.0,31.0,60.0,66.0,60,2748.0,square3,f,0.0579,2,N,4.0
NS4,46.0,35.0,34.0,66.0,66.0,66,2814.0,square3,f,0.1246,2,N,4.0
NS4,47.0,35.0,28.0,63.0,62.0,63,2877.0,square3,f,0.1493,2,N,4.0
NS4,48.0,37.0,37.0,61.0,55.0,61,2938.0,square3,f,0.0656,2,N,4.0
NS4,49.0,40.0,34.0,59.0,54.0,59,2997.0,square3,f,0.1051,2,N,4.0
NS4,50.0,39.0,38.0,68.0,51.0,68,3065.0,square3,f,0.1221,2,N,4.0
NS4,51.0,46.0,28.0,69.0,48.0,69,3134.0,square3,f,0.1071,2,N,4.0
NS4,52.0,40.0,34.0,62.0,49.0,62,3196.0,square3,f,0.1512,2,N,4.0
NS4,53.0,39.0,34.0,63.0,48.0,63,3259.0,square3,f,0.1449,2,N,4.0
NS4,54.0,44.0,31.0,58.0,47.0,58,3317.0,square3,f,0.1905,2,N,4.0
NS4,55.0,42.0,30.0,68.0,46.0,68,3385.0,square3,f,0.1871,2,N,4.0
NS4,56.0,36.0,25.0,69.0,44.0,69,3454.0,square3,f,0.151,2,N,4.0
NS4,57.0,35.0,29.0,71.0,46.0,71,3525.0,square3,f,0.0573,2,N,4.0
NS4,58.0,43.0,28.0,68.0,47.0,68,3593.0,square3,f,0.1925,2,N,4.0
NS4,59.0,43.0,27.0,67.0,43.0,67,3660.0,square3,f,0.0607,2,N,4.0
NS4,60.0,40.0,25.0,72.0,46.0,72,3732.0,square3,f,0.158,2,N,4.0
NS4,61.0,39.0,32.0,63.0,43.0,63,3795.0,square3,f,0.1143,2,N,4.0
NS4,62.0,39.0,29.0,61.0,39.0,61,3856.0,square3,f,0.1544,2,N,4.0
NS4,63.0,41.0,28.0,59.0,40.0,40,3896.0,square4,j,0.4694,3,N,4.0
NS4,64.0,41.0,31.0,57.0,51.0,41,3937.0,square1,i,0.0565,0,N,4.0
NS4,65.0,46.0,36.0,59.0,58.0,36,3973.0,square2,r,0.1922,1,N,4.0
NS4,66.0,45.0,36.0,53.0,46.0,53,4026.0,square3,f,0.1891,2,N,4.0
NS4,67.0,40.0,34.0,49.0,46.0,49,4075.0,square3,f,0.1005,2,N,4.0
NS4,68.0,43.0,37.0,48.0,48.0,48,4123.0,square3,f,0.2334,2,N,4.0
NS4,69.0,42.0,36.0,44.0,56.0,44,4167.0,square3,f,0.2384,2,N,4.0
NS4,70.0,40.0,38.0,47.0,58.0,47,4214.0,square3,f,0.1907,2,N,4.0
NS4,71.0,36.0,34.0,42.0,63.0,63,4277.0,square4,j,0.3259,3,N,4.0
NS4,72.0,38.0,36.0,36.0,66.0,66,4343.0,square4,j,0.1072,3,N,4.0
NS4,73.0,36.0,40.0,40.0,66.0,66,4409.0,square4,j,0.1958,3,N,4.0
NS4,74.0,31.0,38.0,46.0,67.0,67,4476.0,square4,j,0.1022,3,N,4.0
NS4,75.0,40.0,33.0,42.0,64.0,64,4540.0,square4,j,0.0133,3,N,4.0
NS4,76.0,38.0,35.0,42.0,64.0,64,4604.0,square4,j,0.0615,3,N,4.0
NS4,77.0,40.0,35.0,39.0,66.0,66,4670.0,square4,j,0.1891,3,N,4.0
NS4,78.0,40.0,33.0,38.0,68.0,68,4738.0,square4,j,0.0585,3,N,4.0
NS4,79.0,40.0,38.0,31.0,70.0,70,4808.0,square4,j,0.0124,3,N,4.0
NS4,80.0,37.0,35.0,33.0,73.0,73,4881.0,square4,j,0.1414,3,N,4.0
NS4,81.0,34.0,35.0,30.0,70.0,70,4951.0,square4,j,0.0616,3,N,4.0
NS4,82.0,35.0,37.0,31.0,66.0,66,5017.0,square4,j,0.1074,3,N,4.0
NS4,83.0,42.0,32.0,28.0,67.0,67,5084.0,square4,j,0.1004,3,N,4.0
NS4,84.0,38.0,35.0,30.0,68.0,68,5152.0,square4,j,0.1445,3,N,4.0
NS4,85.0,43.0,35.0,32.0,64.0,64,5216.0,square4,j,0.1057,3,N,4.0
NS4,86.0,49.0,35.0,32.0,70.0,70,5286.0,square4,j,0.1526,3,N,4.0
NS4,87.0,48.0,34.0,32.0,69.0,69,5355.0,square4,j,0.0134,3,N,4.0
NS4,88.0,50.0,35.0,30.0,64.0,64,5419.0,square4,j,0.1432,3,N,4.0
NS4,89.0,48.0,34.0,32.0,68.0,68,5487.0,square4,j,0.1912,3,N,4.0
NS4,90.0,53.0,29.0,27.0,68.0,68,5555.0,square4,j,0.1526,3,N,4.0
NS4,91.0,54.0,27.0,34.0,68.0,68,5623.0,square4,j,0.1441,3,N,4.0
NS4,92.0,52.0,20.0,35.0,69.0,69,5692.0,square4,j,0.1935,3,N,4.0
NS4,93.0,42.0,15.0,33.0,68.0,68,5760.0,square4,j,0.1049,3,N,4.0
NS4,94.0,40.0,24.0,37.0,72.0,72,5832.0,square4,j,0.1508,3,N,4.0
NS4,95.0,43.0,25.0,43.0,69.0,69,5901.0,square4,j,0.1484,3,N,4.0
NS4,96.0,41.0,29.0,43.0,74.0,74,5975.0,square4,j,0.1043,3,N,4.0
NS4,97.0,46.0,32.0,42.0,78.0,78,6053.0,square4,j,0.1452,3,N,4.0
NS4,98.0,48.0,26.0,46.0,75.0,75,6128.0,square4,j,0.1113,3,N,4.0
NS4,99.0,46.0,27.0,45.0,71.0,71,6199.0,square4,j,0.0136,3,N,4.0
V9,0.0,20.0,29.0,37.0,45.0,45,45.0,square4,r,0.8093,3,V,9.0
V9,1.0,21.0,32.0,39.0,45.0,39,84.0,square3,i,0.1047,2,V,9.0
V9,2.0,16.0,27.0,41.0,48.0,16,100.0,square1,j,0.1466,0,V,9.0
V9,3.0,20.0,30.0,42.0,50.0,30,130.0,square2,f,0.1001,1,V,9.0
V9,4.0,22.0,34.0,37.0,47.0,47,177.0,square4,r,0.0133,3,V,9.0
V9,5.0,17.0,32.0,38.0,49.0,49,226.0,square4,r,0.0663,3,V,9.0
V9,6.0,17.0,25.0,39.0,47.0,47,273.0,square4,r,0.0146,3,V,9.0
V9,7.0,22.0,28.0,33.0,48.0,48,321.0,square4,r,0.1551,3,V,9.0
V9,8.0,20.0,24.0,34.0,41.0,41,362.0,square4,r,0.0565,3,V,9.0
V9,9.0,20.0,33.0,30.0,51.0,51,413.0,square4,r,0.1472,3,V,9.0
V9,10.0,21.0,35.0,38.0,50.0,50,463.0,square4,r,0.0632,3,V,9.0
V9,11.0,19.0,29.0,44.0,45.0,45,508.0,square4,r,0.1056,3,V,9.0
V9,12.0,27.0,24.0,38.0,54.0,54,562.0,square4,r,0.1509,3,V,9.0
V9,13.0,15.0,26.0,37.0,50.0,50,612.0,square4,r,0.0609,3,V,9.0
V9,14.0,24.0,26.0,39.0,42.0,42,654.0,square4,r,0.1175,3,V,9.0
V9,15.0,26.0,27.0,43.0,49.0,49,703.0,square4,r,0.1505,3,V,9.0
V9,16.0,19.0,30.0,42.0,49.0,49,752.0,square4,r,0.1035,3,V,9.0
V9,17.0,21.0,30.0,34.0,49.0,49,801.0,square4,r,0.0997,3,V,9.0
V9,18.0,25.0,33.0,41.0,51.0,51,852.0,square4,r,0.143,3,V,9.0
V9,19.0,17.0,31.0,41.0,45.0,45,897.0,square4,r,0.0562,3,V,9.0
V9,20.0,19.0,31.0,34.0,49.0,49,946.0,square4,r,0.1453,3,V,9.0
V9,21.0,23.0,29.0,37.0,48.0,48,994.0,square4,r,0.151,3,V,9.0
V9,22.0,15.0,32.0,36.0,48.0,48,1042.0,square4,r,0.1098,3,V,9.0
V9,23.0,25.0,33.0,39.0,47.0,47,1089.0,square4,r,0.1877,3,V,9.0
V9,24.0,21.0,30.0,38.0,52.0,52,1141.0,square4,r,0.1229,3,V,9.0
V9,25.0,25.0,29.0,42.0,48.0,48,1189.0,square4,r,0.0549,3,V,9.0
V9,26.0,22.0,29.0,39.0,47.0,47,1236.0,square4,r,0.0613,3,V,9.0
V9,27.0,17.0,31.0,45.0,41.0,45,1281.0,square3,i,0.1895,2,V,9.0
V9,28.0,29.0,28.0,43.0,43.0,29,1310.0,square1,j,0.0133,0,V,9.0
V9,29.0,20.0,31.0,43.0,49.0,31,1341.0,square2,f,0.1608,1,V,9.0
V9,30.0,23.0,33.0,39.0,48.0,48,1389.0,square4,r,0.2584,3,V,9.0
V9,31.0,20.0,27.0,38.0,53.0,53,1442.0,square4,r,0.0145,3,V,9.0
V9,32.0,23.0,29.0,37.0,49.0,49,1491.0,square4,r,0.0148,3,V,9.0
V9,33.0,24.0,33.0,37.0,49.0,49,1540.0,square4,r,0.2585,3,V,9.0
V9,34.0,43.0,58.0,48.0,30.0,30,1570.0,square4,r,0.1512,3,V,9.0
V9,35.0,48.0,59.0,45.0,34.0,45,1615.0,square3,i,0.9416,2,V,9.0
V9,36.0,39.0,56.0,54.0,32.0,39,1654.0,square1,j,0.0141,0,V,9.0
V9,37.0,40.0,57.0,50.0,35.0,57,1711.0,square2,f,0.0627,1,V,9.0
V9,38.0,49.0,62.0,51.0,33.0,62,1773.0,square2,f,0.3282,1,V,9.0
V9,39.0,45.0,61.0,48.0,34.0,61,1834.0,square2,f,0.1466,1,V,9.0
V9,40.0,40.0,65.0,51.0,29.0,65,1899.0,square2,f,0.0592,1,V,9.0
V9,41.0,44.0,57.0,50.0,38.0,57,1956.0,square2,f,0.2008,1,V,9.0
V9,42.0,40.0,57.0,49.0,33.0,57,2013.0,square2,f,0.0623,1,V,9.0
V9,43.0,42.0,64.0,54.0,35.0,64,2077.0,square2,f,0.1097,1,V,9.0
V9,44.0,44.0,55.0,49.0,39.0,55,2132.0,square2,f,0.0135,1,V,9.0
V9,45.0,37.0,66.0,51.0,35.0,66,2198.0,square2,f,0.1478,1,V,9.0
V9,46.0,40.0,59.0,51.0,32.0,59,2257.0,square2,f,0.2371,1,V,9.0
V9,47.0,38.0,62.0,57.0,31.0,62,2319.0,square2,f,0.1006,1,V,9.0
V9,48.0,43.0,61.0,54.0,34.0,61,2380.0,square2,f,0.1873,1,V,9.0
V9,49.0,43.0,61.0,49.0,40.0,61,2441.0,square2,f,0.1929,1,V,9.0
V9,50.0,37.0,58.0,51.0,32.0,58,2499.0,square2,f,0.0131,1,V,9.0
V9,51.0,44.0,63.0,48.0,39.0,63,2562.0,square2,f,0.1042,1,V,9.0
V9,52.0,35.0,65.0,48.0,30.0,65,2627.0,square2,f,0.0138,1,V,9.0
V9,53.0,43.0,59.0,48.0,39.0,59,2686.0,square2,f,0.102,1,V,9.0
V9,54.0,43.0,59.0,52.0,30.0,59,2745.0,square2,f,0.1455,1,V,9.0
V9,55.0,41.0,58.0,51.0,34.0,58,2803.0,square2,f,0.1595,1,V,9.0
V9,56.0,44.0,63.0,50.0,33.0,63,2866.0,square2,f,0.149,1,V,9.0
V9,57.0,42.0,60.0,49.0,32.0,60,2926.0,square2,f,0.1698,1,V,9.0
V9,58.0,44.0,62.0,57.0,30.0,62,2988.0,square2,f,0.1615,1,V,9.0
V9,59.0,45.0,61.0,45.0,31.0,61,3049.0,square2,f,0.1959,1,V,9.0
V9,60.0,43.0,63.0,53.0,33.0,63,3112.0,square2,f,0.2274,1,V,9.0
V9,61.0,39.0,56.0,55.0,31.0,56,3168.0,square2,f,0.2134,1,V,9.0
V9,62.0,39.0,61.0,50.0,34.0,61,3229.0,square2,f,0.138,1,V,9.0
V9,63.0,44.0,57.0,48.0,36.0,57,3286.0,square2,f,0.0136,1,V,9.0
V9,64.0,40.0,60.0,58.0,35.0,60,3346.0,square2,f,0.1588,1,V,9.0
V9,65.0,42.0,60.0,54.0,38.0,60,3406.0,square2,f,0.1054,1,V,9.0
V9,66.0,41.0,60.0,54.0,37.0,41,3447.0,square1,j,0.4597,0,V,9.0
V9,67.0,43.0,61.0,54.0,40.0,54,3501.0,square3,i,0.762,2,V,9.0
V9,68.0,45.0,40.0,26.0,18.0,40,3541.0,square2,f,0.5265,1,V,9.0
V9,69.0,50.0,41.0,29.0,20.0,50,3591.0,square1,j,0.1526,0,V,9.0
V9,70.0,43.0,36.0,27.0,15.0,27,3618.0,square3,i,0.2515,2,V,9.0
V9,71.0,44.0,40.0,28.0,18.0,44,3662.0,square1,j,0.3618,0,V,9.0
V9,72.0,42.0,38.0,27.0,18.0,18,3680.0,square4,r,0.0653,3,V,9.0
V9,73.0,46.0,33.0,25.0,19.0,33,3713.0,square2,f,0.1526,1,V,9.0
V9,74.0,47.0,40.0,28.0,20.0,28,3741.0,square3,i,0.7666,2,V,9.0
V9,75.0,39.0,39.0,27.0,25.0,39,3780.0,square1,j,0.1454,0,V,9.0
V9,76.0,50.0,31.0,29.0,23.0,31,3811.0,square2,f,0.0587,1,V,9.0
V9,77.0,44.0,37.0,28.0,13.0,44,3855.0,square1,j,0.2466,0,V,9.0
V9,78.0,43.0,36.0,23.0,17.0,43,3898.0,square1,j,0.0134,0,V,9.0
V9,79.0,42.0,36.0,28.0,24.0,42,3940.0,square1,j,0.0996,0,V,9.0
V9,80.0,47.0,35.0,30.0,14.0,47,3987.0,square1,j,0.0143,0,V,9.0
V9,81.0,46.0,33.0,29.0,18.0,46,4033.0,square1,j,0.0132,0,V,9.0
V9,82.0,46.0,35.0,28.0,18.0,46,4079.0,square1,j,0.0601,0,V,9.0
V9,83.0,47.0,41.0,32.0,15.0,47,4126.0,square1,j,0.0569,0,V,9.0
V9,84.0,45.0,38.0,31.0,18.0,45,4171.0,square1,j,0.1025,0,V,9.0
V9,85.0,42.0,35.0,30.0,21.0,42,4213.0,square1,j,0.1024,0,V,9.0
V9,86.0,49.0,39.0,23.0,18.0,49,4262.0,square1,j,0.0572,0,V,9.0
V9,87.0,49.0,39.0,27.0,16.0,49,4311.0,square1,j,0.1068,0,V,9.0
V9,88.0,45.0,38.0,25.0,14.0,45,4356.0,square1,j,0.103,0,V,9.0
V9,89.0,45.0,32.0,28.0,19.0,45,4401.0,square1,j,0.1014,0,V,9.0
V9,90.0,44.0,35.0,29.0,20.0,44,4445.0,square1,j,0.145,0,V,9.0
V9,91.0,42.0,38.0,32.0,16.0,42,4487.0,square1,j,0.1071,0,V,9.0
V9,92.0,45.0,36.0,23.0,20.0,45,4532.0,square1,j,0.1467,0,V,9.0
V9,93.0,45.0,35.0,26.0,18.0,45,4577.0,square1,j,0.1106,0,V,9.0
V9,94.0,44.0,37.0,27.0,13.0,44,4621.0,square1,j,0.0997,0,V,9.0
V9,95.0,46.0,36.0,25.0,20.0,20,4641.0,square4,r,0.4456,3,V,9.0
V9,96.0,43.0,39.0,27.0,16.0,39,4680.0,square2,f,0.0138,1,V,9.0
V9,97.0,48.0,39.0,30.0,16.0,39,4719.0,square2,f,0.0605,1,V,9.0
V9,98.0,49.0,40.0,26.0,20.0,26,4745.0,square3,i,0.1002,2,V,9.0
V9,99.0,49.0,41.0,27.0,18.0,49,4794.0,square1,j,0.0134,0,V,9.0
V4,0.0,63.0,38.0,47.0,55.0,47,47.0,square3,r,1.3672,2,V,4.0
V4,1.0,66.0,42.0,43.0,59.0,66,113.0,square1,f,0.1893,0,V,4.0
V4,2.0,66.0,39.0,57.0,59.0,39,152.0,square2,i,0.1043,1,V,4.0
V4,3.0,66.0,37.0,51.0,59.0,59,211.0,square4,j,0.1455,3,V,4.0
V4,4.0,69.0,37.0,50.0,55.0,69,280.0,square1,f,0.1933,0,V,4.0
V4,5.0,64.0,44.0,46.0,62.0,64,344.0,square1,f,0.1969,0,V,4.0
V4,6.0,75.0,43.0,49.0,57.0,75,419.0,square1,f,0.1491,0,V,4.0
V4,7.0,62.0,41.0,52.0,59.0,62,481.0,square1,f,0.1544,0,V,4.0
V4,8.0,65.0,41.0,44.0,60.0,65,546.0,square1,f,0.1511,0,V,4.0
V4,9.0,68.0,35.0,44.0,64.0,68,614.0,square1,f,0.0168,0,V,4.0
V4,10.0,67.0,44.0,48.0,61.0,67,681.0,square1,f,0.0995,0,V,4.0
V4,11.0,61.0,40.0,48.0,56.0,61,742.0,square1,f,0.1888,0,V,4.0
V4,12.0,68.0,41.0,49.0,55.0,68,810.0,square1,f,0.0133,0,V,4.0
V4,13.0,63.0,42.0,47.0,60.0,63,873.0,square1,f,0.0136,0,V,4.0
V4,14.0,63.0,40.0,51.0,55.0,63,936.0,square1,f,0.0585,0,V,4.0
V4,15.0,62.0,41.0,52.0,62.0,62,998.0,square1,f,0.0127,0,V,4.0
V4,16.0,69.0,37.0,47.0,60.0,69,1067.0,square1,f,0.0138,0,V,4.0
V4,17.0,66.0,40.0,48.0,56.0,66,1133.0,square1,f,0.1442,0,V,4.0
V4,18.0,67.0,43.0,47.0,59.0,67,1200.0,square1,f,0.0708,0,V,4.0
V4,19.0,64.0,42.0,51.0,59.0,64,1264.0,square1,f,0.1477,0,V,4.0
V4,20.0,67.0,40.0,47.0,58.0,67,1331.0,square1,f,0.0593,0,V,4.0
V4,21.0,60.0,41.0,50.0,59.0,60,1391.0,square1,f,0.1472,0,V,4.0
V4,22.0,66.0,43.0,54.0,55.0,66,1457.0,square1,f,0.1054,0,V,4.0
V4,23.0,67.0,37.0,50.0,62.0,67,1524.0,square1,f,0.1472,0,V,4.0
V4,24.0,67.0,37.0,49.0,60.0,67,1591.0,square1,f,0.2422,0,V,4.0
V4,25.0,67.0,39.0,55.0,52.0,67,1658.0,square1,f,0.1019,0,V,4.0
V4,26.0,64.0,39.0,51.0,63.0,64,1722.0,square1,f,0.1008,0,V,4.0
V4,27.0,68.0,36.0,55.0,60.0,68,1790.0,square1,f,0.1447,0,V,4.0
V4,28.0,67.0,40.0,46.0,54.0,67,1857.0,square1,f,0.1502,0,V,4.0
V4,29.0,67.0,41.0,50.0,57.0,67,1924.0,square1,f,0.0634,0,V,4.0
V4,30.0,66.0,39.0,49.0,53.0,66,1990.0,square1,f,0.1097,0,V,4.0
V4,31.0,70.0,38.0,48.0,58.0,70,2060.0,square1,f,0.0143,0,V,4.0
V4,32.0,63.0,40.0,53.0,61.0,63,2123.0,square1,f,0.1902,0,V,4.0
V4,33.0,66.0,41.0,51.0,56.0,66,2189.0,square1,f,0.1996,0,V,4.0
V4,34.0,64.0,39.0,46.0,57.0,64,2253.0,square1,f,0.12,0,V,4.0
V4,35.0,69.0,36.0,50.0,58.0,69,2322.0,square1,f,0.1546,0,V,4.0
V4,36.0,60.0,43.0,53.0,54.0,60,2382.0,square1,f,0.1586,0,V,4.0
V4,37.0,52.0,78.0,68.0,66.0,52,2434.0,square1,f,0.5919,0,V,4.0
V4,38.0,44.0,81.0,68.0,62.0,62,2496.0,square4,j,0.2294,3,V,4.0
V4,39.0,59.0,71.0,70.0,63.0,63,2559.0,square4,j,0.0604,3,V,4.0
V4,40.0,53.0,77.0,73.0,59.0,59,2618.0,square4,j,0.0597,3,V,4.0
V4,41.0,53.0,76.0,74.0,66.0,66,2684.0,square4,j,0.0616,3,V,4.0
V4,42.0,51.0,79.0,73.0,59.0,59,2743.0,square4,j,0.1916,3,V,4.0
V4,43.0,48.0,76.0,68.0,65.0,65,2808.0,square4,j,0.0149,3,V,4.0
V4,44.0,57.0,83.0,78.0,63.0,83,2891.0,square2,i,0.5206,1,V,4.0
V4,45.0,54.0,74.0,69.0,61.0,74,2965.0,square2,i,0.0584,1,V,4.0
V4,46.0,53.0,85.0,66.0,62.0,85,3050.0,square2,i,0.1552,1,V,4.0
V4,47.0,56.0,83.0,68.0,57.0,83,3133.0,square2,i,0.0133,1,V,4.0
V4,48.0,49.0,74.0,73.0,59.0,74,3207.0,square2,i,0.1039,1,V,4.0
V4,49.0,54.0,74.0,70.0,60.0,70,3277.0,square3,r,0.3224,2,V,4.0
V4,50.0,47.0,83.0,69.0,60.0,69,3346.0,square3,r,0.453,2,V,4.0
V4,51.0,54.0,78.0,73.0,56.0,78,3424.0,square2,i,0.1452,1,V,4.0
V4,52.0,52.0,76.0,71.0,58.0,76,3500.0,square2,i,0.0578,1,V,4.0
V4,53.0,51.0,82.0,76.0,63.0,82,3582.0,square2,i,0.0129,1,V,4.0
V4,54.0,57.0,76.0,69.0,64.0,76,3658.0,square2,i,0.0136,1,V,4.0
V4,55.0,49.0,75.0,68.0,59.0,75,3733.0,square2,i,0.1022,1,V,4.0
V4,56.0,55.0,81.0,66.0,65.0,81,3814.0,square2,i,0.104,1,V,4.0
V4,57.0,58.0,80.0,72.0,63.0,80,3894.0,square2,i,0.1511,1,V,4.0
V4,58.0,49.0,81.0,66.0,62.0,81,3975.0,square2,i,0.19,1,V,4.0
V4,59.0,57.0,78.0,73.0,59.0,78,4053.0,square2,i,0.1863,1,V,4.0
V4,60.0,48.0,79.0,66.0,59.0,79,4132.0,square2,i,0.0563,1,V,4.0
V4,61.0,53.0,80.0,72.0,60.0,80,4212.0,square2,i,0.1531,1,V,4.0
V4,62.0,53.0,79.0,70.0,61.0,79,4291.0,square2,i,0.013,1,V,4.0
V4,63.0,81.0,66.0,90.0,66.0,66,4357.0,square2,i,0.1866,1,V,4.0
V4,64.0,80.0,64.0,85.0,76.0,64,4421.0,square2,i,0.1436,1,V,4.0
V4,65.0,77.0,61.0,92.0,74.0,74,4495.0,square4,j,0.0991,3,V,4.0
V4,66.0,89.0,65.0,91.0,73.0,73,4568.0,square4,j,0.0125,3,V,4.0
V4,67.0,86.0,64.0,92.0,70.0,92,4660.0,square3,r,0.4178,2,V,4.0
V4,68.0,82.0,60.0,91.0,77.0,91,4751.0,square3,r,0.0126,2,V,4.0
V4,69.0,78.0,69.0,90.0,70.0,90,4841.0,square3,r,0.1017,2,V,4.0
V4,70.0,85.0,64.0,95.0,73.0,95,4936.0,square3,r,0.1053,2,V,4.0
V4,71.0,85.0,61.0,88.0,69.0,88,5024.0,square3,r,0.0144,2,V,4.0
V4,72.0,86.0,63.0,87.0,75.0,87,5111.0,square3,r,0.1862,2,V,4.0
V4,73.0,86.0,69.0,92.0,70.0,92,5203.0,square3,r,0.1589,2,V,4.0
V4,74.0,81.0,62.0,90.0,69.0,90,5293.0,square3,r,0.0606,2,V,4.0
V4,75.0,83.0,66.0,88.0,74.0,88,5381.0,square3,r,0.0128,2,V,4.0
V4,76.0,80.0,64.0,92.0,75.0,92,5473.0,square3,r,0.014,2,V,4.0
V4,77.0,81.0,65.0,91.0,74.0,91,5564.0,square3,r,0.149,2,V,4.0
V4,78.0,78.0,70.0,89.0,73.0,89,5653.0,square3,r,0.1891,2,V,4.0
V4,79.0,84.0,66.0,85.0,75.0,85,5738.0,square3,r,0.016,2,V,4.0
V4,80.0,83.0,65.0,93.0,74.0,93,5831.0,square3,r,0.1049,2,V,4.0
V4,81.0,86.0,59.0,91.0,74.0,91,5922.0,square3,r,0.013,2,V,4.0
V4,82.0,87.0,64.0,92.0,73.0,92,6014.0,square3,r,0.0139,2,V,4.0
V4,83.0,83.0,68.0,86.0,70.0,86,6100.0,square3,r,0.0595,2,V,4.0
V4,84.0,82.0,62.0,87.0,73.0,87,6187.0,square3,r,0.0562,2,V,4.0
V4,85.0,85.0,61.0,90.0,70.0,90,6277.0,square3,r,0.0559,2,V,4.0
V4,86.0,84.0,66.0,97.0,71.0,97,6374.0,square3,r,0.1525,2,V,4.0
V4,87.0,82.0,64.0,87.0,71.0,64,6438.0,square2,i,0.4064,1,V,4.0
V4,88.0,80.0,67.0,93.0,72.0,72,6510.0,square4,j,0.3631,3,V,4.0
V4,89.0,78.0,64.0,92.0,75.0,78,6588.0,square1,f,0.3233,0,V,4.0
V4,90.0,75.0,66.0,88.0,72.0,88,6676.0,square3,r,0.0143,2,V,4.0
V4,91.0,82.0,59.0,91.0,76.0,91,6767.0,square3,r,0.1013,2,V,4.0
V4,92.0,84.0,62.0,91.0,70.0,91,6858.0,square3,r,0.0595,2,V,4.0
V4,93.0,80.0,61.0,94.0,76.0,94,6952.0,square3,r,0.1,2,V,4.0
V4,94.0,83.0,64.0,88.0,72.0,88,7040.0,square3,r,0.1912,2,V,4.0
V4,95.0,82.0,60.0,94.0,69.0,94,7134.0,square3,r,0.0573,2,V,4.0
V4,96.0,84.0,63.0,92.0,72.0,92,7226.0,square3,r,0.0597,2,V,4.0
V4,97.0,84.0,62.0,85.0,70.0,85,7311.0,square3,r,0.0554,2,V,4.0
V4,98.0,81.0,64.0,93.0,72.0,93,7404.0,square3,r,0.0133,2,V,4.0
V4,99.0,80.0,61.0,92.0,75.0,92,7496.0,square3,r,0.1503,2,V,4.0
V2,0.0,33.0,24.0,43.0,18.0,33,33.0,square1,r,0.8911,0,V,2.0
V2,1.0,33.0,29.0,42.0,21.0,21,54.0,square4,i,0.1036,3,V,2.0
V2,2.0,37.0,26.0,45.0,22.0,45,99.0,square3,j,0.1079,2,V,2.0
V2,3.0,39.0,26.0,41.0,20.0,26,125.0,square2,f,0.019,1,V,2.0
V2,4.0,29.0,32.0,45.0,19.0,45,170.0,square3,j,0.0584,2,V,2.0
V2,5.0,33.0,28.0,44.0,17.0,44,214.0,square3,j,0.0615,2,V,2.0
V2,6.0,32.0,24.0,49.0,20.0,49,263.0,square3,j,0.1058,2,V,2.0
V2,7.0,32.0,21.0,42.0,13.0,42,305.0,square3,j,0.0642,2,V,2.0
V2,8.0,35.0,23.0,45.0,19.0,45,350.0,square3,j,0.0611,2,V,2.0
V2,9.0,33.0,28.0,46.0,17.0,46,396.0,square3,j,0.0593,2,V,2.0
V2,10.0,39.0,27.0,45.0,21.0,45,441.0,square3,j,0.1004,2,V,2.0
V2,11.0,30.0,23.0,44.0,22.0,44,485.0,square3,j,0.1069,2,V,2.0
V2,12.0,31.0,26.0,43.0,16.0,43,528.0,square3,j,0.0132,2,V,2.0
V2,13.0,35.0,26.0,43.0,22.0,26,554.0,square2,f,0.0992,1,V,2.0
V2,14.0,35.0,29.0,46.0,19.0,35,589.0,square1,r,0.1062,0,V,2.0
V2,15.0,36.0,22.0,44.0,20.0,20,609.0,square4,i,0.1475,3,V,2.0
V2,16.0,33.0,27.0,45.0,19.0,45,654.0,square3,j,0.0141,2,V,2.0
V2,17.0,35.0,25.0,41.0,15.0,41,695.0,square3,j,0.1015,2,V,2.0
V2,18.0,37.0,27.0,51.0,21.0,51,746.0,square3,j,0.0589,2,V,2.0
V2,19.0,33.0,25.0,43.0,18.0,43,789.0,square3,j,0.1511,2,V,2.0
V2,20.0,39.0,25.0,43.0,20.0,43,832.0,square3,j,0.1478,2,V,2.0
V2,21.0,27.0,32.0,43.0,24.0,43,875.0,square3,j,0.0139,2,V,2.0
V2,22.0,35.0,27.0,50.0,13.0,50,925.0,square3,j,0.0144,2,V,2.0
V2,23.0,36.0,25.0,39.0,17.0,39,964.0,square3,j,0.0582,2,V,2.0
V2,24.0,32.0,45.0,39.0,59.0,39,1003.0,square3,j,0.0584,2,V,2.0
V2,25.0,26.0,43.0,37.0,55.0,37,1040.0,square3,j,0.0142,2,V,2.0
V2,26.0,23.0,45.0,39.0,58.0,45,1085.0,square2,f,0.271,1,V,2.0
V2,27.0,30.0,44.0,40.0,56.0,44,1129.0,square2,f,0.0132,1,V,2.0
V2,28.0,34.0,48.0,41.0,54.0,34,1163.0,square1,r,0.1612,0,V,2.0
V2,29.0,29.0,42.0,35.0,54.0,54,1217.0,square4,i,0.0151,3,V,2.0
V2,30.0,22.0,39.0,39.0,55.0,55,1272.0,square4,i,0.0624,3,V,2.0
V2,31.0,32.0,48.0,35.0,50.0,50,1322.0,square4,i,0.0139,3,V,2.0
V2,32.0,27.0,47.0,40.0,58.0,58,1380.0,square4,i,0.0131,3,V,2.0
V2,33.0,28.0,46.0,31.0,54.0,54,1434.0,square4,i,0.0132,3,V,2.0
V2,34.0,28.0,44.0,41.0,49.0,49,1483.0,square4,i,0.1085,3,V,2.0
V2,35.0,31.0,44.0,33.0,59.0,59,1542.0,square4,i,0.1439,3,V,2.0
V2,36.0,29.0,48.0,30.0,55.0,55,1597.0,square4,i,0.1062,3,V,2.0
V2,37.0,25.0,45.0,32.0,51.0,51,1648.0,square4,i,0.1449,3,V,2.0
V2,38.0,29.0,48.0,33.0,54.0,54,1702.0,square4,i,0.1431,3,V,2.0
V2,39.0,29.0,44.0,33.0,54.0,54,1756.0,square4,i,0.1506,3,V,2.0
V2,40.0,33.0,42.0,37.0,61.0,61,1817.0,square4,i,0.06,3,V,2.0
V2,41.0,28.0,45.0,41.0,57.0,57,1874.0,square4,i,0.892,3,V,2.0
V2,42.0,33.0,46.0,36.0,54.0,54,1928.0,square4,i,0.0584,3,V,2.0
V2,43.0,31.0,42.0,40.0,57.0,57,1985.0,square4,i,0.1042,3,V,2.0
V2,44.0,27.0,45.0,38.0,56.0,56,2041.0,square4,i,0.0124,3,V,2.0
V2,45.0,27.0,44.0,32.0,51.0,51,2092.0,square4,i,0.1475,3,V,2.0
V2,46.0,28.0,44.0,39.0,57.0,39,2131.0,square3,j,0.1949,2,V,2.0
V2,47.0,30.0,45.0,36.0,56.0,45,2176.0,square2,f,0.1493,1,V,2.0
V2,48.0,31.0,47.0,41.0,59.0,31,2207.0,square1,r,0.1042,0,V,2.0
V2,49.0,32.0,45.0,33.0,57.0,57,2264.0,square4,i,0.1539,3,V,2.0
V2,50.0,24.0,38.0,36.0,52.0,52,2316.0,square4,i,0.1458,3,V,2.0
V2,51.0,29.0,48.0,34.0,54.0,54,2370.0,square4,i,0.1478,3,V,2.0
V2,52.0,30.0,50.0,38.0,56.0,56,2426.0,square4,i,0.1072,3,V,2.0
V2,53.0,27.0,47.0,33.0,55.0,55,2481.0,square4,i,0.1025,3,V,2.0
V2,54.0,34.0,21.0,45.0,25.0,25,2506.0,square4,i,0.0131,3,V,2.0
V2,55.0,36.0,19.0,39.0,24.0,24,2530.0,square4,i,0.1917,3,V,2.0
V2,56.0,29.0,19.0,45.0,18.0,18,2548.0,square4,i,0.1073,3,V,2.0
V2,57.0,29.0,20.0,39.0,20.0,20,2568.0,square4,i,0.1904,3,V,2.0
V2,58.0,40.0,18.0,42.0,21.0,21,2589.0,square4,i,0.1081,3,V,2.0
V2,59.0,31.0,17.0,44.0,23.0,23,2612.0,square4,i,0.0136,3,V,2.0
V2,60.0,31.0,19.0,42.0,20.0,42,2654.0,square3,j,0.1035,2,V,2.0
V2,61.0,34.0,16.0,41.0,25.0,16,2670.0,square2,f,0.3061,1,V,2.0
V2,62.0,28.0,12.0,41.0,22.0,28,2698.0,square1,r,0.1556,0,V,2.0
V2,63.0,32.0,14.0,45.0,26.0,45,2743.0,square3,j,0.055,2,V,2.0
V2,64.0,36.0,21.0,41.0,25.0,41,2784.0,square3,j,0.099,2,V,2.0
V2,65.0,32.0,13.0,39.0,24.0,39,2823.0,square3,j,0.1958,2,V,2.0
V2,66.0,35.0,15.0,42.0,20.0,42,2865.0,square3,j,0.1003,2,V,2.0
V2,67.0,30.0,23.0,47.0,27.0,47,2912.0,square3,j,0.0579,2,V,2.0
V2,68.0,31.0,17.0,43.0,24.0,43,2955.0,square3,j,0.1043,2,V,2.0
V2,69.0,33.0,20.0,41.0,20.0,41,2996.0,square3,j,0.1065,2,V,2.0
V2,70.0,37.0,17.0,43.0,21.0,43,3039.0,square3,j,0.0999,2,V,2.0
V2,71.0,45.0,31.0,36.0,58.0,36,3075.0,square3,j,0.1524,2,V,2.0
V2,72.0,47.0,31.0,31.0,54.0,31,3106.0,square3,j,0.0722,2,V,2.0
V2,73.0,50.0,30.0,33.0,55.0,30,3136.0,square2,f,0.1989,1,V,2.0
V2,74.0,45.0,31.0,36.0,51.0,45,3181.0,square1,r,0.0985,0,V,2.0
V2,75.0,47.0,28.0,38.0,54.0,54,3235.0,square4,i,0.1029,3,V,2.0
V2,76.0,52.0,33.0,35.0,60.0,60,3295.0,square4,i,0.0597,3,V,2.0
V2,77.0,41.0,29.0,37.0,53.0,53,3348.0,square4,i,0.1014,3,V,2.0
V2,78.0,51.0,24.0,34.0,56.0,56,3404.0,square4,i,0.0132,3,V,2.0
V2,79.0,41.0,34.0,36.0,52.0,52,3456.0,square4,i,0.1004,3,V,2.0
V2,80.0,48.0,31.0,37.0,51.0,51,3507.0,square4,i,0.106,3,V,2.0
V2,81.0,43.0,32.0,40.0,53.0,53,3560.0,square4,i,0.1017,3,V,2.0
V2,82.0,48.0,25.0,37.0,58.0,58,3618.0,square4,i,0.1672,3,V,2.0
V2,83.0,45.0,32.0,36.0,61.0,61,3679.0,square4,i,0.102,3,V,2.0
V2,84.0,47.0,29.0,39.0,60.0,60,3739.0,square4,i,0.0133,3,V,2.0
V2,85.0,49.0,30.0,39.0,54.0,54,3793.0,square4,i,0.104,3,V,2.0
V2,86.0,46.0,28.0,33.0,51.0,51,3844.0,square4,i,0.2322,3,V,2.0
V2,87.0,45.0,24.0,37.0,55.0,55,3899.0,square4,i,0.1074,3,V,2.0
V2,88.0,48.0,29.0,42.0,54.0,54,3953.0,square4,i,0.0979,3,V,2.0
V2,89.0,43.0,31.0,38.0,52.0,52,4005.0,square4,i,0.0623,3,V,2.0
V2,90.0,51.0,33.0,36.0,56.0,56,4061.0,square4,i,0.059,3,V,2.0
V2,91.0,49.0,32.0,37.0,59.0,59,4120.0,square4,i,0.0131,3,V,2.0
V2,92.0,47.0,29.0,37.0,56.0,56,4176.0,square4,i,0.1866,3,V,2.0
V2,93.0,45.0,27.0,35.0,56.0,56,4232.0,square4,i,0.0101,3,V,2.0
V2,94.0,45.0,31.0,31.0,49.0,49,4281.0,square4,i,0.0418,3,V,2.0
V2,95.0,47.0,33.0,36.0,52.0,52,4333.0,square4,i,0.2038,3,V,2.0
V2,96.0,44.0,28.0,37.0,59.0,59,4392.0,square4,i,0.0733,3,V,2.0
V2,97.0,48.0,28.0,33.0,55.0,55,4447.0,square4,i,0.2078,3,V,2.0
V2,98.0,49.0,29.0,39.0,60.0,60,4507.0,square4,i,0.0106,3,V,2.0
V2,99.0,44.0,30.0,36.0,50.0,50,4557.0,square4,i,0.0103,3,V,2.0
