block,Trial,square1,square2,square3,square4,currPoints,totalPoints,square,choiceKey.keys,choiceKey.rt,armNum,blockType,blockNum
prac,0.0,100.0,0.0,0.0,0.0,99999,0.0,invalid,,,-1,p,0.0
prac,1.0,100.0,0.0,0.0,0.0,99999,0.0,invalid,,,-1,p,0.0
prac,2.0,100.0,0.0,0.0,0.0,100,100.0,square1,,,0,p,0.0
prac,3.0,100.0,0.0,0.0,0.0,0,100.0,square4,,,3,p,0.0
prac,4.0,100.0,0.0,0.0,0.0,0,100.0,square2,,,1,p,0.0
prac,5.0,100.0,0.0,0.0,0.0,100,200.0,square1,,,0,p,0.0
prac,6.0,100.0,0.0,0.0,0.0,100,300.0,square1,,,0,p,0.0
prac,7.0,100.0,0.0,0.0,0.0,100,400.0,square1,,,0,p,0.0
prac,8.0,100.0,0.0,0.0,0.0,0,400.0,square3,,,2,p,0.0
prac,9.0,100.0,0.0,0.0,0.0,100,500.0,square1,,,0,p,0.0
V7,0.0,86.0,61.0,78.0,68.0,86,86.0,square1,r,1.0419,0,V,7.0
V7,1.0,95.0,62.0,79.0,70.0,70,156.0,square4,f,0.3755,3,V,7.0
V7,2.0,89.0,67.0,81.0,77.0,89,245.0,square1,r,0.3597,0,V,7.0
V7,3.0,90.0,56.0,85.0,72.0,90,335.0,square1,r,0.2922,0,V,7.0
V7,4.0,91.0,65.0,77.0,71.0,91,426.0,square1,r,0.2247,0,V,7.0
V7,5.0,91.0,58.0,84.0,72.0,91,517.0,square1,r,0.1163,0,V,7.0
V7,6.0,94.0,65.0,87.0,72.0,87,604.0,square3,j,0.5972,2,V,7.0
V7,7.0,89.0,67.0,79.0,67.0,67,671.0,square2,i,0.2252,1,V,7.0
V7,8.0,91.0,65.0,84.0,68.0,91,762.0,square1,r,0.2766,0,V,7.0
V7,9.0,92.0,60.0,87.0,69.0,92,854.0,square1,r,0.2929,0,V,7.0
V7,10.0,90.0,67.0,81.0,76.0,90,944.0,square1,r,0.8923,0,V,7.0
V7,11.0,86.0,67.0,83.0,73.0,73,1017.0,square4,f,0.0075,3,V,7.0
V7,12.0,90.0,62.0,80.0,72.0,90,1107.0,square1,r,0.3926,0,V,7.0
V7,13.0,84.0,60.0,88.0,71.0,88,1195.0,square3,j,0.4573,2,V,7.0
V7,14.0,95.0,64.0,80.0,70.0,95,1290.0,square1,r,0.1255,0,V,7.0
V7,15.0,86.0,60.0,81.0,70.0,86,1376.0,square1,r,0.1593,0,V,7.0
V7,16.0,85.0,65.0,77.0,69.0,65,1441.0,square2,i,0.1653,1,V,7.0
V7,17.0,91.0,65.0,81.0,70.0,65,1506.0,square2,i,0.3813,1,V,7.0
V7,18.0,95.0,61.0,81.0,76.0,95,1601.0,square1,r,0.0454,0,V,7.0
V7,19.0,90.0,58.0,79.0,72.0,90,1691.0,square1,r,0.0806,0,V,7.0
V7,20.0,94.0,68.0,80.0,79.0,94,1785.0,square1,r,0.0437,0,V,7.0
V7,21.0,92.0,66.0,82.0,70.0,92,1877.0,square1,r,0.4147,0,V,7.0
V7,22.0,92.0,64.0,83.0,72.0,72,1949.0,square4,f,0.5777,3,V,7.0
V7,23.0,91.0,68.0,82.0,73.0,82,2031.0,square3,j,0.1177,2,V,7.0
V7,24.0,87.0,71.0,82.0,72.0,87,2118.0,square1,r,0.1093,0,V,7.0
V7,25.0,91.0,68.0,90.0,74.0,90,2208.0,square3,j,0.3094,2,V,7.0
V7,26.0,89.0,65.0,83.0,72.0,83,2291.0,square3,j,0.0119,2,V,7.0
V7,27.0,91.0,61.0,81.0,73.0,91,2382.0,square1,r,0.2104,0,V,7.0
V7,28.0,90.0,66.0,81.0,72.0,90,2472.0,square1,r,0.062,0,V,7.0
V7,29.0,89.0,67.0,77.0,71.0,89,2561.0,square1,r,0.1761,0,V,7.0
V7,30.0,95.0,68.0,84.0,71.0,95,2656.0,square1,r,0.0461,0,V,7.0
V7,31.0,95.0,61.0,81.0,70.0,95,2751.0,square1,r,0.0098,0,V,7.0
V7,32.0,89.0,65.0,82.0,75.0,99999,2751.0,invalid,,,-1,V,7.0
V7,33.0,77.0,50.0,80.0,61.0,77,2828.0,square1,r,0.3285,0,V,7.0
V7,34.0,76.0,54.0,78.0,61.0,54,2882.0,square2,i,0.2423,1,V,7.0
V7,35.0,71.0,51.0,80.0,64.0,80,2962.0,square3,j,0.1921,2,V,7.0
V7,36.0,75.0,51.0,80.0,62.0,62,3024.0,square4,f,0.159,3,V,7.0
V7,37.0,73.0,58.0,86.0,63.0,86,3110.0,square3,j,0.0587,2,V,7.0
V7,38.0,73.0,50.0,86.0,61.0,86,3196.0,square3,j,0.0922,2,V,7.0
V7,39.0,67.0,53.0,78.0,61.0,67,3263.0,square1,r,0.7488,0,V,7.0
V7,40.0,71.0,53.0,84.0,58.0,84,3347.0,square3,j,0.0946,2,V,7.0
V7,41.0,75.0,51.0,83.0,63.0,83,3430.0,square3,j,0.1778,2,V,7.0
V7,42.0,69.0,48.0,87.0,63.0,87,3517.0,square3,j,0.0958,2,V,7.0
V7,43.0,70.0,58.0,81.0,60.0,58,3575.0,square2,i,0.0575,1,V,7.0
V7,44.0,68.0,56.0,76.0,63.0,76,3651.0,square3,j,0.0777,2,V,7.0
V7,45.0,74.0,59.0,76.0,56.0,76,3727.0,square3,j,0.0603,2,V,7.0
V7,46.0,72.0,54.0,77.0,61.0,61,3788.0,square4,f,0.2425,3,V,7.0
V7,47.0,69.0,47.0,81.0,62.0,69,3857.0,square1,r,0.1599,0,V,7.0
V7,48.0,75.0,52.0,81.0,57.0,81,3938.0,square3,j,0.0005,2,V,7.0
V7,49.0,74.0,55.0,78.0,60.0,78,4016.0,square3,j,0.1434,2,V,7.0
V7,50.0,71.0,51.0,80.0,61.0,51,4067.0,square2,i,0.0071,1,V,7.0
V7,51.0,75.0,55.0,85.0,62.0,85,4152.0,square3,j,0.1071,2,V,7.0
V7,52.0,75.0,59.0,76.0,59.0,75,4227.0,square1,r,0.0004,0,V,7.0
V7,53.0,72.0,53.0,84.0,66.0,84,4311.0,square3,j,0.1269,2,V,7.0
V7,54.0,69.0,51.0,81.0,60.0,81,4392.0,square3,j,0.1394,2,V,7.0
V7,55.0,74.0,56.0,75.0,54.0,75,4467.0,square3,j,0.0425,2,V,7.0
V7,56.0,76.0,51.0,83.0,58.0,76,4543.0,square1,r,0.1271,0,V,7.0
V7,57.0,71.0,53.0,80.0,64.0,64,4607.0,square4,f,0.0006,3,V,7.0
V7,58.0,81.0,56.0,79.0,61.0,56,4663.0,square2,i,0.079,1,V,7.0
V7,59.0,71.0,55.0,83.0,59.0,59,4722.0,square4,f,0.109,3,V,7.0
V7,60.0,73.0,53.0,83.0,64.0,73,4795.0,square1,r,0.0266,0,V,7.0
V7,61.0,70.0,53.0,77.0,63.0,77,4872.0,square3,j,0.0006,2,V,7.0
V7,62.0,71.0,54.0,76.0,61.0,71,4943.0,square1,r,0.0626,0,V,7.0
V7,63.0,68.0,45.0,79.0,65.0,79,5022.0,square3,j,0.0123,2,V,7.0
V7,64.0,65.0,55.0,79.0,59.0,79,5101.0,square3,j,0.126,2,V,7.0
V7,65.0,74.0,54.0,81.0,61.0,81,5182.0,square3,j,0.2257,2,V,7.0
V7,66.0,70.0,56.0,81.0,63.0,81,5263.0,square3,j,0.2102,2,V,7.0
V7,67.0,70.0,85.0,64.0,92.0,64,5327.0,square3,j,0.1432,2,V,7.0
V7,68.0,73.0,85.0,68.0,92.0,85,5412.0,square2,i,0.2068,1,V,7.0
V7,69.0,75.0,83.0,70.0,91.0,83,5495.0,square2,i,0.1771,1,V,7.0
V7,70.0,75.0,85.0,69.0,91.0,85,5580.0,square2,i,0.1109,1,V,7.0
V7,71.0,71.0,86.0,65.0,94.0,86,5666.0,square2,i,0.0308,1,V,7.0
V7,72.0,77.0,86.0,65.0,98.0,86,5752.0,square2,i,0.3932,1,V,7.0
V7,73.0,77.0,84.0,63.0,94.0,84,5836.0,square2,i,0.0773,1,V,7.0
V7,74.0,71.0,86.0,64.0,91.0,86,5922.0,square2,i,0.071,1,V,7.0
V7,75.0,73.0,90.0,60.0,90.0,90,6012.0,square2,i,0.0111,1,V,7.0
V7,76.0,79.0,84.0,68.0,95.0,84,6096.0,square2,i,0.1415,1,V,7.0
V7,77.0,73.0,85.0,66.0,89.0,73,6169.0,square1,r,0.134,0,V,7.0
V7,78.0,75.0,82.0,67.0,91.0,82,6251.0,square2,i,0.2097,1,V,7.0
V7,79.0,72.0,85.0,60.0,90.0,85,6336.0,square2,i,0.7788,1,V,7.0
V7,80.0,73.0,83.0,66.0,97.0,83,6419.0,square2,i,0.0769,1,V,7.0
V7,81.0,73.0,84.0,67.0,92.0,92,6511.0,square4,f,0.1771,3,V,7.0
V7,82.0,69.0,84.0,65.0,91.0,91,6602.0,square4,f,0.0635,3,V,7.0
V7,83.0,76.0,83.0,72.0,99.0,99,6701.0,square4,f,0.2563,3,V,7.0
V7,84.0,72.0,84.0,70.0,94.0,94,6795.0,square4,f,0.0599,3,V,7.0
V7,85.0,77.0,83.0,67.0,88.0,88,6883.0,square4,f,0.1095,3,V,7.0
V7,86.0,76.0,80.0,67.0,90.0,90,6973.0,square4,f,0.0956,3,V,7.0
V7,87.0,70.0,86.0,67.0,95.0,95,7068.0,square4,f,0.0936,3,V,7.0
V7,88.0,76.0,84.0,67.0,100.0,100,7168.0,square4,f,0.0425,3,V,7.0
V7,89.0,71.0,88.0,60.0,97.0,97,7265.0,square4,f,0.0433,3,V,7.0
V7,90.0,69.0,82.0,71.0,95.0,95,7360.0,square4,f,0.0256,3,V,7.0
V7,91.0,80.0,84.0,65.0,92.0,92,7452.0,square4,f,0.4824,3,V,7.0
V7,92.0,77.0,85.0,68.0,85.0,85,7537.0,square4,f,0.0265,3,V,7.0
V7,93.0,72.0,84.0,66.0,91.0,84,7621.0,square2,i,0.0296,1,V,7.0
V7,94.0,69.0,83.0,66.0,95.0,83,7704.0,square2,i,0.1098,1,V,7.0
V7,95.0,70.0,86.0,75.0,91.0,91,7795.0,square4,f,0.2225,3,V,7.0
V7,96.0,74.0,85.0,66.0,88.0,88,7883.0,square4,f,0.2276,3,V,7.0
V7,97.0,77.0,82.0,73.0,91.0,91,7974.0,square4,f,0.0436,3,V,7.0
V7,98.0,76.0,91.0,62.0,94.0,94,8068.0,square4,f,0.0271,3,V,7.0
V7,99.0,74.0,84.0,67.0,88.0,88,8156.0,square4,f,0.1613,3,V,7.0
V12,0.0,47.0,30.0,38.0,55.0,38,38.0,square3,r,1.4319,2,V,12.0
V12,1.0,46.0,33.0,39.0,57.0,57,95.0,square4,i,0.1764,3,V,12.0
V12,2.0,51.0,29.0,42.0,52.0,51,146.0,square1,f,0.2302,0,V,12.0
V12,3.0,52.0,30.0,38.0,62.0,30,176.0,square2,j,0.0783,1,V,12.0
V12,4.0,48.0,30.0,39.0,62.0,39,215.0,square3,r,0.1551,2,V,12.0
V12,5.0,55.0,34.0,43.0,61.0,55,270.0,square1,f,0.0004,0,V,12.0
V12,6.0,45.0,35.0,42.0,56.0,45,315.0,square1,f,0.0481,0,V,12.0
V12,7.0,48.0,29.0,35.0,57.0,57,372.0,square4,i,0.1145,3,V,12.0
V12,8.0,46.0,33.0,38.0,59.0,46,418.0,square1,f,0.044,0,V,12.0
V12,9.0,44.0,31.0,42.0,56.0,42,460.0,square3,r,0.0437,2,V,12.0
V12,10.0,48.0,34.0,45.0,55.0,34,494.0,square2,j,0.0749,1,V,12.0
V12,11.0,45.0,32.0,41.0,55.0,41,535.0,square3,r,0.2114,2,V,12.0
V12,12.0,52.0,26.0,42.0,57.0,52,587.0,square1,f,0.1603,0,V,12.0
V12,13.0,56.0,31.0,41.0,54.0,56,643.0,square1,f,0.1776,0,V,12.0
V12,14.0,44.0,34.0,40.0,64.0,44,687.0,square1,f,0.1448,0,V,12.0
V12,15.0,48.0,32.0,39.0,61.0,48,735.0,square1,f,0.0605,0,V,12.0
V12,16.0,49.0,33.0,37.0,58.0,49,784.0,square1,f,0.1166,0,V,12.0
V12,17.0,45.0,33.0,43.0,57.0,45,829.0,square1,f,0.0439,0,V,12.0
V12,18.0,45.0,28.0,40.0,58.0,45,874.0,square1,f,0.0172,0,V,12.0
V12,19.0,42.0,33.0,43.0,59.0,42,916.0,square1,f,0.0006,0,V,12.0
V12,20.0,46.0,30.0,38.0,62.0,62,978.0,square4,i,0.5106,3,V,12.0
V12,21.0,46.0,35.0,40.0,55.0,55,1033.0,square4,i,0.0278,3,V,12.0
V12,22.0,46.0,34.0,36.0,63.0,63,1096.0,square4,i,0.1297,3,V,12.0
V12,23.0,54.0,34.0,42.0,56.0,56,1152.0,square4,i,0.2799,3,V,12.0
V12,24.0,44.0,30.0,41.0,59.0,30,1182.0,square2,j,0.1631,1,V,12.0
V12,25.0,49.0,33.0,37.0,64.0,64,1246.0,square4,i,0.0595,3,V,12.0
V12,26.0,52.0,34.0,39.0,57.0,57,1303.0,square4,i,0.0944,3,V,12.0
V12,27.0,50.0,26.0,37.0,55.0,55,1358.0,square4,i,0.0598,3,V,12.0
V12,28.0,41.0,29.0,46.0,21.0,21,1379.0,square4,i,0.0774,3,V,12.0
V12,29.0,41.0,28.0,51.0,20.0,51,1430.0,square3,r,0.0035,2,V,12.0
V12,30.0,32.0,31.0,46.0,22.0,46,1476.0,square3,r,0.6393,2,V,12.0
V12,31.0,38.0,28.0,45.0,22.0,45,1521.0,square3,r,0.0005,2,V,12.0
V12,32.0,35.0,27.0,44.0,16.0,35,1556.0,square1,f,0.0979,0,V,12.0
V12,33.0,39.0,29.0,49.0,21.0,49,1605.0,square3,r,0.0504,2,V,12.0
V12,34.0,39.0,28.0,49.0,15.0,28,1633.0,square2,j,0.0007,1,V,12.0
V12,35.0,36.0,29.0,50.0,17.0,50,1683.0,square3,r,0.1315,2,V,12.0
V12,36.0,41.0,28.0,48.0,12.0,48,1731.0,square3,r,0.0064,2,V,12.0
V12,37.0,34.0,29.0,46.0,25.0,46,1777.0,square3,r,0.1128,2,V,12.0
V12,38.0,38.0,28.0,51.0,19.0,19,1796.0,square4,i,0.0005,3,V,12.0
V12,39.0,39.0,31.0,45.0,13.0,45,1841.0,square3,r,0.1438,2,V,12.0
V12,40.0,35.0,28.0,46.0,26.0,46,1887.0,square3,r,0.0133,2,V,12.0
V12,41.0,38.0,27.0,46.0,20.0,46,1933.0,square3,r,0.412,2,V,12.0
V12,42.0,40.0,26.0,50.0,23.0,50,1983.0,square3,r,0.1007,2,V,12.0
V12,43.0,33.0,30.0,45.0,18.0,45,2028.0,square3,r,0.1273,2,V,12.0
V12,44.0,39.0,31.0,46.0,22.0,46,2074.0,square3,r,0.093,2,V,12.0
V12,45.0,32.0,26.0,42.0,20.0,32,2106.0,square1,f,0.1122,0,V,12.0
V12,46.0,36.0,29.0,43.0,24.0,24,2130.0,square4,i,0.1638,3,V,12.0
V12,47.0,37.0,30.0,46.0,21.0,46,2176.0,square3,r,0.0601,2,V,12.0
V12,48.0,37.0,27.0,44.0,19.0,44,2220.0,square3,r,0.0071,2,V,12.0
V12,49.0,36.0,33.0,55.0,16.0,55,2275.0,square3,r,0.0922,2,V,12.0
V12,50.0,45.0,28.0,44.0,18.0,44,2319.0,square3,r,0.1322,2,V,12.0
V12,51.0,35.0,32.0,49.0,19.0,49,2368.0,square3,r,0.1473,2,V,12.0
V12,52.0,36.0,56.0,31.0,52.0,31,2399.0,square3,r,0.1936,2,V,12.0
V12,53.0,36.0,57.0,29.0,45.0,45,2444.0,square4,i,0.1734,3,V,12.0
V12,54.0,38.0,61.0,28.0,51.0,51,2495.0,square4,i,0.0267,3,V,12.0
V12,55.0,35.0,60.0,29.0,47.0,47,2542.0,square4,i,0.1111,3,V,12.0
V12,56.0,34.0,62.0,29.0,46.0,46,2588.0,square4,i,0.105,3,V,12.0
V12,57.0,43.0,57.0,32.0,46.0,46,2634.0,square4,i,0.006,3,V,12.0
V12,58.0,40.0,59.0,32.0,50.0,50,2684.0,square4,i,0.1244,3,V,12.0
V12,59.0,41.0,62.0,33.0,48.0,48,2732.0,square4,i,0.1754,3,V,12.0
V12,60.0,36.0,61.0,32.0,49.0,49,2781.0,square4,i,0.1093,3,V,12.0
V12,61.0,39.0,56.0,32.0,44.0,44,2825.0,square4,i,0.0438,3,V,12.0
V12,62.0,39.0,57.0,30.0,46.0,46,2871.0,square4,i,0.0672,3,V,12.0
V12,63.0,42.0,53.0,29.0,46.0,46,2917.0,square4,i,0.1262,3,V,12.0
V12,64.0,35.0,57.0,32.0,50.0,50,2967.0,square4,i,0.0766,3,V,12.0
V12,65.0,44.0,58.0,32.0,49.0,49,3016.0,square4,i,0.16,3,V,12.0
V12,66.0,44.0,56.0,29.0,52.0,52,3068.0,square4,i,0.0764,3,V,12.0
V12,67.0,41.0,60.0,30.0,49.0,49,3117.0,square4,i,0.0436,3,V,12.0
V12,68.0,42.0,58.0,32.0,45.0,45,3162.0,square4,i,0.0005,3,V,12.0
V12,69.0,36.0,60.0,33.0,50.0,50,3212.0,square4,i,0.0039,3,V,12.0
V12,70.0,36.0,57.0,27.0,46.0,46,3258.0,square4,i,0.013,3,V,12.0
V12,71.0,41.0,59.0,32.0,48.0,48,3306.0,square4,i,0.426,3,V,12.0
V12,72.0,34.0,59.0,31.0,49.0,59,3365.0,square2,j,0.0497,1,V,12.0
V12,73.0,71.0,53.0,65.0,49.0,53,3418.0,square2,j,0.1107,1,V,12.0
V12,74.0,69.0,49.0,63.0,45.0,49,3467.0,square2,j,0.0257,1,V,12.0
V12,75.0,72.0,51.0,56.0,46.0,72,3539.0,square1,f,0.0773,0,V,12.0
V12,76.0,72.0,48.0,58.0,43.0,72,3611.0,square1,f,0.0806,0,V,12.0
V12,77.0,74.0,57.0,59.0,44.0,59,3670.0,square3,r,0.4457,2,V,12.0
V12,78.0,69.0,55.0,63.0,50.0,63,3733.0,square3,r,0.0936,2,V,12.0
V12,79.0,73.0,53.0,58.0,43.0,73,3806.0,square1,f,0.1261,0,V,12.0
V12,80.0,71.0,47.0,65.0,40.0,71,3877.0,square1,f,0.1258,0,V,12.0
V12,81.0,66.0,49.0,57.0,40.0,66,3943.0,square1,f,0.1329,0,V,12.0
V12,82.0,71.0,53.0,57.0,48.0,71,4014.0,square1,f,0.0241,0,V,12.0
V12,83.0,70.0,50.0,56.0,49.0,70,4084.0,square1,f,0.1109,0,V,12.0
V12,84.0,69.0,45.0,64.0,43.0,69,4153.0,square1,f,0.062,0,V,12.0
V12,85.0,64.0,48.0,54.0,42.0,64,4217.0,square1,f,0.0923,0,V,12.0
V12,86.0,71.0,49.0,63.0,44.0,63,4280.0,square3,r,0.0622,2,V,12.0
V12,87.0,72.0,52.0,55.0,42.0,55,4335.0,square3,r,0.0448,2,V,12.0
V12,88.0,64.0,48.0,59.0,44.0,44,4379.0,square4,i,0.0006,3,V,12.0
V12,89.0,69.0,48.0,62.0,45.0,48,4427.0,square2,j,0.2964,1,V,12.0
V12,90.0,68.0,56.0,60.0,42.0,60,4487.0,square3,r,0.0927,2,V,12.0
V12,91.0,69.0,52.0,62.0,45.0,69,4556.0,square1,f,0.0758,0,V,12.0
V12,92.0,65.0,50.0,64.0,47.0,65,4621.0,square1,f,0.0657,0,V,12.0
V12,93.0,68.0,51.0,62.0,43.0,68,4689.0,square1,f,0.1103,0,V,12.0
V12,94.0,68.0,52.0,60.0,38.0,68,4757.0,square1,f,0.1614,0,V,12.0
V12,95.0,71.0,52.0,58.0,47.0,71,4828.0,square1,f,0.1461,0,V,12.0
V12,96.0,66.0,49.0,59.0,44.0,66,4894.0,square1,f,0.1621,0,V,12.0
V12,97.0,74.0,47.0,54.0,47.0,54,4948.0,square3,r,0.1686,2,V,12.0
V12,98.0,68.0,43.0,64.0,41.0,68,5016.0,square1,f,0.3241,0,V,12.0
V12,99.0,71.0,53.0,62.0,44.0,71,5087.0,square1,f,0.0281,0,V,12.0
V10,0.0,28.0,21.0,37.0,46.0,28,28.0,square1,r,0.7452,0,V,10.0
V10,1.0,26.0,19.0,41.0,49.0,41,69.0,square3,j,0.0409,2,V,10.0
V10,2.0,29.0,20.0,43.0,48.0,20,89.0,square2,i,0.1432,1,V,10.0
V10,3.0,27.0,27.0,37.0,44.0,37,126.0,square3,j,0.0739,2,V,10.0
V10,4.0,28.0,16.0,36.0,47.0,47,173.0,square4,f,0.0998,3,V,10.0
V10,5.0,33.0,25.0,42.0,54.0,54,227.0,square4,f,0.0336,3,V,10.0
V10,6.0,28.0,19.0,35.0,45.0,45,272.0,square4,f,0.061,3,V,10.0
V10,7.0,30.0,24.0,35.0,49.0,24,296.0,square2,i,0.0593,1,V,10.0
V10,8.0,37.0,29.0,41.0,47.0,47,343.0,square4,f,0.0004,3,V,10.0
V10,9.0,28.0,21.0,41.0,48.0,48,391.0,square4,f,0.3113,3,V,10.0
V10,10.0,27.0,22.0,39.0,42.0,42,433.0,square4,f,0.129,3,V,10.0
V10,11.0,32.0,16.0,41.0,48.0,48,481.0,square4,f,0.0385,3,V,10.0
V10,12.0,34.0,15.0,33.0,49.0,34,515.0,square1,r,0.3289,0,V,10.0
V10,13.0,36.0,19.0,41.0,45.0,45,560.0,square4,f,0.3601,3,V,10.0
V10,14.0,28.0,23.0,35.0,53.0,35,595.0,square3,j,0.2605,2,V,10.0
V10,15.0,26.0,28.0,40.0,50.0,50,645.0,square4,f,0.193,3,V,10.0
V10,16.0,30.0,25.0,42.0,47.0,47,692.0,square4,f,0.0941,3,V,10.0
V10,17.0,31.0,19.0,38.0,50.0,50,742.0,square4,f,0.0957,3,V,10.0
V10,18.0,34.0,21.0,35.0,48.0,48,790.0,square4,f,0.0267,3,V,10.0
V10,19.0,31.0,24.0,39.0,46.0,46,836.0,square4,f,0.0308,3,V,10.0
V10,20.0,28.0,22.0,42.0,47.0,47,883.0,square4,f,0.3631,3,V,10.0
V10,21.0,24.0,20.0,41.0,47.0,47,930.0,square4,f,0.0987,3,V,10.0
V10,22.0,32.0,22.0,34.0,44.0,44,974.0,square4,f,0.0665,3,V,10.0
V10,23.0,29.0,23.0,37.0,47.0,47,1021.0,square4,f,0.0934,3,V,10.0
V10,24.0,25.0,25.0,38.0,46.0,25,1046.0,square2,i,0.0273,1,V,10.0
V10,25.0,30.0,24.0,41.0,45.0,30,1076.0,square1,r,0.0606,0,V,10.0
V10,26.0,32.0,17.0,38.0,49.0,49,1125.0,square4,f,0.2403,3,V,10.0
V10,27.0,34.0,21.0,38.0,47.0,38,1163.0,square3,j,0.0925,2,V,10.0
V10,28.0,29.0,21.0,37.0,45.0,45,1208.0,square4,f,0.1429,3,V,10.0
V10,29.0,30.0,20.0,31.0,47.0,47,1255.0,square4,f,0.0434,3,V,10.0
V10,30.0,28.0,21.0,35.0,44.0,44,1299.0,square4,f,0.0595,3,V,10.0
V10,31.0,36.0,25.0,14.0,8.0,8,1307.0,square4,f,0.1005,3,V,10.0
V10,32.0,38.0,27.0,19.0,11.0,38,1345.0,square1,r,0.1131,0,V,10.0
V10,33.0,39.0,21.0,20.0,13.0,20,1365.0,square3,j,0.0123,2,V,10.0
V10,34.0,34.0,24.0,20.0,10.0,24,1389.0,square2,i,0.2093,1,V,10.0
V10,35.0,44.0,29.0,17.0,11.0,44,1433.0,square1,r,0.0005,0,V,10.0
V10,36.0,33.0,30.0,17.0,9.0,33,1466.0,square1,r,0.1173,0,V,10.0
V10,37.0,31.0,27.0,12.0,6.0,6,1472.0,square4,f,0.0272,3,V,10.0
V10,38.0,34.0,29.0,15.0,10.0,34,1506.0,square1,r,0.0648,0,V,10.0
V10,39.0,35.0,21.0,19.0,5.0,35,1541.0,square1,r,0.227,0,V,10.0
V10,40.0,32.0,26.0,18.0,6.0,32,1573.0,square1,r,0.1834,0,V,10.0
V10,41.0,34.0,32.0,13.0,9.0,13,1586.0,square3,j,0.1249,2,V,10.0
V10,42.0,35.0,30.0,16.0,8.0,30,1616.0,square2,i,0.0265,1,V,10.0
V10,43.0,38.0,32.0,16.0,8.0,32,1648.0,square2,i,0.0928,1,V,10.0
V10,44.0,34.0,20.0,18.0,3.0,20,1668.0,square2,i,0.1817,1,V,10.0
V10,45.0,38.0,22.0,23.0,9.0,22,1690.0,square2,i,0.1439,1,V,10.0
V10,46.0,36.0,28.0,16.0,10.0,36,1726.0,square1,r,0.1917,0,V,10.0
V10,47.0,36.0,27.0,13.0,8.0,36,1762.0,square1,r,0.0603,0,V,10.0
V10,48.0,35.0,27.0,14.0,12.0,35,1797.0,square1,r,0.0632,0,V,10.0
V10,49.0,33.0,28.0,16.0,10.0,33,1830.0,square1,r,0.0956,0,V,10.0
V10,50.0,31.0,29.0,19.0,8.0,31,1861.0,square1,r,0.0083,0,V,10.0
V10,51.0,32.0,21.0,20.0,12.0,32,1893.0,square1,r,0.0624,0,V,10.0
V10,52.0,29.0,25.0,21.0,10.0,10,1903.0,square4,f,0.0277,3,V,10.0
V10,53.0,39.0,29.0,23.0,2.0,39,1942.0,square1,r,0.0006,0,V,10.0
V10,54.0,33.0,28.0,19.0,7.0,33,1975.0,square1,r,0.0041,0,V,10.0
V10,55.0,34.0,24.0,15.0,8.0,15,1990.0,square3,j,0.0415,2,V,10.0
V10,56.0,35.0,20.0,21.0,9.0,35,2025.0,square1,r,0.3991,0,V,10.0
V10,57.0,33.0,27.0,19.0,7.0,27,2052.0,square2,i,0.4899,1,V,10.0
V10,58.0,38.0,24.0,16.0,7.0,38,2090.0,square1,r,0.129,0,V,10.0
V10,59.0,34.0,29.0,15.0,5.0,34,2124.0,square1,r,0.1113,0,V,10.0
V10,60.0,34.0,22.0,19.0,9.0,34,2158.0,square1,r,0.3834,0,V,10.0
V10,61.0,39.0,31.0,20.0,10.0,39,2197.0,square1,r,0.1937,0,V,10.0
V10,62.0,35.0,24.0,18.0,6.0,35,2232.0,square1,r,0.1674,0,V,10.0
V10,63.0,35.0,26.0,18.0,9.0,35,2267.0,square1,r,0.1422,0,V,10.0
V10,64.0,31.0,55.0,23.0,23.0,31,2298.0,square1,r,0.2007,0,V,10.0
V10,65.0,35.0,50.0,22.0,27.0,35,2333.0,square1,r,0.1496,0,V,10.0
V10,66.0,35.0,53.0,25.0,29.0,35,2368.0,square1,r,0.1007,0,V,10.0
V10,67.0,38.0,44.0,17.0,29.0,38,2406.0,square1,r,0.129,0,V,10.0
V10,68.0,36.0,48.0,22.0,27.0,36,2442.0,square1,r,0.1931,0,V,10.0
V10,69.0,41.0,53.0,17.0,28.0,41,2483.0,square1,r,0.1435,0,V,10.0
V10,70.0,40.0,48.0,23.0,28.0,40,2523.0,square1,r,0.1092,0,V,10.0
V10,71.0,39.0,43.0,24.0,20.0,39,2562.0,square1,r,0.0932,0,V,10.0
V10,72.0,36.0,49.0,19.0,25.0,36,2598.0,square1,r,0.1603,0,V,10.0
V10,73.0,39.0,49.0,23.0,32.0,39,2637.0,square1,r,0.1281,0,V,10.0
V10,74.0,36.0,44.0,17.0,29.0,36,2673.0,square1,r,0.1077,0,V,10.0
V10,75.0,37.0,46.0,20.0,30.0,37,2710.0,square1,r,0.0582,0,V,10.0
V10,76.0,38.0,47.0,23.0,30.0,47,2757.0,square2,i,0.0096,1,V,10.0
V10,77.0,36.0,49.0,22.0,32.0,32,2789.0,square4,f,0.0435,3,V,10.0
V10,78.0,41.0,44.0,19.0,27.0,44,2833.0,square2,i,0.3784,1,V,10.0
V10,79.0,41.0,48.0,22.0,27.0,22,2855.0,square3,j,0.1278,2,V,10.0
V10,80.0,34.0,44.0,26.0,29.0,44,2899.0,square2,i,0.1646,1,V,10.0
V10,81.0,38.0,47.0,18.0,29.0,47,2946.0,square2,i,0.162,1,V,10.0
V10,82.0,43.0,43.0,23.0,28.0,43,2989.0,square2,i,0.1102,1,V,10.0
V10,83.0,34.0,51.0,23.0,26.0,51,3040.0,square2,i,0.1318,1,V,10.0
V10,84.0,36.0,46.0,18.0,25.0,46,3086.0,square2,i,0.1115,1,V,10.0
V10,85.0,39.0,46.0,25.0,26.0,46,3132.0,square2,i,0.0814,1,V,10.0
V10,86.0,39.0,50.0,27.0,27.0,50,3182.0,square2,i,0.1986,1,V,10.0
V10,87.0,38.0,46.0,20.0,30.0,46,3228.0,square2,i,0.0924,1,V,10.0
V10,88.0,37.0,49.0,22.0,28.0,49,3277.0,square2,i,0.1141,1,V,10.0
V10,89.0,34.0,51.0,25.0,26.0,51,3328.0,square2,i,0.1105,1,V,10.0
V10,90.0,41.0,49.0,22.0,29.0,49,3377.0,square2,i,0.0006,1,V,10.0
V10,91.0,37.0,45.0,26.0,32.0,32,3409.0,square4,f,0.2709,3,V,10.0
V10,92.0,42.0,42.0,27.0,28.0,42,3451.0,square2,i,0.1607,1,V,10.0
V10,93.0,41.0,48.0,19.0,36.0,48,3499.0,square2,i,0.1796,1,V,10.0
V10,94.0,43.0,49.0,23.0,31.0,49,3548.0,square2,i,0.1262,1,V,10.0
V10,95.0,39.0,46.0,18.0,27.0,46,3594.0,square2,i,0.0842,1,V,10.0
V10,96.0,37.0,48.0,24.0,27.0,37,3631.0,square1,r,0.1084,0,V,10.0
V10,97.0,42.0,50.0,23.0,31.0,50,3681.0,square2,i,0.1652,1,V,10.0
V10,98.0,33.0,47.0,25.0,32.0,47,3728.0,square2,i,0.1725,1,V,10.0
V10,99.0,39.0,48.0,23.0,32.0,48,3776.0,square2,i,0.2437,1,V,10.0
S1,0.0,72.0,58.0,70.0,66.0,66,66.0,square4,r,0.5838,3,S,1.0
S1,1.0,75.0,64.0,66.0,69.0,75,141.0,square1,j,0.1091,0,S,1.0
S1,2.0,75.0,62.0,62.0,79.0,62,203.0,square2,f,0.0922,1,S,1.0
S1,3.0,68.0,62.0,63.0,69.0,63,266.0,square3,i,0.0439,2,S,1.0
S1,4.0,82.0,63.0,64.0,73.0,82,348.0,square1,j,0.0599,0,S,1.0
S1,5.0,66.0,70.0,65.0,73.0,66,414.0,square1,j,0.0787,0,S,1.0
S1,6.0,73.0,65.0,62.0,65.0,73,487.0,square1,j,0.0249,0,S,1.0
S1,7.0,70.0,61.0,65.0,66.0,70,557.0,square1,j,0.0612,0,S,1.0
S1,8.0,78.0,63.0,67.0,68.0,78,635.0,square1,j,0.0503,0,S,1.0
S1,9.0,74.0,67.0,66.0,68.0,68,703.0,square4,r,0.0469,3,S,1.0
S1,10.0,73.0,59.0,68.0,68.0,73,776.0,square1,j,0.4108,0,S,1.0
S1,11.0,76.0,65.0,62.0,81.0,65,841.0,square2,f,0.0765,1,S,1.0
S1,12.0,77.0,66.0,69.0,63.0,69,910.0,square3,i,0.0453,2,S,1.0
S1,13.0,75.0,63.0,68.0,73.0,75,985.0,square1,j,0.0587,0,S,1.0
S1,14.0,67.0,60.0,67.0,69.0,67,1052.0,square1,j,0.1293,0,S,1.0
S1,15.0,70.0,63.0,69.0,73.0,70,1122.0,square1,j,0.145,0,S,1.0
S1,16.0,69.0,61.0,69.0,69.0,69,1191.0,square3,i,0.11,2,S,1.0
S1,17.0,73.0,68.0,67.0,73.0,73,1264.0,square1,j,0.1489,0,S,1.0
S1,18.0,70.0,58.0,73.0,66.0,70,1334.0,square1,j,0.0943,0,S,1.0
S1,19.0,75.0,58.0,62.0,68.0,75,1409.0,square1,j,0.1449,0,S,1.0
S1,20.0,76.0,58.0,72.0,67.0,76,1485.0,square1,j,0.1606,0,S,1.0
S1,21.0,69.0,66.0,66.0,67.0,69,1554.0,square1,j,0.0785,0,S,1.0
S1,22.0,70.0,68.0,65.0,65.0,70,1624.0,square1,j,0.048,0,S,1.0
S1,23.0,71.0,60.0,64.0,64.0,71,1695.0,square1,j,0.0427,0,S,1.0
S1,24.0,70.0,72.0,62.0,67.0,67,1762.0,square4,r,0.0603,3,S,1.0
S1,25.0,68.0,60.0,70.0,65.0,68,1830.0,square1,j,0.2831,0,S,1.0
S1,26.0,76.0,64.0,72.0,69.0,76,1906.0,square1,j,0.0947,0,S,1.0
S1,27.0,71.0,56.0,70.0,65.0,56,1962.0,square2,f,0.0966,1,S,1.0
S1,28.0,67.0,67.0,71.0,76.0,67,2029.0,square1,j,0.077,0,S,1.0
S1,29.0,78.0,64.0,64.0,74.0,78,2107.0,square1,j,0.0297,0,S,1.0
S1,30.0,74.0,63.0,65.0,71.0,74,2181.0,square1,j,0.0085,0,S,1.0
S1,31.0,78.0,58.0,69.0,69.0,78,2259.0,square1,j,0.0995,0,S,1.0
S1,32.0,71.0,67.0,68.0,60.0,71,2330.0,square1,j,0.144,0,S,1.0
S1,33.0,68.0,63.0,65.0,73.0,68,2398.0,square1,j,0.0785,0,S,1.0
S1,34.0,71.0,62.0,74.0,73.0,74,2472.0,square3,i,0.0742,2,S,1.0
S1,35.0,75.0,59.0,67.0,77.0,67,2539.0,square3,i,0.1424,2,S,1.0
S1,36.0,77.0,60.0,66.0,67.0,77,2616.0,square1,j,0.0309,0,S,1.0
S1,37.0,69.0,60.0,69.0,75.0,69,2685.0,square1,j,0.0408,0,S,1.0
S1,38.0,77.0,64.0,62.0,70.0,77,2762.0,square1,j,0.1468,0,S,1.0
S1,39.0,72.0,66.0,69.0,65.0,72,2834.0,square1,j,0.1064,0,S,1.0
S1,40.0,69.0,63.0,66.0,69.0,69,2903.0,square1,j,0.0928,0,S,1.0
S1,41.0,72.0,62.0,70.0,70.0,70,2973.0,square3,i,0.0818,2,S,1.0
S1,42.0,78.0,60.0,63.0,62.0,78,3051.0,square1,j,0.0612,0,S,1.0
S1,43.0,71.0,62.0,67.0,73.0,67,3118.0,square3,i,0.0098,2,S,1.0
S1,44.0,75.0,63.0,69.0,73.0,75,3193.0,square1,j,0.0643,0,S,1.0
S1,45.0,66.0,60.0,68.0,73.0,73,3266.0,square4,r,0.028,3,S,1.0
S1,46.0,74.0,67.0,69.0,71.0,74,3340.0,square1,j,0.0441,0,S,1.0
S1,47.0,71.0,66.0,68.0,70.0,71,3411.0,square1,j,0.0273,0,S,1.0
S1,48.0,72.0,75.0,71.0,77.0,72,3483.0,square1,j,0.0006,0,S,1.0
S1,49.0,65.0,57.0,66.0,75.0,65,3548.0,square1,j,0.0606,0,S,1.0
S9,0.0,36.0,36.0,32.0,32.0,36,36.0,square1,r,0.4096,0,S,9.0
S9,1.0,40.0,29.0,36.0,24.0,29,65.0,square2,j,0.0608,1,S,9.0
S9,2.0,31.0,43.0,22.0,29.0,29,94.0,square4,i,0.1431,3,S,9.0
S9,3.0,41.0,33.0,28.0,27.0,28,122.0,square3,f,0.1264,2,S,9.0
S9,4.0,34.0,29.0,32.0,31.0,31,153.0,square4,i,0.0448,3,S,9.0
S9,5.0,41.0,32.0,22.0,29.0,41,194.0,square1,r,0.0599,0,S,9.0
S9,6.0,44.0,30.0,21.0,28.0,44,238.0,square1,r,0.0585,0,S,9.0
S9,7.0,39.0,37.0,26.0,24.0,39,277.0,square1,r,0.277,0,S,9.0
S9,8.0,41.0,33.0,23.0,20.0,41,318.0,square1,r,0.0444,0,S,9.0
S9,9.0,30.0,35.0,24.0,27.0,30,348.0,square1,r,0.0292,0,S,9.0
S9,10.0,41.0,29.0,23.0,28.0,29,377.0,square2,j,0.1275,1,S,9.0
S9,11.0,37.0,38.0,22.0,33.0,37,414.0,square1,r,0.1263,0,S,9.0
S9,12.0,35.0,31.0,27.0,32.0,35,449.0,square1,r,0.092,0,S,9.0
S9,13.0,38.0,37.0,30.0,29.0,29,478.0,square4,i,0.0937,3,S,9.0
S9,14.0,36.0,38.0,30.0,37.0,30,508.0,square3,f,0.0764,2,S,9.0
S9,15.0,40.0,29.0,27.0,24.0,40,548.0,square1,r,0.0998,0,S,9.0
S9,16.0,33.0,37.0,29.0,28.0,33,581.0,square1,r,0.0932,0,S,9.0
S9,17.0,41.0,32.0,36.0,31.0,41,622.0,square1,r,0.1263,0,S,9.0
S9,18.0,39.0,26.0,16.0,35.0,39,661.0,square1,r,0.1269,0,S,9.0
S9,19.0,35.0,30.0,23.0,27.0,35,696.0,square1,r,0.0005,0,S,9.0
S9,20.0,39.0,34.0,23.0,29.0,39,735.0,square1,r,0.0456,0,S,9.0
S9,21.0,35.0,37.0,28.0,31.0,35,770.0,square1,r,0.1662,0,S,9.0
S9,22.0,37.0,30.0,23.0,38.0,23,793.0,square3,f,0.0756,2,S,9.0
S9,23.0,37.0,34.0,27.0,34.0,37,830.0,square1,r,0.1327,0,S,9.0
S9,24.0,31.0,34.0,26.0,27.0,31,861.0,square1,r,0.0296,0,S,9.0
S9,25.0,38.0,40.0,29.0,24.0,40,901.0,square2,j,0.1097,1,S,9.0
S9,26.0,43.0,31.0,21.0,24.0,31,932.0,square2,j,0.1096,1,S,9.0
S9,27.0,30.0,31.0,23.0,28.0,31,963.0,square2,j,0.0801,1,S,9.0
S9,28.0,44.0,32.0,31.0,32.0,44,1007.0,square1,r,0.3922,0,S,9.0
S9,29.0,36.0,38.0,22.0,22.0,36,1043.0,square1,r,0.0603,0,S,9.0
S9,30.0,41.0,30.0,26.0,29.0,41,1084.0,square1,r,0.1786,0,S,9.0
S9,31.0,39.0,37.0,30.0,32.0,39,1123.0,square1,r,0.1343,0,S,9.0
S9,32.0,35.0,39.0,28.0,31.0,35,1158.0,square1,r,0.0005,0,S,9.0
S9,33.0,37.0,39.0,29.0,32.0,39,1197.0,square2,j,0.0887,1,S,9.0
S9,34.0,46.0,33.0,21.0,25.0,46,1243.0,square1,r,0.0285,0,S,9.0
S9,35.0,38.0,33.0,28.0,28.0,38,1281.0,square1,r,0.1482,0,S,9.0
S9,36.0,40.0,37.0,21.0,32.0,37,1318.0,square2,j,0.0005,1,S,9.0
S9,37.0,38.0,43.0,23.0,37.0,38,1356.0,square1,r,0.153,0,S,9.0
S9,38.0,36.0,31.0,29.0,29.0,36,1392.0,square1,r,0.0399,0,S,9.0
S9,39.0,41.0,29.0,26.0,28.0,28,1420.0,square4,i,0.0101,3,S,9.0
S9,40.0,32.0,36.0,26.0,28.0,32,1452.0,square1,r,0.027,0,S,9.0
S9,41.0,40.0,37.0,35.0,28.0,40,1492.0,square1,r,0.2633,0,S,9.0
S9,42.0,43.0,32.0,26.0,37.0,43,1535.0,square1,r,0.1261,0,S,9.0
S9,43.0,40.0,31.0,23.0,31.0,40,1575.0,square1,r,0.0769,0,S,9.0
S9,44.0,42.0,38.0,24.0,40.0,42,1617.0,square1,r,0.0441,0,S,9.0
S9,45.0,36.0,35.0,30.0,33.0,36,1653.0,square1,r,0.0638,0,S,9.0
S9,46.0,38.0,30.0,33.0,26.0,38,1691.0,square1,r,0.1606,0,S,9.0
S9,47.0,39.0,37.0,25.0,26.0,39,1730.0,square1,r,0.0119,0,S,9.0
S9,48.0,36.0,35.0,26.0,27.0,36,1766.0,square1,r,0.0263,0,S,9.0
S9,49.0,40.0,32.0,24.0,28.0,40,1806.0,square1,r,0.1987,0,S,9.0
S7,0.0,68.0,73.0,62.0,57.0,57,57.0,square4,r,1.1719,3,S,7.0
S7,1.0,74.0,67.0,66.0,59.0,66,123.0,square3,i,0.4601,2,S,7.0
S7,2.0,68.0,69.0,65.0,60.0,68,191.0,square1,j,0.226,0,S,7.0
S7,3.0,74.0,68.0,65.0,63.0,68,259.0,square2,f,0.0502,1,S,7.0
S7,4.0,68.0,74.0,67.0,63.0,68,327.0,square1,j,0.0436,0,S,7.0
S7,5.0,68.0,67.0,61.0,57.0,67,394.0,square2,f,0.0425,1,S,7.0
S7,6.0,72.0,64.0,65.0,51.0,72,466.0,square1,j,0.0463,0,S,7.0
S7,7.0,69.0,63.0,69.0,63.0,69,535.0,square3,i,0.0097,2,S,7.0
S7,8.0,71.0,68.0,63.0,54.0,71,606.0,square1,j,0.0004,0,S,7.0
S7,9.0,81.0,66.0,68.0,62.0,81,687.0,square1,j,0.3503,0,S,7.0
S7,10.0,72.0,73.0,68.0,61.0,61,748.0,square4,r,0.1966,3,S,7.0
S7,11.0,72.0,72.0,62.0,58.0,72,820.0,square1,j,0.0895,0,S,7.0
S7,12.0,66.0,66.0,62.0,61.0,66,886.0,square1,j,0.2107,0,S,7.0
S7,13.0,73.0,75.0,75.0,68.0,75,961.0,square3,i,0.044,2,S,7.0
S7,14.0,71.0,73.0,72.0,66.0,73,1034.0,square2,f,0.115,1,S,7.0
S7,15.0,75.0,68.0,68.0,65.0,75,1109.0,square1,j,0.0777,0,S,7.0
S7,16.0,67.0,65.0,62.0,56.0,67,1176.0,square1,j,0.1394,0,S,7.0
S7,17.0,72.0,67.0,63.0,64.0,63,1239.0,square3,i,0.0932,2,S,7.0
S7,18.0,73.0,69.0,66.0,65.0,69,1308.0,square2,f,0.424,1,S,7.0
S7,19.0,75.0,70.0,62.0,58.0,70,1378.0,square2,f,0.1805,1,S,7.0
S7,20.0,76.0,63.0,67.0,62.0,63,1441.0,square2,f,0.0648,1,S,7.0
S7,21.0,79.0,76.0,63.0,64.0,79,1520.0,square1,j,0.1783,0,S,7.0
S7,22.0,67.0,72.0,63.0,62.0,67,1587.0,square1,j,0.1067,0,S,7.0
S7,23.0,69.0,71.0,70.0,62.0,69,1656.0,square1,j,0.095,0,S,7.0
S7,24.0,74.0,67.0,70.0,62.0,74,1730.0,square1,j,0.0769,0,S,7.0
S7,25.0,70.0,67.0,72.0,62.0,70,1800.0,square1,j,0.1114,0,S,7.0
S7,26.0,72.0,62.0,74.0,65.0,74,1874.0,square3,i,0.1767,2,S,7.0
S7,27.0,69.0,70.0,68.0,62.0,68,1942.0,square3,i,0.0768,2,S,7.0
S7,28.0,65.0,66.0,60.0,62.0,60,2002.0,square3,i,0.3613,2,S,7.0
S7,29.0,70.0,64.0,60.0,68.0,60,2062.0,square3,i,0.1787,2,S,7.0
S7,30.0,69.0,69.0,64.0,57.0,57,2119.0,square4,r,0.256,3,S,7.0
S7,31.0,77.0,67.0,65.0,60.0,67,2186.0,square2,f,0.0951,1,S,7.0
S7,32.0,67.0,75.0,65.0,58.0,75,2261.0,square2,f,0.1617,1,S,7.0
S7,33.0,74.0,66.0,66.0,60.0,66,2327.0,square2,f,0.1939,1,S,7.0
S7,34.0,72.0,72.0,66.0,61.0,72,2399.0,square2,f,0.1267,1,S,7.0
S7,35.0,67.0,68.0,64.0,62.0,68,2467.0,square2,f,0.0928,1,S,7.0
S7,36.0,64.0,63.0,70.0,58.0,63,2530.0,square2,f,0.1644,1,S,7.0
S7,37.0,80.0,72.0,64.0,53.0,80,2610.0,square1,j,0.1109,0,S,7.0
S7,38.0,78.0,69.0,76.0,67.0,78,2688.0,square1,j,0.0767,0,S,7.0
S7,39.0,69.0,66.0,60.0,67.0,69,2757.0,square1,j,0.115,0,S,7.0
S7,40.0,72.0,71.0,63.0,66.0,72,2829.0,square1,j,0.1593,0,S,7.0
S7,41.0,80.0,73.0,65.0,63.0,80,2909.0,square1,j,0.0833,0,S,7.0
S7,42.0,77.0,60.0,65.0,59.0,77,2986.0,square1,j,0.0941,0,S,7.0
S7,43.0,70.0,72.0,70.0,63.0,70,3056.0,square1,j,0.1484,0,S,7.0
S7,44.0,77.0,70.0,66.0,58.0,77,3133.0,square1,j,0.2066,0,S,7.0
S7,45.0,75.0,69.0,73.0,58.0,75,3208.0,square1,j,0.1262,0,S,7.0
S7,46.0,74.0,71.0,63.0,63.0,74,3282.0,square1,j,0.1099,0,S,7.0
S7,47.0,73.0,75.0,71.0,64.0,73,3355.0,square1,j,0.1142,0,S,7.0
S7,48.0,78.0,79.0,64.0,58.0,78,3433.0,square1,j,0.0094,0,S,7.0
S7,49.0,75.0,72.0,66.0,72.0,75,3508.0,square1,j,0.1109,0,S,7.0
S11,0.0,49.0,53.0,49.0,45.0,49,49.0,square3,r,0.6714,2,S,11.0
S11,1.0,54.0,56.0,42.0,50.0,56,105.0,square2,j,0.1065,1,S,11.0
S11,2.0,39.0,51.0,39.0,43.0,43,148.0,square4,f,0.0005,3,S,11.0
S11,3.0,53.0,50.0,38.0,43.0,53,201.0,square1,i,0.3963,0,S,11.0
S11,4.0,47.0,54.0,39.0,48.0,47,248.0,square1,i,0.1089,0,S,11.0
S11,5.0,47.0,52.0,40.0,46.0,47,295.0,square1,i,0.0767,0,S,11.0
S11,6.0,47.0,46.0,44.0,54.0,46,341.0,square2,j,0.0007,1,S,11.0
S11,7.0,48.0,51.0,35.0,51.0,51,392.0,square2,j,0.1788,1,S,11.0
S11,8.0,52.0,49.0,36.0,43.0,49,441.0,square2,j,0.1263,1,S,11.0
S11,9.0,47.0,53.0,41.0,55.0,47,488.0,square1,i,0.0749,0,S,11.0
S11,10.0,44.0,48.0,41.0,43.0,44,532.0,square1,i,0.0324,0,S,11.0
S11,11.0,41.0,54.0,38.0,43.0,54,586.0,square2,j,0.0765,1,S,11.0
S11,12.0,45.0,54.0,44.0,45.0,54,640.0,square2,j,0.0486,1,S,11.0
S11,13.0,54.0,52.0,44.0,50.0,44,684.0,square3,r,0.0443,2,S,11.0
S11,14.0,57.0,58.0,36.0,45.0,45,729.0,square4,f,0.3782,3,S,11.0
S11,15.0,48.0,54.0,43.0,49.0,54,783.0,square2,j,0.1326,1,S,11.0
S11,16.0,58.0,47.0,42.0,46.0,47,830.0,square2,j,0.04,1,S,11.0
S11,17.0,41.0,61.0,42.0,53.0,41,871.0,square1,i,0.2111,0,S,11.0
S11,18.0,51.0,58.0,33.0,39.0,58,929.0,square2,j,0.0307,1,S,11.0
S11,19.0,48.0,49.0,37.0,42.0,49,978.0,square2,j,0.0934,1,S,11.0
S11,20.0,52.0,52.0,45.0,46.0,52,1030.0,square2,j,0.0787,1,S,11.0
S11,21.0,47.0,53.0,44.0,51.0,53,1083.0,square2,j,0.078,1,S,11.0
S11,22.0,49.0,54.0,37.0,41.0,54,1137.0,square2,j,0.0436,1,S,11.0
S11,23.0,52.0,54.0,41.0,45.0,54,1191.0,square2,j,0.4439,1,S,11.0
S11,24.0,42.0,56.0,41.0,45.0,56,1247.0,square2,j,0.0955,1,S,11.0
S11,25.0,52.0,56.0,42.0,44.0,56,1303.0,square2,j,0.0737,1,S,11.0
S11,26.0,43.0,56.0,41.0,45.0,56,1359.0,square2,j,0.1106,1,S,11.0
S11,27.0,48.0,50.0,40.0,43.0,50,1409.0,square2,j,0.1268,1,S,11.0
S11,28.0,46.0,49.0,38.0,48.0,46,1455.0,square1,i,0.0817,0,S,11.0
S11,29.0,46.0,55.0,40.0,42.0,55,1510.0,square2,j,0.1233,1,S,11.0
S11,30.0,46.0,56.0,43.0,37.0,56,1566.0,square2,j,0.1103,1,S,11.0
S11,31.0,42.0,49.0,44.0,42.0,49,1615.0,square2,j,0.1466,1,S,11.0
S11,32.0,51.0,52.0,36.0,40.0,52,1667.0,square2,j,0.0774,1,S,11.0
S11,33.0,44.0,53.0,39.0,43.0,39,1706.0,square3,r,0.0041,2,S,11.0
S11,34.0,52.0,52.0,43.0,49.0,52,1758.0,square2,j,0.0267,1,S,11.0
S11,35.0,53.0,51.0,38.0,45.0,51,1809.0,square2,j,0.0004,1,S,11.0
S11,36.0,50.0,44.0,42.0,48.0,48,1857.0,square4,f,0.0005,3,S,11.0
S11,37.0,49.0,51.0,40.0,48.0,51,1908.0,square2,j,0.0282,1,S,11.0
S11,38.0,47.0,47.0,39.0,38.0,47,1955.0,square2,j,0.0425,1,S,11.0
S11,39.0,51.0,55.0,40.0,42.0,55,2010.0,square2,j,0.0433,1,S,11.0
S11,40.0,50.0,52.0,41.0,44.0,44,2054.0,square4,f,0.0006,3,S,11.0
S11,41.0,47.0,50.0,46.0,50.0,50,2104.0,square2,j,0.0252,1,S,11.0
S11,42.0,52.0,48.0,41.0,47.0,48,2152.0,square2,j,0.0371,1,S,11.0
S11,43.0,50.0,56.0,34.0,42.0,56,2208.0,square2,j,0.1266,1,S,11.0
S11,44.0,42.0,48.0,37.0,49.0,48,2256.0,square2,j,0.0641,1,S,11.0
S11,45.0,47.0,47.0,41.0,40.0,47,2303.0,square2,j,0.1159,1,S,11.0
S11,46.0,50.0,56.0,40.0,44.0,56,2359.0,square2,j,0.0256,1,S,11.0
S11,47.0,46.0,48.0,38.0,47.0,48,2407.0,square2,j,0.0434,1,S,11.0
S11,48.0,45.0,54.0,44.0,41.0,54,2461.0,square2,j,0.0934,1,S,11.0
S11,49.0,44.0,53.0,41.0,41.0,53,2514.0,square2,j,0.0604,1,S,11.0
S10,0.0,72.0,76.0,80.0,64.0,72,72.0,square1,r,0.7764,0,S,10.0
S10,1.0,76.0,75.0,74.0,65.0,76,148.0,square1,r,0.2114,0,S,10.0
S10,2.0,70.0,72.0,79.0,74.0,74,222.0,square4,j,0.0825,3,S,10.0
S10,3.0,69.0,77.0,76.0,68.0,76,298.0,square3,f,0.2591,2,S,10.0
S10,4.0,72.0,79.0,77.0,70.0,79,377.0,square2,i,0.1275,1,S,10.0
S10,5.0,68.0,74.0,72.0,64.0,74,451.0,square2,i,0.1431,1,S,10.0
S10,6.0,70.0,77.0,72.0,62.0,70,521.0,square1,r,0.1265,0,S,10.0
S10,7.0,78.0,81.0,80.0,74.0,81,602.0,square2,i,0.0008,1,S,10.0
S10,8.0,78.0,78.0,82.0,66.0,66,668.0,square4,j,0.3263,3,S,10.0
S10,9.0,69.0,76.0,77.0,65.0,76,744.0,square2,i,0.0134,1,S,10.0
S10,10.0,72.0,78.0,72.0,75.0,72,816.0,square3,f,0.0927,2,S,10.0
S10,11.0,71.0,76.0,78.0,66.0,76,892.0,square2,i,0.2649,1,S,10.0
S10,12.0,73.0,83.0,79.0,69.0,83,975.0,square2,i,0.1276,1,S,10.0
S10,13.0,68.0,77.0,65.0,65.0,77,1052.0,square2,i,0.1156,1,S,10.0
S10,14.0,69.0,84.0,79.0,65.0,84,1136.0,square2,i,0.0046,1,S,10.0
S10,15.0,72.0,84.0,70.0,71.0,84,1220.0,square2,i,0.047,1,S,10.0
S10,16.0,79.0,80.0,82.0,67.0,79,1299.0,square1,r,0.0006,0,S,10.0
S10,17.0,69.0,83.0,75.0,70.0,83,1382.0,square2,i,0.0005,1,S,10.0
S10,18.0,69.0,75.0,69.0,68.0,68,1450.0,square4,j,0.0401,3,S,10.0
S10,19.0,70.0,83.0,73.0,66.0,83,1533.0,square2,i,0.0598,1,S,10.0
S10,20.0,69.0,83.0,75.0,66.0,83,1616.0,square2,i,0.0451,1,S,10.0
S10,21.0,77.0,70.0,75.0,70.0,70,1686.0,square2,i,0.0963,1,S,10.0
S10,22.0,73.0,77.0,81.0,69.0,77,1763.0,square2,i,0.1113,1,S,10.0
S10,23.0,73.0,78.0,70.0,65.0,78,1841.0,square2,i,0.2436,1,S,10.0
S10,24.0,70.0,80.0,75.0,66.0,80,1921.0,square2,i,0.3331,1,S,10.0
S10,25.0,70.0,80.0,73.0,72.0,80,2001.0,square2,i,0.2277,1,S,10.0
S10,26.0,73.0,75.0,73.0,75.0,75,2076.0,square2,i,0.0896,1,S,10.0
S10,27.0,77.0,81.0,83.0,66.0,81,2157.0,square2,i,0.2939,1,S,10.0
S10,28.0,73.0,79.0,79.0,73.0,79,2236.0,square2,i,0.1243,1,S,10.0
S10,29.0,73.0,79.0,72.0,69.0,79,2315.0,square2,i,0.2614,1,S,10.0
S10,30.0,71.0,85.0,79.0,69.0,85,2400.0,square2,i,0.2093,1,S,10.0
S10,31.0,71.0,85.0,83.0,66.0,85,2485.0,square2,i,0.2262,1,S,10.0
S10,32.0,78.0,79.0,77.0,65.0,79,2564.0,square2,i,0.1633,1,S,10.0
S10,33.0,83.0,79.0,72.0,68.0,79,2643.0,square2,i,0.0489,1,S,10.0
S10,34.0,68.0,74.0,79.0,72.0,74,2717.0,square2,i,0.0654,1,S,10.0
S10,35.0,70.0,83.0,79.0,67.0,83,2800.0,square2,i,0.1625,1,S,10.0
S10,36.0,67.0,76.0,75.0,72.0,76,2876.0,square2,i,0.0128,1,S,10.0
S10,37.0,76.0,82.0,79.0,60.0,82,2958.0,square2,i,0.0047,1,S,10.0
S10,38.0,72.0,75.0,69.0,68.0,75,3033.0,square2,i,0.111,1,S,10.0
S10,39.0,73.0,78.0,76.0,70.0,78,3111.0,square2,i,0.1013,1,S,10.0
S10,40.0,76.0,77.0,66.0,60.0,77,3188.0,square2,i,0.0808,1,S,10.0
S10,41.0,74.0,83.0,73.0,67.0,83,3271.0,square2,i,0.0786,1,S,10.0
S10,42.0,72.0,69.0,80.0,63.0,69,3340.0,square2,i,0.0005,1,S,10.0
S10,43.0,69.0,74.0,72.0,68.0,74,3414.0,square2,i,0.0006,1,S,10.0
S10,44.0,67.0,76.0,70.0,65.0,76,3490.0,square2,i,0.025,1,S,10.0
S10,45.0,76.0,81.0,74.0,72.0,81,3571.0,square2,i,0.077,1,S,10.0
S10,46.0,76.0,79.0,76.0,66.0,66,3637.0,square4,j,0.1932,3,S,10.0
S10,47.0,67.0,81.0,84.0,60.0,81,3718.0,square2,i,0.0951,1,S,10.0
S10,48.0,73.0,83.0,75.0,66.0,83,3801.0,square2,i,0.1422,1,S,10.0
S10,49.0,66.0,77.0,74.0,71.0,77,3878.0,square2,i,0.06,1,S,10.0
S5,0.0,90.0,70.0,79.0,84.0,70,70.0,square2,r,0.4893,1,S,5.0
S5,1.0,92.0,77.0,83.0,81.0,83,153.0,square3,j,0.042,2,S,5.0
S5,2.0,83.0,72.0,81.0,76.0,83,236.0,square1,f,0.1774,0,S,5.0
S5,3.0,87.0,72.0,79.0,81.0,87,323.0,square1,f,0.1106,0,S,5.0
S5,4.0,86.0,81.0,78.0,72.0,78,401.0,square3,j,0.1103,2,S,5.0
S5,5.0,89.0,70.0,79.0,83.0,83,484.0,square4,i,0.4113,3,S,5.0
S5,6.0,86.0,69.0,81.0,81.0,81,565.0,square4,i,0.0443,3,S,5.0
S5,7.0,82.0,72.0,86.0,80.0,82,647.0,square1,f,0.1257,0,S,5.0
S5,8.0,84.0,67.0,80.0,77.0,84,731.0,square1,f,0.166,0,S,5.0
S5,9.0,92.0,80.0,86.0,84.0,84,815.0,square4,i,0.1139,3,S,5.0
S5,10.0,82.0,71.0,80.0,80.0,82,897.0,square1,f,0.065,0,S,5.0
S5,11.0,80.0,75.0,79.0,75.0,75,972.0,square4,i,0.0775,3,S,5.0
S5,12.0,84.0,75.0,80.0,82.0,84,1056.0,square1,f,0.1315,0,S,5.0
S5,13.0,85.0,74.0,74.0,81.0,85,1141.0,square1,f,0.1106,0,S,5.0
S5,14.0,81.0,79.0,85.0,81.0,81,1222.0,square4,i,0.1099,3,S,5.0
S5,15.0,81.0,75.0,76.0,77.0,81,1303.0,square1,f,0.0943,0,S,5.0
S5,16.0,86.0,74.0,78.0,74.0,86,1389.0,square1,f,0.0604,0,S,5.0
S5,17.0,81.0,77.0,81.0,77.0,81,1470.0,square1,f,0.1443,0,S,5.0
S5,18.0,87.0,70.0,84.0,82.0,87,1557.0,square1,f,0.0006,0,S,5.0
S5,19.0,84.0,76.0,83.0,76.0,76,1633.0,square2,r,0.0598,1,S,5.0
S5,20.0,79.0,78.0,82.0,76.0,76,1709.0,square4,i,0.0226,3,S,5.0
S5,21.0,86.0,68.0,80.0,72.0,86,1795.0,square1,f,0.094,0,S,5.0
S5,22.0,93.0,80.0,85.0,84.0,93,1888.0,square1,f,0.144,0,S,5.0
S5,23.0,87.0,73.0,76.0,70.0,87,1975.0,square1,f,0.1123,0,S,5.0
S5,24.0,85.0,69.0,81.0,78.0,85,2060.0,square1,f,0.0433,0,S,5.0
S5,25.0,89.0,77.0,77.0,76.0,89,2149.0,square1,f,0.0815,0,S,5.0
S5,26.0,84.0,71.0,81.0,75.0,84,2233.0,square1,f,0.1611,0,S,5.0
S5,27.0,84.0,75.0,82.0,71.0,84,2317.0,square1,f,0.1449,0,S,5.0
S5,28.0,83.0,72.0,82.0,78.0,83,2400.0,square1,f,0.1313,0,S,5.0
S5,29.0,91.0,67.0,79.0,74.0,91,2491.0,square1,f,0.0005,0,S,5.0
S5,30.0,82.0,69.0,81.0,77.0,82,2573.0,square1,f,0.1588,0,S,5.0
S5,31.0,82.0,72.0,80.0,78.0,82,2655.0,square1,f,0.1104,0,S,5.0
S5,32.0,83.0,73.0,91.0,80.0,83,2738.0,square1,f,0.0598,0,S,5.0
S5,33.0,83.0,68.0,85.0,78.0,83,2821.0,square1,f,0.0422,0,S,5.0
S5,34.0,89.0,79.0,83.0,77.0,89,2910.0,square1,f,0.1451,0,S,5.0
S5,35.0,88.0,72.0,79.0,80.0,88,2998.0,square1,f,0.1614,0,S,5.0
S5,36.0,90.0,74.0,84.0,76.0,76,3074.0,square4,i,0.0732,3,S,5.0
S5,37.0,85.0,75.0,80.0,82.0,85,3159.0,square1,f,0.0782,0,S,5.0
S5,38.0,78.0,74.0,85.0,79.0,85,3244.0,square3,j,0.113,2,S,5.0
S5,39.0,87.0,73.0,87.0,85.0,87,3331.0,square1,f,0.0248,0,S,5.0
S5,40.0,83.0,67.0,81.0,80.0,81,3412.0,square3,j,0.094,2,S,5.0
S5,41.0,82.0,69.0,88.0,80.0,82,3494.0,square1,f,0.0931,0,S,5.0
S5,42.0,85.0,78.0,91.0,80.0,91,3585.0,square3,j,0.0783,2,S,5.0
S5,43.0,89.0,74.0,78.0,74.0,78,3663.0,square3,j,0.0238,2,S,5.0
S5,44.0,90.0,74.0,77.0,85.0,90,3753.0,square1,f,0.0005,0,S,5.0
S5,45.0,89.0,68.0,81.0,78.0,81,3834.0,square3,j,0.0826,2,S,5.0
S5,46.0,86.0,70.0,86.0,68.0,86,3920.0,square1,f,0.0299,0,S,5.0
S5,47.0,90.0,77.0,85.0,84.0,90,4010.0,square1,f,0.0433,0,S,5.0
S5,48.0,76.0,66.0,82.0,79.0,76,4086.0,square1,f,0.0768,0,S,5.0
S5,49.0,84.0,73.0,82.0,75.0,82,4168.0,square3,j,0.0596,2,S,5.0
