block,Trial,square1,square2,square3,square4,currPoints,totalPoints,square,choiceKey.keys,choiceKey.rt,armNum,blockType,blockNum
prac,0.0,100.0,0.0,0.0,0.0,99999,0.0,invalid,,,-1,p,0.0
prac,1.0,100.0,0.0,0.0,0.0,0,0.0,square2,,,1,p,0.0
prac,2.0,100.0,0.0,0.0,0.0,100,100.0,square1,,,0,p,0.0
prac,3.0,100.0,0.0,0.0,0.0,0,100.0,square4,,,3,p,0.0
prac,4.0,100.0,0.0,0.0,0.0,0,100.0,square2,,,1,p,0.0
prac,5.0,100.0,0.0,0.0,0.0,0,100.0,square3,,,2,p,0.0
prac,6.0,100.0,0.0,0.0,0.0,100,200.0,square1,,,0,p,0.0
prac,7.0,100.0,0.0,0.0,0.0,100,300.0,square1,,,0,p,0.0
prac,8.0,100.0,0.0,0.0,0.0,100,400.0,square1,,,0,p,0.0
prac,9.0,100.0,0.0,0.0,0.0,100,500.0,square1,,,0,p,0.0
S1,0.0,72.0,58.0,70.0,66.0,72,72.0,square1,r,1.2748,0,S,1.0
S1,1.0,75.0,64.0,66.0,69.0,69,141.0,square4,i,0.2195,3,S,1.0
S1,2.0,75.0,62.0,62.0,79.0,62,203.0,square2,j,0.3189,1,S,1.0
S1,3.0,68.0,62.0,63.0,69.0,63,266.0,square3,f,0.1967,2,S,1.0
S1,4.0,82.0,63.0,64.0,73.0,82,348.0,square1,r,0.2542,0,S,1.0
S1,5.0,66.0,70.0,65.0,73.0,66,414.0,square1,r,0.2959,0,S,1.0
S1,6.0,73.0,65.0,62.0,65.0,65,479.0,square4,i,0.3416,3,S,1.0
S1,7.0,70.0,61.0,65.0,66.0,70,549.0,square1,r,0.3008,0,S,1.0
S1,8.0,78.0,63.0,67.0,68.0,63,612.0,square2,j,0.3045,1,S,1.0
S1,9.0,74.0,67.0,66.0,68.0,66,678.0,square3,f,0.0598,2,S,1.0
S1,10.0,73.0,59.0,68.0,68.0,73,751.0,square1,r,0.0029,0,S,1.0
S1,11.0,76.0,65.0,62.0,81.0,76,827.0,square1,r,0.2861,0,S,1.0
S1,12.0,77.0,66.0,69.0,63.0,77,904.0,square1,r,0.2804,0,S,1.0
S1,13.0,75.0,63.0,68.0,73.0,75,979.0,square1,r,0.1572,0,S,1.0
S1,14.0,67.0,60.0,67.0,69.0,67,1046.0,square1,r,0.2992,0,S,1.0
S1,15.0,70.0,63.0,69.0,73.0,69,1115.0,square3,f,0.2697,2,S,1.0
S1,16.0,69.0,61.0,69.0,69.0,69,1184.0,square1,r,0.1698,0,S,1.0
S1,17.0,73.0,68.0,67.0,73.0,73,1257.0,square4,i,0.6991,3,S,1.0
S1,18.0,70.0,58.0,73.0,66.0,66,1323.0,square4,i,0.2573,3,S,1.0
S1,19.0,75.0,58.0,62.0,68.0,75,1398.0,square1,r,0.3844,0,S,1.0
S1,20.0,76.0,58.0,72.0,67.0,76,1474.0,square1,r,0.1886,0,S,1.0
S1,21.0,69.0,66.0,66.0,67.0,69,1543.0,square1,r,0.286,0,S,1.0
S1,22.0,70.0,68.0,65.0,65.0,65,1608.0,square4,i,0.6288,3,S,1.0
S1,23.0,71.0,60.0,64.0,64.0,71,1679.0,square1,r,0.0683,0,S,1.0
S1,24.0,70.0,72.0,62.0,67.0,70,1749.0,square1,r,0.183,0,S,1.0
S1,25.0,68.0,60.0,70.0,65.0,68,1817.0,square1,r,0.1855,0,S,1.0
S1,26.0,76.0,64.0,72.0,69.0,76,1893.0,square1,r,0.0238,0,S,1.0
S1,27.0,71.0,56.0,70.0,65.0,71,1964.0,square1,r,0.3987,0,S,1.0
S1,28.0,67.0,67.0,71.0,76.0,67,2031.0,square2,j,0.3521,1,S,1.0
S1,29.0,78.0,64.0,64.0,74.0,78,2109.0,square1,r,0.1261,0,S,1.0
S1,30.0,74.0,63.0,65.0,71.0,74,2183.0,square1,r,0.3361,0,S,1.0
S1,31.0,78.0,58.0,69.0,69.0,78,2261.0,square1,r,0.2523,0,S,1.0
S1,32.0,71.0,67.0,68.0,60.0,71,2332.0,square1,r,0.3376,0,S,1.0
S1,33.0,68.0,63.0,65.0,73.0,73,2405.0,square4,i,0.2683,3,S,1.0
S1,34.0,71.0,62.0,74.0,73.0,71,2476.0,square1,r,0.2259,0,S,1.0
S1,35.0,75.0,59.0,67.0,77.0,75,2551.0,square1,r,0.169,0,S,1.0
S1,36.0,77.0,60.0,66.0,67.0,77,2628.0,square1,r,0.297,0,S,1.0
S1,37.0,69.0,60.0,69.0,75.0,75,2703.0,square4,i,0.0033,3,S,1.0
S1,38.0,77.0,64.0,62.0,70.0,77,2780.0,square1,r,0.2359,0,S,1.0
S1,39.0,72.0,66.0,69.0,65.0,72,2852.0,square1,r,0.1178,0,S,1.0
S1,40.0,69.0,63.0,66.0,69.0,69,2921.0,square1,r,0.2174,0,S,1.0
S1,41.0,72.0,62.0,70.0,70.0,70,2991.0,square4,i,0.2481,3,S,1.0
S1,42.0,78.0,60.0,63.0,62.0,78,3069.0,square1,r,0.119,0,S,1.0
S1,43.0,71.0,62.0,67.0,73.0,71,3140.0,square1,r,0.1085,0,S,1.0
S1,44.0,75.0,63.0,69.0,73.0,75,3215.0,square1,r,0.3611,0,S,1.0
S1,45.0,66.0,60.0,68.0,73.0,73,3288.0,square4,i,0.2878,3,S,1.0
S1,46.0,74.0,67.0,69.0,71.0,74,3362.0,square1,r,0.2522,0,S,1.0
S1,47.0,71.0,66.0,68.0,70.0,71,3433.0,square1,r,0.1903,0,S,1.0
S1,48.0,72.0,75.0,71.0,77.0,72,3505.0,square1,r,0.7888,0,S,1.0
S1,49.0,65.0,57.0,66.0,75.0,75,3580.0,square4,i,0.2351,3,S,1.0
S5,0.0,90.0,70.0,79.0,84.0,84,84.0,square4,r,0.7368,3,S,5.0
S5,1.0,92.0,77.0,83.0,81.0,77,161.0,square2,f,0.3007,1,S,5.0
S5,2.0,83.0,72.0,81.0,76.0,83,244.0,square1,j,0.2022,0,S,5.0
S5,3.0,87.0,72.0,79.0,81.0,79,323.0,square3,i,0.3324,2,S,5.0
S5,4.0,86.0,81.0,78.0,72.0,72,395.0,square4,r,0.0876,3,S,5.0
S5,5.0,89.0,70.0,79.0,83.0,89,484.0,square1,j,0.1855,0,S,5.0
S5,6.0,86.0,69.0,81.0,81.0,81,565.0,square4,r,0.1689,3,S,5.0
S5,7.0,82.0,72.0,86.0,80.0,82,647.0,square1,j,0.2027,0,S,5.0
S5,8.0,84.0,67.0,80.0,77.0,77,724.0,square4,r,0.2574,3,S,5.0
S5,9.0,92.0,80.0,86.0,84.0,92,816.0,square1,j,0.0795,0,S,5.0
S5,10.0,82.0,71.0,80.0,80.0,80,896.0,square4,r,0.1545,3,S,5.0
S5,11.0,80.0,75.0,79.0,75.0,80,976.0,square1,j,0.4607,0,S,5.0
S5,12.0,84.0,75.0,80.0,82.0,84,1060.0,square1,j,0.2878,0,S,5.0
S5,13.0,85.0,74.0,74.0,81.0,85,1145.0,square1,j,0.2367,0,S,5.0
S5,14.0,81.0,79.0,85.0,81.0,81,1226.0,square1,j,0.3888,0,S,5.0
S5,15.0,81.0,75.0,76.0,77.0,81,1307.0,square1,j,0.1083,0,S,5.0
S5,16.0,86.0,74.0,78.0,74.0,86,1393.0,square1,j,0.1088,0,S,5.0
S5,17.0,81.0,77.0,81.0,77.0,81,1474.0,square1,j,0.1006,0,S,5.0
S5,18.0,87.0,70.0,84.0,82.0,87,1561.0,square1,j,0.0515,0,S,5.0
S5,19.0,84.0,76.0,83.0,76.0,84,1645.0,square1,j,0.0671,0,S,5.0
S5,20.0,79.0,78.0,82.0,76.0,79,1724.0,square1,j,0.2528,0,S,5.0
S5,21.0,86.0,68.0,80.0,72.0,86,1810.0,square1,j,0.4999,0,S,5.0
S5,22.0,93.0,80.0,85.0,84.0,84,1894.0,square4,r,0.1913,3,S,5.0
S5,23.0,87.0,73.0,76.0,70.0,87,1981.0,square1,j,0.0024,0,S,5.0
S5,24.0,85.0,69.0,81.0,78.0,85,2066.0,square1,j,0.2696,0,S,5.0
S5,25.0,89.0,77.0,77.0,76.0,89,2155.0,square1,j,0.1761,0,S,5.0
S5,26.0,84.0,71.0,81.0,75.0,84,2239.0,square1,j,0.0027,0,S,5.0
S5,27.0,84.0,75.0,82.0,71.0,84,2323.0,square1,j,0.2358,0,S,5.0
S5,28.0,83.0,72.0,82.0,78.0,83,2406.0,square1,j,0.2533,0,S,5.0
S5,29.0,91.0,67.0,79.0,74.0,91,2497.0,square1,j,1.6186,0,S,5.0
S5,30.0,82.0,69.0,81.0,77.0,82,2579.0,square1,j,0.2191,0,S,5.0
S5,31.0,82.0,72.0,80.0,78.0,82,2661.0,square1,j,0.4502,0,S,5.0
S5,32.0,83.0,73.0,91.0,80.0,83,2744.0,square1,j,0.8038,0,S,5.0
S5,33.0,83.0,68.0,85.0,78.0,83,2827.0,square1,j,0.1354,0,S,5.0
S5,34.0,89.0,79.0,83.0,77.0,89,2916.0,square1,j,0.0017,0,S,5.0
S5,35.0,88.0,72.0,79.0,80.0,80,2996.0,square4,r,0.2279,3,S,5.0
S5,36.0,90.0,74.0,84.0,76.0,90,3086.0,square1,j,0.1345,0,S,5.0
S5,37.0,85.0,75.0,80.0,82.0,85,3171.0,square1,j,0.2602,0,S,5.0
S5,38.0,78.0,74.0,85.0,79.0,78,3249.0,square1,j,0.2185,0,S,5.0
S5,39.0,87.0,73.0,87.0,85.0,87,3336.0,square1,j,0.3647,0,S,5.0
S5,40.0,83.0,67.0,81.0,80.0,83,3419.0,square1,j,0.2188,0,S,5.0
S5,41.0,82.0,69.0,88.0,80.0,82,3501.0,square1,j,0.2853,0,S,5.0
S5,42.0,85.0,78.0,91.0,80.0,85,3586.0,square1,j,0.5183,0,S,5.0
S5,43.0,89.0,74.0,78.0,74.0,89,3675.0,square1,j,0.2847,0,S,5.0
S5,44.0,90.0,74.0,77.0,85.0,90,3765.0,square1,j,0.3354,0,S,5.0
S5,45.0,89.0,68.0,81.0,78.0,89,3854.0,square1,j,0.2595,0,S,5.0
S5,46.0,86.0,70.0,86.0,68.0,86,3940.0,square1,j,0.0994,0,S,5.0
S5,47.0,90.0,77.0,85.0,84.0,90,4030.0,square1,j,0.668,0,S,5.0
S5,48.0,76.0,66.0,82.0,79.0,76,4106.0,square1,j,0.1856,0,S,5.0
S5,49.0,84.0,73.0,82.0,75.0,84,4190.0,square1,j,0.0024,0,S,5.0
S9,0.0,36.0,36.0,32.0,32.0,36,36.0,square1,f,1.0812,0,S,9.0
S9,1.0,40.0,29.0,36.0,24.0,36,72.0,square3,j,0.0413,2,S,9.0
S9,2.0,31.0,43.0,22.0,29.0,29,101.0,square4,i,0.0241,3,S,9.0
S9,3.0,41.0,33.0,28.0,27.0,33,134.0,square2,r,0.3525,1,S,9.0
S9,4.0,34.0,29.0,32.0,31.0,34,168.0,square1,f,0.0458,0,S,9.0
S9,5.0,41.0,32.0,22.0,29.0,22,190.0,square3,j,0.0671,2,S,9.0
S9,6.0,44.0,30.0,21.0,28.0,30,220.0,square2,r,0.0026,1,S,9.0
S9,7.0,39.0,37.0,26.0,24.0,24,244.0,square4,i,0.1257,3,S,9.0
S9,8.0,41.0,33.0,23.0,20.0,41,285.0,square1,f,0.3033,0,S,9.0
S9,9.0,30.0,35.0,24.0,27.0,30,315.0,square1,f,0.2538,0,S,9.0
S9,10.0,41.0,29.0,23.0,28.0,29,344.0,square2,r,0.1905,1,S,9.0
S9,11.0,37.0,38.0,22.0,33.0,33,377.0,square4,i,0.0546,3,S,9.0
S9,12.0,35.0,31.0,27.0,32.0,27,404.0,square3,j,0.4277,2,S,9.0
S9,13.0,38.0,37.0,30.0,29.0,38,442.0,square1,f,0.286,0,S,9.0
S9,14.0,36.0,38.0,30.0,37.0,36,478.0,square1,f,0.1664,0,S,9.0
S9,15.0,40.0,29.0,27.0,24.0,40,518.0,square1,f,0.0568,0,S,9.0
S9,16.0,33.0,37.0,29.0,28.0,33,551.0,square1,f,0.0985,0,S,9.0
S9,17.0,41.0,32.0,36.0,31.0,41,592.0,square1,f,0.0027,0,S,9.0
S9,18.0,39.0,26.0,16.0,35.0,39,631.0,square1,f,0.0835,0,S,9.0
S9,19.0,35.0,30.0,23.0,27.0,35,666.0,square1,f,0.2208,0,S,9.0
S9,20.0,39.0,34.0,23.0,29.0,39,705.0,square1,f,0.0492,0,S,9.0
S9,21.0,35.0,37.0,28.0,31.0,35,740.0,square1,f,0.1128,0,S,9.0
S9,22.0,37.0,30.0,23.0,38.0,37,777.0,square1,f,0.0556,0,S,9.0
S9,23.0,37.0,34.0,27.0,34.0,37,814.0,square1,f,0.3298,0,S,9.0
S9,24.0,31.0,34.0,26.0,27.0,31,845.0,square1,f,0.2473,0,S,9.0
S9,25.0,38.0,40.0,29.0,24.0,38,883.0,square1,f,0.0028,0,S,9.0
S9,26.0,43.0,31.0,21.0,24.0,43,926.0,square1,f,0.2714,0,S,9.0
S9,27.0,30.0,31.0,23.0,28.0,30,956.0,square1,f,0.0603,0,S,9.0
S9,28.0,44.0,32.0,31.0,32.0,44,1000.0,square1,f,0.0968,0,S,9.0
S9,29.0,36.0,38.0,22.0,22.0,36,1036.0,square1,f,0.1818,0,S,9.0
S9,30.0,41.0,30.0,26.0,29.0,41,1077.0,square1,f,0.1688,0,S,9.0
S9,31.0,39.0,37.0,30.0,32.0,39,1116.0,square1,f,0.1999,0,S,9.0
S9,32.0,35.0,39.0,28.0,31.0,35,1151.0,square1,f,0.0026,0,S,9.0
S9,33.0,37.0,39.0,29.0,32.0,37,1188.0,square1,f,0.1696,0,S,9.0
S9,34.0,46.0,33.0,21.0,25.0,46,1234.0,square1,f,0.025,0,S,9.0
S9,35.0,38.0,33.0,28.0,28.0,38,1272.0,square1,f,0.2064,0,S,9.0
S9,36.0,40.0,37.0,21.0,32.0,40,1312.0,square1,f,0.1858,0,S,9.0
S9,37.0,38.0,43.0,23.0,37.0,38,1350.0,square1,f,0.2125,0,S,9.0
S9,38.0,36.0,31.0,29.0,29.0,36,1386.0,square1,f,0.0523,0,S,9.0
S9,39.0,41.0,29.0,26.0,28.0,41,1427.0,square1,f,0.0689,0,S,9.0
S9,40.0,32.0,36.0,26.0,28.0,32,1459.0,square1,f,0.2024,0,S,9.0
S9,41.0,40.0,37.0,35.0,28.0,40,1499.0,square1,f,0.2198,0,S,9.0
S9,42.0,43.0,32.0,26.0,37.0,43,1542.0,square1,f,0.1811,0,S,9.0
S9,43.0,40.0,31.0,23.0,31.0,40,1582.0,square1,f,0.2013,0,S,9.0
S9,44.0,42.0,38.0,24.0,40.0,42,1624.0,square1,f,0.1883,0,S,9.0
S9,45.0,36.0,35.0,30.0,33.0,36,1660.0,square1,f,0.3017,0,S,9.0
S9,46.0,38.0,30.0,33.0,26.0,38,1698.0,square1,f,0.1343,0,S,9.0
S9,47.0,39.0,37.0,25.0,26.0,39,1737.0,square1,f,0.2078,0,S,9.0
S9,48.0,36.0,35.0,26.0,27.0,36,1773.0,square1,f,0.0024,0,S,9.0
S9,49.0,40.0,32.0,24.0,28.0,40,1813.0,square1,f,0.0025,0,S,9.0
S10,0.0,72.0,76.0,80.0,64.0,72,72.0,square1,j,0.5895,0,S,10.0
S10,1.0,76.0,75.0,74.0,65.0,76,148.0,square1,j,0.1808,0,S,10.0
S10,2.0,70.0,72.0,79.0,74.0,70,218.0,square1,j,0.023,0,S,10.0
S10,3.0,69.0,77.0,76.0,68.0,69,287.0,square1,j,0.1081,0,S,10.0
S10,4.0,72.0,79.0,77.0,70.0,72,359.0,square1,j,0.2537,0,S,10.0
S10,5.0,68.0,74.0,72.0,64.0,64,423.0,square4,f,0.3975,3,S,10.0
S10,6.0,70.0,77.0,72.0,62.0,72,495.0,square3,r,0.0241,2,S,10.0
S10,7.0,78.0,81.0,80.0,74.0,81,576.0,square2,i,0.1512,1,S,10.0
S10,8.0,78.0,78.0,82.0,66.0,78,654.0,square1,j,0.2821,0,S,10.0
S10,9.0,69.0,76.0,77.0,65.0,76,730.0,square2,i,0.1689,1,S,10.0
S10,10.0,72.0,78.0,72.0,75.0,78,808.0,square2,i,0.0032,1,S,10.0
S10,11.0,71.0,76.0,78.0,66.0,76,884.0,square2,i,0.3171,1,S,10.0
S10,12.0,73.0,83.0,79.0,69.0,83,967.0,square2,i,0.1356,1,S,10.0
S10,13.0,68.0,77.0,65.0,65.0,77,1044.0,square2,i,0.0027,1,S,10.0
S10,14.0,69.0,84.0,79.0,65.0,84,1128.0,square2,i,0.2851,1,S,10.0
S10,15.0,72.0,84.0,70.0,71.0,84,1212.0,square2,i,0.5323,1,S,10.0
S10,16.0,79.0,80.0,82.0,67.0,80,1292.0,square2,i,0.168,1,S,10.0
S10,17.0,69.0,83.0,75.0,70.0,83,1375.0,square2,i,0.373,1,S,10.0
S10,18.0,69.0,75.0,69.0,68.0,75,1450.0,square2,i,0.2356,1,S,10.0
S10,19.0,70.0,83.0,73.0,66.0,83,1533.0,square2,i,0.2373,1,S,10.0
S10,20.0,69.0,83.0,75.0,66.0,83,1616.0,square2,i,0.146,1,S,10.0
S10,21.0,77.0,70.0,75.0,70.0,70,1686.0,square2,i,0.6679,1,S,10.0
S10,22.0,73.0,77.0,81.0,69.0,77,1763.0,square2,i,0.118,1,S,10.0
S10,23.0,73.0,78.0,70.0,65.0,73,1836.0,square1,j,0.1695,0,S,10.0
S10,24.0,70.0,80.0,75.0,66.0,80,1916.0,square2,i,0.0814,1,S,10.0
S10,25.0,70.0,80.0,73.0,72.0,80,1996.0,square2,i,0.2474,1,S,10.0
S10,26.0,73.0,75.0,73.0,75.0,75,2071.0,square2,i,0.3812,1,S,10.0
S10,27.0,77.0,81.0,83.0,66.0,81,2152.0,square2,i,1.0965,1,S,10.0
S10,28.0,73.0,79.0,79.0,73.0,79,2231.0,square2,i,0.4368,1,S,10.0
S10,29.0,73.0,79.0,72.0,69.0,79,2310.0,square2,i,0.2679,1,S,10.0
S10,30.0,71.0,85.0,79.0,69.0,85,2395.0,square2,i,0.051,1,S,10.0
S10,31.0,71.0,85.0,83.0,66.0,85,2480.0,square2,i,0.1319,1,S,10.0
S10,32.0,78.0,79.0,77.0,65.0,79,2559.0,square2,i,0.0796,1,S,10.0
S10,33.0,83.0,79.0,72.0,68.0,79,2638.0,square2,i,0.0029,1,S,10.0
S10,34.0,68.0,74.0,79.0,72.0,74,2712.0,square2,i,0.1529,1,S,10.0
S10,35.0,70.0,83.0,79.0,67.0,83,2795.0,square2,i,0.1693,1,S,10.0
S10,36.0,67.0,76.0,75.0,72.0,76,2871.0,square2,i,0.0027,1,S,10.0
S10,37.0,76.0,82.0,79.0,60.0,82,2953.0,square2,i,0.1341,1,S,10.0
S10,38.0,72.0,75.0,69.0,68.0,75,3028.0,square2,i,0.1346,1,S,10.0
S10,39.0,73.0,78.0,76.0,70.0,78,3106.0,square2,i,0.1019,1,S,10.0
S10,40.0,76.0,77.0,66.0,60.0,77,3183.0,square2,i,0.018,1,S,10.0
S10,41.0,74.0,83.0,73.0,67.0,83,3266.0,square2,i,0.0856,1,S,10.0
S10,42.0,72.0,69.0,80.0,63.0,69,3335.0,square2,i,0.1638,1,S,10.0
S10,43.0,69.0,74.0,72.0,68.0,74,3409.0,square2,i,0.1304,1,S,10.0
S10,44.0,67.0,76.0,70.0,65.0,76,3485.0,square2,i,0.1177,1,S,10.0
S10,45.0,76.0,81.0,74.0,72.0,81,3566.0,square2,i,0.1026,1,S,10.0
S10,46.0,76.0,79.0,76.0,66.0,79,3645.0,square2,i,0.1291,1,S,10.0
S10,47.0,67.0,81.0,84.0,60.0,81,3726.0,square2,i,0.1605,1,S,10.0
S10,48.0,73.0,83.0,75.0,66.0,83,3809.0,square2,i,0.0123,1,S,10.0
S10,49.0,66.0,77.0,74.0,71.0,77,3886.0,square2,i,0.1945,1,S,10.0
S3,0.0,38.0,48.0,42.0,57.0,48,48.0,square2,r,0.5807,1,S,3.0
S3,1.0,29.0,43.0,51.0,57.0,57,105.0,square4,i,0.0032,3,S,3.0
S3,2.0,41.0,49.0,46.0,49.0,46,151.0,square3,j,0.1984,2,S,3.0
S3,3.0,44.0,50.0,45.0,52.0,44,195.0,square1,f,0.1473,0,S,3.0
S3,4.0,37.0,51.0,45.0,58.0,58,253.0,square4,i,0.4192,3,S,3.0
S3,5.0,47.0,43.0,42.0,49.0,43,296.0,square2,r,0.134,1,S,3.0
S3,6.0,44.0,53.0,51.0,58.0,51,347.0,square3,j,0.3522,2,S,3.0
S3,7.0,39.0,47.0,46.0,54.0,39,386.0,square1,f,0.399,0,S,3.0
S3,8.0,43.0,53.0,41.0,52.0,52,438.0,square4,i,0.0398,3,S,3.0
S3,9.0,42.0,46.0,41.0,53.0,41,479.0,square3,j,0.4018,2,S,3.0
S3,10.0,37.0,49.0,49.0,55.0,55,534.0,square4,i,0.2352,3,S,3.0
S3,11.0,40.0,47.0,36.0,59.0,59,593.0,square4,i,0.1014,3,S,3.0
S3,12.0,46.0,51.0,39.0,56.0,56,649.0,square4,i,0.1174,3,S,3.0
S3,13.0,39.0,48.0,45.0,57.0,57,706.0,square4,i,0.0685,3,S,3.0
S3,14.0,39.0,55.0,43.0,47.0,47,753.0,square4,i,0.0032,3,S,3.0
S3,15.0,46.0,46.0,47.0,52.0,52,805.0,square4,i,0.1184,3,S,3.0
S3,16.0,42.0,49.0,50.0,55.0,55,860.0,square4,i,0.1661,3,S,3.0
S3,17.0,45.0,45.0,56.0,47.0,47,907.0,square4,i,0.175,3,S,3.0
S3,18.0,46.0,43.0,45.0,50.0,50,957.0,square4,i,0.1021,3,S,3.0
S3,19.0,41.0,47.0,50.0,55.0,55,1012.0,square4,i,0.2454,3,S,3.0
S3,20.0,45.0,52.0,49.0,52.0,52,1064.0,square4,i,0.0582,3,S,3.0
S3,21.0,40.0,43.0,47.0,46.0,46,1110.0,square4,i,0.1487,3,S,3.0
S3,22.0,45.0,46.0,44.0,47.0,47,1157.0,square4,i,0.0119,3,S,3.0
S3,23.0,36.0,50.0,42.0,46.0,46,1203.0,square4,i,0.0836,3,S,3.0
S3,24.0,42.0,54.0,49.0,55.0,55,1258.0,square4,i,0.0833,3,S,3.0
S3,25.0,43.0,51.0,44.0,54.0,54,1312.0,square4,i,0.1524,3,S,3.0
S3,26.0,49.0,50.0,52.0,52.0,52,1364.0,square4,i,0.1495,3,S,3.0
S3,27.0,47.0,52.0,44.0,50.0,50,1414.0,square4,i,0.1357,3,S,3.0
S3,28.0,37.0,48.0,40.0,47.0,47,1461.0,square4,i,0.0959,3,S,3.0
S3,29.0,50.0,43.0,50.0,57.0,57,1518.0,square4,i,0.0027,3,S,3.0
S3,30.0,50.0,50.0,46.0,47.0,47,1565.0,square4,i,0.0031,3,S,3.0
S3,31.0,37.0,53.0,49.0,56.0,56,1621.0,square4,i,0.3703,3,S,3.0
S3,32.0,42.0,50.0,43.0,58.0,58,1679.0,square4,i,0.1188,3,S,3.0
S3,33.0,44.0,49.0,46.0,59.0,59,1738.0,square4,i,0.0118,3,S,3.0
S3,34.0,42.0,50.0,50.0,58.0,58,1796.0,square4,i,0.0884,3,S,3.0
S3,35.0,43.0,46.0,45.0,50.0,50,1846.0,square4,i,0.1586,3,S,3.0
S3,36.0,46.0,52.0,50.0,48.0,48,1894.0,square4,i,0.09,3,S,3.0
S3,37.0,48.0,50.0,49.0,52.0,52,1946.0,square4,i,0.0025,3,S,3.0
S3,38.0,39.0,43.0,50.0,55.0,55,2001.0,square4,i,0.0989,3,S,3.0
S3,39.0,50.0,53.0,46.0,57.0,57,2058.0,square4,i,0.0484,3,S,3.0
S3,40.0,41.0,46.0,48.0,55.0,55,2113.0,square4,i,0.0022,3,S,3.0
S3,41.0,49.0,49.0,40.0,56.0,56,2169.0,square4,i,0.0757,3,S,3.0
S3,42.0,47.0,49.0,43.0,48.0,48,2217.0,square4,i,0.087,3,S,3.0
S3,43.0,46.0,43.0,41.0,58.0,58,2275.0,square4,i,0.0238,3,S,3.0
S3,44.0,46.0,52.0,51.0,55.0,55,2330.0,square4,i,0.0831,3,S,3.0
S3,45.0,46.0,41.0,46.0,49.0,49,2379.0,square4,i,0.0831,3,S,3.0
S3,46.0,32.0,56.0,40.0,50.0,50,2429.0,square4,i,0.1938,3,S,3.0
S3,47.0,42.0,49.0,44.0,51.0,51,2480.0,square4,i,0.2025,3,S,3.0
S3,48.0,36.0,45.0,38.0,50.0,50,2530.0,square4,i,0.0104,3,S,3.0
S3,49.0,45.0,48.0,47.0,52.0,52,2582.0,square4,i,0.0031,3,S,3.0
S4,0.0,18.0,16.0,34.0,20.0,34,34.0,square3,i,0.5608,2,S,4.0
S4,1.0,33.0,26.0,26.0,23.0,23,57.0,square4,r,1.8681,3,S,4.0
S4,2.0,35.0,15.0,33.0,22.0,15,72.0,square2,f,0.054,1,S,4.0
S4,3.0,28.0,19.0,27.0,27.0,28,100.0,square1,j,0.3002,0,S,4.0
S4,4.0,27.0,16.0,25.0,28.0,25,125.0,square3,i,0.1193,2,S,4.0
S4,5.0,23.0,22.0,31.0,24.0,23,148.0,square1,j,0.1183,0,S,4.0
S4,6.0,25.0,20.0,34.0,23.0,34,182.0,square3,i,0.185,2,S,4.0
S4,7.0,21.0,22.0,30.0,21.0,21,203.0,square1,j,0.0121,0,S,4.0
S4,8.0,33.0,24.0,33.0,17.0,33,236.0,square3,i,0.1707,2,S,4.0
S4,9.0,24.0,18.0,31.0,28.0,24,260.0,square1,j,0.5438,0,S,4.0
S4,10.0,31.0,26.0,35.0,20.0,35,295.0,square3,i,0.0182,2,S,4.0
S4,11.0,25.0,15.0,31.0,25.0,31,326.0,square3,i,0.1181,2,S,4.0
S4,12.0,24.0,16.0,29.0,22.0,29,355.0,square3,i,0.0838,2,S,4.0
S4,13.0,28.0,23.0,25.0,17.0,25,380.0,square3,i,0.6669,2,S,4.0
S4,14.0,22.0,23.0,21.0,23.0,22,402.0,square1,j,0.3195,0,S,4.0
S4,15.0,25.0,19.0,28.0,25.0,19,421.0,square2,f,0.1016,1,S,4.0
S4,16.0,26.0,17.0,30.0,21.0,21,442.0,square4,r,0.3873,3,S,4.0
S4,17.0,22.0,21.0,29.0,22.0,29,471.0,square3,i,0.0102,2,S,4.0
S4,18.0,28.0,22.0,32.0,22.0,32,503.0,square3,i,0.1681,2,S,4.0
S4,19.0,26.0,19.0,31.0,26.0,31,534.0,square3,i,0.1206,2,S,4.0
S4,20.0,28.0,18.0,28.0,25.0,28,562.0,square3,i,0.0125,2,S,4.0
S4,21.0,33.0,26.0,21.0,29.0,21,583.0,square3,i,0.1522,2,S,4.0
S4,22.0,31.0,19.0,29.0,20.0,29,612.0,square3,i,0.1678,2,S,4.0
S4,23.0,27.0,21.0,36.0,26.0,36,648.0,square3,i,0.4059,2,S,4.0
S4,24.0,28.0,15.0,32.0,21.0,32,680.0,square3,i,0.0026,2,S,4.0
S4,25.0,27.0,18.0,28.0,25.0,28,708.0,square3,i,0.0237,2,S,4.0
S4,26.0,26.0,20.0,27.0,14.0,27,735.0,square3,i,0.1642,2,S,4.0
S4,27.0,28.0,19.0,36.0,18.0,36,771.0,square3,i,0.0244,2,S,4.0
S4,28.0,28.0,19.0,28.0,23.0,28,799.0,square1,j,0.3321,0,S,4.0
S4,29.0,25.0,22.0,29.0,23.0,29,828.0,square3,i,0.1301,2,S,4.0
S4,30.0,26.0,16.0,30.0,20.0,26,854.0,square1,j,0.3184,0,S,4.0
S4,31.0,23.0,25.0,26.0,30.0,26,880.0,square3,i,0.0682,2,S,4.0
S4,32.0,21.0,26.0,22.0,23.0,22,902.0,square3,i,0.2356,2,S,4.0
S4,33.0,25.0,22.0,24.0,17.0,24,926.0,square3,i,0.0298,2,S,4.0
S4,34.0,30.0,22.0,33.0,24.0,33,959.0,square3,i,0.2577,2,S,4.0
S4,35.0,23.0,21.0,35.0,26.0,35,994.0,square3,i,0.0646,2,S,4.0
S4,36.0,19.0,21.0,33.0,24.0,33,1027.0,square3,i,0.2522,2,S,4.0
S4,37.0,20.0,17.0,26.0,26.0,26,1053.0,square3,i,0.0026,2,S,4.0
S4,38.0,28.0,20.0,28.0,26.0,28,1081.0,square3,i,0.1385,2,S,4.0
S4,39.0,28.0,23.0,40.0,27.0,40,1121.0,square3,i,0.1849,2,S,4.0
S4,40.0,25.0,24.0,32.0,22.0,32,1153.0,square3,i,0.3355,2,S,4.0
S4,41.0,23.0,23.0,26.0,17.0,26,1179.0,square3,i,0.1812,2,S,4.0
S4,42.0,26.0,18.0,33.0,22.0,33,1212.0,square3,i,0.0949,2,S,4.0
S4,43.0,22.0,21.0,36.0,25.0,36,1248.0,square3,i,0.1201,2,S,4.0
S4,44.0,21.0,18.0,33.0,14.0,33,1281.0,square3,i,0.003,2,S,4.0
S4,45.0,29.0,19.0,30.0,29.0,30,1311.0,square3,i,0.0343,2,S,4.0
S4,46.0,21.0,16.0,22.0,23.0,22,1333.0,square3,i,0.1837,2,S,4.0
S4,47.0,22.0,18.0,28.0,22.0,28,1361.0,square3,i,0.0358,2,S,4.0
S4,48.0,33.0,21.0,32.0,26.0,32,1393.0,square3,i,0.0523,2,S,4.0
S4,49.0,23.0,17.0,20.0,21.0,20,1413.0,square3,i,0.0524,2,S,4.0
V8,0.0,49.0,55.0,64.0,74.0,49,49.0,square1,i,1.3494,0,V,8.0
V8,1.0,51.0,54.0,70.0,81.0,54,103.0,square2,j,0.3013,1,V,8.0
V8,2.0,46.0,62.0,70.0,77.0,70,173.0,square3,r,0.2818,2,V,8.0
V8,3.0,46.0,56.0,67.0,75.0,75,248.0,square4,f,0.1489,3,V,8.0
V8,4.0,50.0,59.0,67.0,83.0,59,307.0,square2,j,0.316,1,V,8.0
V8,5.0,51.0,54.0,65.0,78.0,51,358.0,square1,i,0.168,0,V,8.0
V8,6.0,45.0,57.0,66.0,80.0,80,438.0,square4,f,0.1704,3,V,8.0
V8,7.0,46.0,64.0,68.0,77.0,68,506.0,square3,r,0.0826,2,V,8.0
V8,8.0,50.0,57.0,66.0,73.0,73,579.0,square4,f,0.6777,3,V,8.0
V8,9.0,46.0,56.0,71.0,72.0,56,635.0,square2,j,0.1522,1,V,8.0
V8,10.0,56.0,58.0,67.0,75.0,56,691.0,square1,i,0.0688,0,V,8.0
V8,11.0,50.0,61.0,69.0,74.0,69,760.0,square3,r,0.4672,2,V,8.0
V8,12.0,59.0,59.0,69.0,77.0,77,837.0,square4,f,0.206,3,V,8.0
V8,13.0,50.0,56.0,72.0,77.0,72,909.0,square3,r,0.6014,2,V,8.0
V8,14.0,48.0,55.0,65.0,80.0,48,957.0,square1,i,0.083,0,V,8.0
V8,15.0,48.0,58.0,65.0,76.0,58,1015.0,square2,j,0.5153,1,V,8.0
V8,16.0,49.0,58.0,67.0,75.0,75,1090.0,square4,f,0.135,3,V,8.0
V8,17.0,51.0,56.0,68.0,76.0,68,1158.0,square3,r,0.6287,2,V,8.0
V8,18.0,52.0,63.0,69.0,80.0,63,1221.0,square2,j,0.1218,1,V,8.0
V8,19.0,54.0,54.0,71.0,79.0,79,1300.0,square4,f,0.5188,3,V,8.0
V8,20.0,48.0,53.0,62.0,77.0,48,1348.0,square1,i,0.136,0,V,8.0
V8,21.0,44.0,61.0,66.0,77.0,66,1414.0,square3,r,0.5836,2,V,8.0
V8,22.0,52.0,58.0,64.0,78.0,58,1472.0,square2,j,0.1828,1,V,8.0
V8,23.0,50.0,49.0,67.0,79.0,79,1551.0,square4,f,0.5331,3,V,8.0
V8,24.0,49.0,59.0,69.0,74.0,74,1625.0,square4,f,0.3189,3,V,8.0
V8,25.0,46.0,61.0,65.0,81.0,81,1706.0,square4,f,0.0027,3,V,8.0
V8,26.0,49.0,58.0,63.0,35.0,35,1741.0,square4,f,0.3476,3,V,8.0
V8,27.0,48.0,51.0,66.0,41.0,48,1789.0,square1,i,0.3523,0,V,8.0
V8,28.0,46.0,55.0,65.0,38.0,38,1827.0,square4,f,0.2715,3,V,8.0
V8,29.0,47.0,58.0,69.0,40.0,69,1896.0,square3,r,0.159,2,V,8.0
V8,30.0,42.0,55.0,67.0,43.0,43,1939.0,square4,f,0.1398,3,V,8.0
V8,31.0,49.0,56.0,64.0,36.0,56,1995.0,square2,j,0.5151,1,V,8.0
V8,32.0,49.0,55.0,69.0,38.0,38,2033.0,square4,f,0.0025,3,V,8.0
V8,33.0,44.0,52.0,65.0,48.0,44,2077.0,square1,i,0.0766,0,V,8.0
V8,34.0,44.0,57.0,70.0,45.0,70,2147.0,square3,r,0.0665,2,V,8.0
V8,35.0,44.0,54.0,68.0,38.0,38,2185.0,square4,f,0.1853,3,V,8.0
V8,36.0,45.0,56.0,64.0,40.0,56,2241.0,square2,j,0.06,1,V,8.0
V8,37.0,47.0,57.0,66.0,37.0,47,2288.0,square1,i,0.2671,0,V,8.0
V8,38.0,49.0,50.0,66.0,37.0,66,2354.0,square3,r,0.0692,2,V,8.0
V8,39.0,51.0,56.0,61.0,39.0,39,2393.0,square4,f,0.0024,3,V,8.0
V8,40.0,47.0,59.0,66.0,41.0,59,2452.0,square2,j,0.1727,1,V,8.0
V8,41.0,42.0,56.0,69.0,42.0,42,2494.0,square1,i,0.0027,0,V,8.0
V8,42.0,47.0,57.0,72.0,35.0,35,2529.0,square4,f,0.0448,3,V,8.0
V8,43.0,47.0,57.0,63.0,44.0,63,2592.0,square3,r,0.6556,2,V,8.0
V8,44.0,45.0,58.0,67.0,42.0,58,2650.0,square2,j,0.1601,1,V,8.0
V8,45.0,44.0,56.0,66.0,43.0,43,2693.0,square4,f,0.1853,3,V,8.0
V8,46.0,46.0,53.0,70.0,37.0,46,2739.0,square1,i,0.2516,0,V,8.0
V8,47.0,54.0,53.0,71.0,41.0,71,2810.0,square3,r,0.6695,2,V,8.0
V8,48.0,49.0,53.0,69.0,37.0,37,2847.0,square4,f,0.1187,3,V,8.0
V8,49.0,39.0,57.0,65.0,47.0,65,2912.0,square3,r,0.2399,2,V,8.0
V8,50.0,48.0,55.0,65.0,41.0,55,2967.0,square2,j,0.003,1,V,8.0
V8,51.0,45.0,61.0,68.0,43.0,43,3010.0,square4,f,0.6024,3,V,8.0
V8,52.0,53.0,52.0,68.0,37.0,37,3047.0,square4,f,0.1473,3,V,8.0
V8,53.0,47.0,55.0,66.0,46.0,66,3113.0,square3,r,0.0242,2,V,8.0
V8,54.0,49.0,53.0,61.0,39.0,49,3162.0,square1,i,0.3863,0,V,8.0
V8,55.0,53.0,70.0,55.0,72.0,70,3232.0,square2,j,0.0024,1,V,8.0
V8,56.0,57.0,63.0,48.0,73.0,48,3280.0,square3,r,0.1197,2,V,8.0
V8,57.0,53.0,71.0,45.0,80.0,80,3360.0,square4,f,0.2531,3,V,8.0
V8,58.0,57.0,69.0,52.0,73.0,69,3429.0,square2,j,0.2842,1,V,8.0
V8,59.0,58.0,67.0,54.0,73.0,73,3502.0,square4,f,0.1191,3,V,8.0
V8,60.0,55.0,66.0,47.0,76.0,55,3557.0,square1,i,0.1883,0,V,8.0
V8,61.0,56.0,65.0,54.0,72.0,54,3611.0,square3,r,0.2022,2,V,8.0
V8,62.0,56.0,65.0,49.0,75.0,65,3676.0,square2,j,0.2015,1,V,8.0
V8,63.0,61.0,65.0,44.0,78.0,78,3754.0,square4,f,0.0028,3,V,8.0
V8,64.0,54.0,66.0,48.0,75.0,48,3802.0,square3,r,0.4179,2,V,8.0
V8,65.0,59.0,65.0,46.0,79.0,79,3881.0,square4,f,0.0354,3,V,8.0
V8,66.0,51.0,62.0,46.0,73.0,46,3927.0,square3,r,0.0965,2,V,8.0
V8,67.0,60.0,70.0,45.0,76.0,76,4003.0,square4,f,0.3102,3,V,8.0
V8,68.0,63.0,64.0,47.0,73.0,47,4050.0,square3,r,0.021,2,V,8.0
V8,69.0,58.0,66.0,43.0,77.0,77,4127.0,square4,f,0.2068,3,V,8.0
V8,70.0,59.0,65.0,49.0,73.0,49,4176.0,square3,r,0.2887,2,V,8.0
V8,71.0,60.0,64.0,49.0,79.0,79,4255.0,square4,f,0.119,3,V,8.0
V8,72.0,96.0,68.0,78.0,67.0,67,4322.0,square4,f,0.3845,3,V,8.0
V8,73.0,96.0,68.0,79.0,64.0,64,4386.0,square4,f,0.1001,3,V,8.0
V8,74.0,92.0,67.0,81.0,62.0,62,4448.0,square4,f,0.3879,3,V,8.0
V8,75.0,96.0,72.0,83.0,62.0,62,4510.0,square4,f,0.4198,3,V,8.0
V8,76.0,94.0,70.0,77.0,57.0,94,4604.0,square1,i,0.0209,0,V,8.0
V8,77.0,91.0,68.0,81.0,59.0,91,4695.0,square1,i,0.4651,0,V,8.0
V8,78.0,90.0,73.0,80.0,63.0,90,4785.0,square1,i,0.2167,0,V,8.0
V8,79.0,90.0,73.0,83.0,61.0,90,4875.0,square1,i,0.2056,0,V,8.0
V8,80.0,95.0,75.0,81.0,66.0,95,4970.0,square1,i,0.1688,0,V,8.0
V8,81.0,92.0,72.0,81.0,57.0,92,5062.0,square1,i,0.2529,0,V,8.0
V8,82.0,91.0,71.0,80.0,61.0,91,5153.0,square1,i,0.1344,0,V,8.0
V8,83.0,90.0,66.0,83.0,62.0,90,5243.0,square1,i,0.1858,0,V,8.0
V8,84.0,93.0,67.0,87.0,65.0,93,5336.0,square1,i,0.2864,0,V,8.0
V8,85.0,85.0,70.0,80.0,62.0,85,5421.0,square1,i,0.0863,0,V,8.0
V8,86.0,84.0,72.0,85.0,62.0,84,5505.0,square1,i,0.3148,0,V,8.0
V8,87.0,91.0,68.0,82.0,65.0,68,5573.0,square2,j,0.3801,1,V,8.0
V8,88.0,93.0,67.0,83.0,61.0,61,5634.0,square4,f,0.0852,3,V,8.0
V8,89.0,95.0,68.0,78.0,66.0,78,5712.0,square3,r,0.6234,2,V,8.0
V8,90.0,91.0,73.0,80.0,60.0,91,5803.0,square1,i,0.335,0,V,8.0
V8,91.0,93.0,68.0,81.0,64.0,93,5896.0,square1,i,0.263,0,V,8.0
V8,92.0,90.0,75.0,82.0,67.0,90,5986.0,square1,i,0.1024,0,V,8.0
V8,93.0,92.0,70.0,82.0,66.0,92,6078.0,square1,i,0.051,0,V,8.0
V8,94.0,90.0,71.0,78.0,63.0,90,6168.0,square1,i,0.0471,0,V,8.0
V8,95.0,88.0,65.0,78.0,63.0,88,6256.0,square1,i,0.0026,0,V,8.0
V8,96.0,89.0,72.0,85.0,62.0,89,6345.0,square1,i,0.0516,0,V,8.0
V8,97.0,92.0,72.0,77.0,67.0,92,6437.0,square1,i,0.1326,0,V,8.0
V8,98.0,86.0,63.0,82.0,62.0,86,6523.0,square1,i,0.0684,0,V,8.0
V8,99.0,90.0,66.0,75.0,61.0,90,6613.0,square1,i,0.0159,0,V,8.0
V5,0.0,46.0,21.0,37.0,28.0,37,37.0,square3,i,0.4442,2,V,5.0
V5,1.0,43.0,27.0,36.0,31.0,31,68.0,square4,r,0.4024,3,V,5.0
V5,2.0,50.0,18.0,43.0,32.0,18,86.0,square2,f,0.101,1,V,5.0
V5,3.0,53.0,23.0,36.0,34.0,53,139.0,square1,j,0.3342,0,V,5.0
V5,4.0,52.0,19.0,38.0,34.0,38,177.0,square3,i,0.0743,2,V,5.0
V5,5.0,50.0,22.0,41.0,29.0,50,227.0,square1,j,0.0972,0,V,5.0
V5,6.0,52.0,19.0,40.0,33.0,33,260.0,square4,r,0.0024,3,V,5.0
V5,7.0,48.0,24.0,36.0,27.0,48,308.0,square1,j,0.0033,0,V,5.0
V5,8.0,50.0,24.0,35.0,33.0,35,343.0,square3,i,0.5555,2,V,5.0
V5,9.0,48.0,25.0,39.0,34.0,48,391.0,square1,j,0.0865,0,V,5.0
V5,10.0,52.0,19.0,32.0,34.0,19,410.0,square2,f,0.1181,1,V,5.0
V5,11.0,48.0,22.0,32.0,32.0,48,458.0,square1,j,0.0028,0,V,5.0
V5,12.0,47.0,17.0,43.0,29.0,47,505.0,square1,j,0.1206,0,V,5.0
V5,13.0,46.0,21.0,42.0,29.0,46,551.0,square1,j,0.0251,0,V,5.0
V5,14.0,47.0,28.0,42.0,28.0,47,598.0,square1,j,0.018,0,V,5.0
V5,15.0,50.0,29.0,38.0,36.0,38,636.0,square3,i,0.1024,2,V,5.0
V5,16.0,49.0,24.0,36.0,34.0,34,670.0,square4,r,0.0955,3,V,5.0
V5,17.0,50.0,20.0,38.0,35.0,20,690.0,square2,f,0.0687,1,V,5.0
V5,18.0,49.0,22.0,46.0,29.0,49,739.0,square1,j,0.0683,0,V,5.0
V5,19.0,46.0,23.0,40.0,31.0,46,785.0,square1,j,0.2751,0,V,5.0
V5,20.0,51.0,22.0,41.0,28.0,28,813.0,square4,r,0.2358,3,V,5.0
V5,21.0,51.0,26.0,36.0,31.0,36,849.0,square3,i,0.1828,2,V,5.0
V5,22.0,47.0,18.0,41.0,28.0,18,867.0,square2,f,0.0239,1,V,5.0
V5,23.0,52.0,20.0,36.0,29.0,52,919.0,square1,j,0.0027,0,V,5.0
V5,24.0,51.0,21.0,41.0,34.0,51,970.0,square1,j,0.0722,0,V,5.0
V5,25.0,50.0,20.0,41.0,27.0,50,1020.0,square1,j,0.1421,0,V,5.0
V5,26.0,49.0,29.0,37.0,28.0,49,1069.0,square1,j,0.1809,0,V,5.0
V5,27.0,10.0,13.0,42.0,32.0,10,1079.0,square1,j,0.0213,0,V,5.0
V5,28.0,9.0,19.0,40.0,27.0,40,1119.0,square3,i,0.2693,2,V,5.0
V5,29.0,17.0,17.0,38.0,29.0,17,1136.0,square1,j,0.1662,0,V,5.0
V5,30.0,8.0,18.0,36.0,29.0,36,1172.0,square3,i,0.1173,2,V,5.0
V5,31.0,16.0,24.0,34.0,29.0,34,1206.0,square3,i,0.1391,2,V,5.0
V5,32.0,9.0,17.0,35.0,31.0,35,1241.0,square3,i,0.1122,2,V,5.0
V5,33.0,11.0,19.0,36.0,28.0,19,1260.0,square2,f,0.1882,1,V,5.0
V5,34.0,10.0,19.0,38.0,28.0,28,1288.0,square4,r,0.054,3,V,5.0
V5,35.0,5.0,23.0,40.0,34.0,40,1328.0,square3,i,0.0366,2,V,5.0
V5,36.0,17.0,20.0,36.0,31.0,36,1364.0,square3,i,0.1524,2,V,5.0
V5,37.0,12.0,13.0,36.0,30.0,36,1400.0,square3,i,0.025,2,V,5.0
V5,38.0,14.0,24.0,35.0,27.0,35,1435.0,square3,i,0.1851,2,V,5.0
V5,39.0,13.0,20.0,39.0,32.0,39,1474.0,square3,i,0.4682,2,V,5.0
V5,40.0,9.0,15.0,37.0,24.0,37,1511.0,square3,i,0.2789,2,V,5.0
V5,41.0,9.0,14.0,38.0,31.0,38,1549.0,square3,i,0.1175,2,V,5.0
V5,42.0,14.0,17.0,43.0,31.0,43,1592.0,square3,i,0.4648,2,V,5.0
V5,43.0,10.0,18.0,39.0,23.0,39,1631.0,square3,i,0.048,2,V,5.0
V5,44.0,10.0,20.0,33.0,32.0,32,1663.0,square4,r,0.0531,3,V,5.0
V5,45.0,16.0,17.0,37.0,29.0,17,1680.0,square2,f,0.1523,1,V,5.0
V5,46.0,9.0,22.0,37.0,25.0,37,1717.0,square3,i,0.0021,2,V,5.0
V5,47.0,10.0,22.0,35.0,26.0,35,1752.0,square3,i,0.1851,2,V,5.0
V5,48.0,11.0,16.0,39.0,23.0,39,1791.0,square3,i,0.7677,2,V,5.0
V5,49.0,13.0,16.0,33.0,27.0,33,1824.0,square3,i,0.0797,2,V,5.0
V5,50.0,12.0,16.0,39.0,24.0,39,1863.0,square3,i,0.349,2,V,5.0
V5,51.0,10.0,21.0,43.0,28.0,28,1891.0,square4,r,0.1644,3,V,5.0
V5,52.0,8.0,15.0,36.0,28.0,36,1927.0,square3,i,0.1868,2,V,5.0
V5,53.0,38.0,20.0,31.0,54.0,31,1958.0,square3,i,0.035,2,V,5.0
V5,54.0,39.0,20.0,35.0,51.0,35,1993.0,square3,i,0.0644,2,V,5.0
V5,55.0,41.0,21.0,27.0,50.0,27,2020.0,square3,i,0.0675,2,V,5.0
V5,56.0,39.0,23.0,28.0,49.0,23,2043.0,square2,f,0.0526,1,V,5.0
V5,57.0,36.0,28.0,29.0,59.0,59,2102.0,square4,r,0.0699,3,V,5.0
V5,58.0,38.0,22.0,28.0,49.0,49,2151.0,square4,r,0.002,3,V,5.0
V5,59.0,44.0,23.0,30.0,51.0,51,2202.0,square4,r,0.1089,3,V,5.0
V5,60.0,43.0,21.0,31.0,48.0,48,2250.0,square4,r,0.086,3,V,5.0
V5,61.0,39.0,24.0,35.0,50.0,50,2300.0,square4,r,0.1368,3,V,5.0
V5,62.0,38.0,25.0,31.0,52.0,52,2352.0,square4,r,0.0452,3,V,5.0
V5,63.0,41.0,14.0,31.0,52.0,52,2404.0,square4,r,0.2649,3,V,5.0
V5,64.0,43.0,23.0,30.0,51.0,51,2455.0,square4,r,0.1154,3,V,5.0
V5,65.0,41.0,23.0,35.0,52.0,52,2507.0,square4,r,0.3396,3,V,5.0
V5,66.0,41.0,17.0,33.0,47.0,47,2554.0,square4,r,0.066,3,V,5.0
V5,67.0,44.0,23.0,32.0,49.0,49,2603.0,square4,r,0.3857,3,V,5.0
V5,68.0,44.0,24.0,31.0,44.0,24,2627.0,square2,f,0.2693,1,V,5.0
V5,69.0,43.0,28.0,27.0,48.0,43,2670.0,square1,j,0.1127,0,V,5.0
V5,70.0,38.0,22.0,26.0,50.0,26,2696.0,square3,i,0.5782,2,V,5.0
V5,71.0,41.0,29.0,26.0,53.0,53,2749.0,square4,r,0.0295,3,V,5.0
V5,72.0,40.0,20.0,28.0,51.0,51,2800.0,square4,r,0.3511,3,V,5.0
V5,73.0,59.0,44.0,51.0,35.0,35,2835.0,square4,r,0.0025,3,V,5.0
V5,74.0,60.0,38.0,55.0,43.0,38,2873.0,square2,f,0.5977,1,V,5.0
V5,75.0,63.0,45.0,50.0,37.0,37,2910.0,square4,r,0.1359,3,V,5.0
V5,76.0,62.0,42.0,50.0,37.0,42,2952.0,square2,f,0.3011,1,V,5.0
V5,77.0,57.0,37.0,52.0,35.0,37,2989.0,square2,f,0.0372,1,V,5.0
V5,78.0,66.0,45.0,54.0,37.0,45,3034.0,square2,f,0.0126,1,V,5.0
V5,79.0,64.0,37.0,48.0,35.0,37,3071.0,square2,f,0.1517,1,V,5.0
V5,80.0,63.0,40.0,56.0,38.0,40,3111.0,square2,f,0.1191,1,V,5.0
V5,81.0,62.0,41.0,54.0,32.0,41,3152.0,square2,f,0.09,1,V,5.0
V5,82.0,58.0,41.0,59.0,39.0,41,3193.0,square2,f,0.0214,1,V,5.0
V5,83.0,66.0,46.0,54.0,35.0,46,3239.0,square2,f,0.3815,1,V,5.0
V5,84.0,67.0,44.0,52.0,33.0,44,3283.0,square2,f,0.003,1,V,5.0
V5,85.0,67.0,45.0,46.0,36.0,45,3328.0,square2,f,0.1502,1,V,5.0
V5,86.0,65.0,44.0,51.0,38.0,44,3372.0,square2,f,0.1336,1,V,5.0
V5,87.0,64.0,49.0,48.0,35.0,49,3421.0,square2,f,0.1107,1,V,5.0
V5,88.0,68.0,47.0,56.0,36.0,47,3468.0,square2,f,0.2773,1,V,5.0
V5,89.0,60.0,42.0,57.0,32.0,42,3510.0,square2,f,0.1776,1,V,5.0
V5,90.0,59.0,43.0,53.0,34.0,43,3553.0,square2,f,0.0755,1,V,5.0
V5,91.0,64.0,43.0,51.0,34.0,64,3617.0,square1,j,0.1063,0,V,5.0
V5,92.0,65.0,41.0,57.0,38.0,65,3682.0,square1,j,0.1421,0,V,5.0
V5,93.0,59.0,48.0,54.0,40.0,59,3741.0,square1,j,0.1421,0,V,5.0
V5,94.0,66.0,44.0,53.0,43.0,66,3807.0,square1,j,0.1089,0,V,5.0
V5,95.0,63.0,43.0,50.0,40.0,63,3870.0,square1,j,0.0334,0,V,5.0
V5,96.0,62.0,44.0,50.0,33.0,62,3932.0,square1,j,0.0443,0,V,5.0
V5,97.0,64.0,49.0,55.0,37.0,64,3996.0,square1,j,0.1171,0,V,5.0
V5,98.0,65.0,44.0,53.0,36.0,65,4061.0,square1,j,0.2017,0,V,5.0
V5,99.0,65.0,42.0,55.0,35.0,65,4126.0,square1,j,0.1789,0,V,5.0
V11,0.0,42.0,67.0,57.0,49.0,67,67.0,square2,r,0.5186,1,V,11.0
V11,1.0,42.0,71.0,60.0,53.0,42,109.0,square1,i,0.1043,0,V,11.0
V11,2.0,45.0,76.0,58.0,51.0,51,160.0,square4,j,0.1309,3,V,11.0
V11,3.0,44.0,65.0,60.0,49.0,60,220.0,square3,f,0.1311,2,V,11.0
V11,4.0,46.0,73.0,64.0,51.0,64,284.0,square3,f,0.1641,2,V,11.0
V11,5.0,47.0,67.0,58.0,54.0,58,342.0,square3,f,0.1437,2,V,11.0
V11,6.0,43.0,68.0,58.0,50.0,58,400.0,square3,f,0.5147,2,V,11.0
V11,7.0,42.0,67.0,60.0,58.0,60,460.0,square3,f,0.2332,2,V,11.0
V11,8.0,44.0,67.0,60.0,53.0,60,520.0,square3,f,0.1051,2,V,11.0
V11,9.0,44.0,67.0,59.0,54.0,67,587.0,square2,r,0.276,1,V,11.0
V11,10.0,49.0,76.0,57.0,52.0,99999,587.0,invalid,,,-1,V,11.0
V11,11.0,45.0,71.0,58.0,51.0,45,632.0,square1,i,0.5303,0,V,11.0
V11,12.0,45.0,72.0,58.0,56.0,56,688.0,square4,j,0.2069,3,V,11.0
V11,13.0,49.0,67.0,63.0,54.0,63,751.0,square3,f,0.1144,2,V,11.0
V11,14.0,50.0,75.0,57.0,48.0,75,826.0,square2,r,0.4604,1,V,11.0
V11,15.0,40.0,71.0,61.0,51.0,71,897.0,square2,r,0.1049,1,V,11.0
V11,16.0,47.0,72.0,56.0,54.0,72,969.0,square2,r,0.131,1,V,11.0
V11,17.0,40.0,71.0,61.0,46.0,71,1040.0,square2,r,0.1653,1,V,11.0
V11,18.0,44.0,69.0,59.0,51.0,69,1109.0,square2,r,0.2313,1,V,11.0
V11,19.0,44.0,73.0,59.0,47.0,73,1182.0,square2,r,0.4055,1,V,11.0
V11,20.0,47.0,69.0,64.0,54.0,69,1251.0,square2,r,0.3799,1,V,11.0
V11,21.0,78.0,49.0,70.0,65.0,78,1329.0,square1,i,0.1769,0,V,11.0
V11,22.0,78.0,56.0,73.0,62.0,78,1407.0,square1,i,0.1338,0,V,11.0
V11,23.0,84.0,54.0,71.0,65.0,84,1491.0,square1,i,0.2982,0,V,11.0
V11,24.0,80.0,55.0,72.0,67.0,80,1571.0,square1,i,0.1963,0,V,11.0
V11,25.0,80.0,55.0,75.0,63.0,80,1651.0,square1,i,0.6126,0,V,11.0
V11,26.0,80.0,56.0,67.0,62.0,80,1731.0,square1,i,0.1993,0,V,11.0
V11,27.0,80.0,51.0,68.0,62.0,80,1811.0,square1,i,0.2102,0,V,11.0
V11,28.0,79.0,57.0,67.0,57.0,79,1890.0,square1,i,0.663,0,V,11.0
V11,29.0,79.0,50.0,67.0,62.0,62,1952.0,square4,j,0.2651,3,V,11.0
V11,30.0,88.0,54.0,74.0,61.0,88,2040.0,square1,i,0.1054,0,V,11.0
V11,31.0,81.0,51.0,75.0,63.0,81,2121.0,square1,i,0.0638,0,V,11.0
V11,32.0,76.0,51.0,69.0,65.0,76,2197.0,square1,i,0.0025,0,V,11.0
V11,33.0,78.0,54.0,72.0,64.0,72,2269.0,square3,f,0.128,2,V,11.0
V11,34.0,77.0,53.0,71.0,62.0,53,2322.0,square2,r,0.0026,1,V,11.0
V11,35.0,74.0,59.0,75.0,62.0,74,2396.0,square1,i,0.0685,0,V,11.0
V11,36.0,79.0,50.0,72.0,62.0,79,2475.0,square1,i,0.1121,0,V,11.0
V11,37.0,74.0,54.0,68.0,62.0,74,2549.0,square1,i,0.0451,0,V,11.0
V11,38.0,80.0,57.0,65.0,58.0,80,2629.0,square1,i,0.0687,0,V,11.0
V11,39.0,73.0,52.0,75.0,66.0,73,2702.0,square1,i,0.1083,0,V,11.0
V11,40.0,82.0,57.0,71.0,57.0,82,2784.0,square1,i,0.2725,0,V,11.0
V11,41.0,78.0,53.0,73.0,64.0,78,2862.0,square1,i,0.177,0,V,11.0
V11,42.0,72.0,56.0,67.0,59.0,72,2934.0,square1,i,0.1655,0,V,11.0
V11,43.0,81.0,54.0,73.0,63.0,81,3015.0,square1,i,0.16,0,V,11.0
V11,44.0,76.0,54.0,75.0,59.0,76,3091.0,square1,i,0.1051,0,V,11.0
V11,45.0,79.0,59.0,71.0,64.0,79,3170.0,square1,i,0.0046,0,V,11.0
V11,46.0,80.0,55.0,67.0,57.0,80,3250.0,square1,i,0.1104,0,V,11.0
V11,47.0,84.0,53.0,75.0,56.0,84,3334.0,square1,i,0.0163,0,V,11.0
V11,48.0,83.0,57.0,71.0,60.0,83,3417.0,square1,i,0.1008,0,V,11.0
V11,49.0,79.0,52.0,71.0,60.0,79,3496.0,square1,i,0.1647,0,V,11.0
V11,50.0,76.0,50.0,69.0,60.0,60,3556.0,square4,j,0.1272,3,V,11.0
V11,51.0,79.0,54.0,72.0,57.0,79,3635.0,square1,i,0.0324,0,V,11.0
V11,52.0,80.0,54.0,72.0,64.0,72,3707.0,square3,f,0.3287,2,V,11.0
V11,53.0,35.0,50.0,55.0,69.0,50,3757.0,square2,r,0.1465,1,V,11.0
V11,54.0,45.0,48.0,55.0,73.0,45,3802.0,square1,i,0.1001,0,V,11.0
V11,55.0,43.0,53.0,58.0,70.0,43,3845.0,square1,i,0.0323,0,V,11.0
V11,56.0,40.0,46.0,60.0,62.0,40,3885.0,square1,i,0.0391,0,V,11.0
V11,57.0,44.0,46.0,53.0,71.0,71,3956.0,square4,j,0.1098,3,V,11.0
V11,58.0,44.0,52.0,55.0,68.0,55,4011.0,square3,f,0.1111,2,V,11.0
V11,59.0,44.0,44.0,57.0,66.0,44,4055.0,square2,r,0.3144,1,V,11.0
V11,60.0,40.0,46.0,57.0,62.0,62,4117.0,square4,j,0.0328,3,V,11.0
V11,61.0,42.0,52.0,58.0,62.0,62,4179.0,square4,j,0.0034,3,V,11.0
V11,62.0,40.0,49.0,56.0,71.0,71,4250.0,square4,j,0.1649,3,V,11.0
V11,63.0,40.0,54.0,60.0,66.0,66,4316.0,square4,j,0.0781,3,V,11.0
V11,64.0,41.0,43.0,51.0,66.0,66,4382.0,square4,j,0.0639,3,V,11.0
V11,65.0,39.0,48.0,59.0,66.0,66,4448.0,square4,j,0.0351,3,V,11.0
V11,66.0,40.0,48.0,59.0,69.0,69,4517.0,square4,j,0.1592,3,V,11.0
V11,67.0,46.0,45.0,58.0,69.0,69,4586.0,square4,j,0.1695,3,V,11.0
V11,68.0,41.0,50.0,56.0,69.0,56,4642.0,square3,f,0.1668,2,V,11.0
V11,69.0,48.0,49.0,57.0,71.0,49,4691.0,square2,r,0.1632,1,V,11.0
V11,70.0,41.0,47.0,58.0,65.0,65,4756.0,square4,j,0.1646,3,V,11.0
V11,71.0,37.0,46.0,58.0,60.0,60,4816.0,square4,j,0.0971,3,V,11.0
V11,72.0,41.0,47.0,54.0,65.0,54,4870.0,square3,f,0.2146,2,V,11.0
V11,73.0,42.0,47.0,60.0,67.0,42,4912.0,square1,i,0.1054,0,V,11.0
V11,74.0,43.0,49.0,57.0,64.0,49,4961.0,square2,r,0.1041,1,V,11.0
V11,75.0,38.0,46.0,57.0,66.0,66,5027.0,square4,j,0.041,3,V,11.0
V11,76.0,42.0,50.0,58.0,68.0,68,5095.0,square4,j,0.0352,3,V,11.0
V11,77.0,36.0,49.0,58.0,64.0,64,5159.0,square4,j,0.1991,3,V,11.0
V11,78.0,40.0,50.0,56.0,67.0,67,5226.0,square4,j,0.0082,3,V,11.0
V11,79.0,39.0,48.0,56.0,67.0,67,5293.0,square4,j,0.0445,3,V,11.0
V11,80.0,51.0,33.0,30.0,45.0,30,5323.0,square3,f,0.1061,2,V,11.0
V11,81.0,49.0,31.0,23.0,48.0,48,5371.0,square4,j,0.1076,3,V,11.0
V11,82.0,55.0,30.0,25.0,42.0,30,5401.0,square2,r,0.0328,1,V,11.0
V11,83.0,50.0,33.0,27.0,48.0,50,5451.0,square1,i,0.1566,0,V,11.0
V11,84.0,52.0,34.0,25.0,43.0,43,5494.0,square4,j,0.0948,3,V,11.0
V11,85.0,49.0,28.0,28.0,44.0,49,5543.0,square1,i,0.3284,0,V,11.0
V11,86.0,57.0,29.0,27.0,48.0,27,5570.0,square3,f,0.074,2,V,11.0
V11,87.0,49.0,29.0,21.0,38.0,29,5599.0,square2,r,0.0765,1,V,11.0
V11,88.0,55.0,32.0,29.0,46.0,46,5645.0,square4,j,0.0984,3,V,11.0
V11,89.0,50.0,28.0,23.0,43.0,50,5695.0,square1,i,0.1078,0,V,11.0
V11,90.0,54.0,34.0,32.0,41.0,54,5749.0,square1,i,0.1391,0,V,11.0
V11,91.0,50.0,34.0,26.0,44.0,50,5799.0,square1,i,0.0662,0,V,11.0
V11,92.0,51.0,31.0,27.0,50.0,51,5850.0,square1,i,0.0483,0,V,11.0
V11,93.0,49.0,38.0,28.0,42.0,49,5899.0,square1,i,0.1123,0,V,11.0
V11,94.0,50.0,29.0,25.0,46.0,50,5949.0,square1,i,0.0439,0,V,11.0
V11,95.0,51.0,36.0,22.0,40.0,40,5989.0,square4,j,0.1345,3,V,11.0
V11,96.0,52.0,34.0,32.0,45.0,52,6041.0,square1,i,0.0694,0,V,11.0
V11,97.0,53.0,27.0,32.0,44.0,32,6073.0,square3,f,0.3326,2,V,11.0
V11,98.0,60.0,31.0,25.0,48.0,60,6133.0,square1,i,0.216,0,V,11.0
V11,99.0,53.0,33.0,23.0,42.0,33,6166.0,square2,r,0.0965,1,V,11.0
