block,Trial,square1,square2,square3,square4,currPoints,totalPoints,square,choiceKey.keys,choiceKey.rt,armNum,blockType,blockNum
prac,0.0,100.0,0.0,0.0,0.0,100.0,100.0,square1,,,0,p,0.0
prac,1.0,100.0,0.0,0.0,0.0,100.0,200.0,square1,,,0,p,0.0
prac,2.0,100.0,0.0,0.0,0.0,100.0,300.0,square1,,,0,p,0.0
prac,3.0,100.0,0.0,0.0,0.0,100.0,400.0,square1,,,0,p,0.0
prac,4.0,100.0,0.0,0.0,0.0,100.0,500.0,square1,,,0,p,0.0
prac,5.0,100.0,0.0,0.0,0.0,100.0,600.0,square1,,,0,p,0.0
prac,6.0,100.0,0.0,0.0,0.0,100.0,700.0,square1,,,0,p,0.0
prac,7.0,100.0,0.0,0.0,0.0,100.0,800.0,square1,,,0,p,0.0
prac,8.0,100.0,0.0,0.0,0.0,100.0,900.0,square1,,,0,p,0.0
prac,9.0,100.0,0.0,0.0,0.0,100.0,1000.0,square1,,,0,p,0.0
NS8,0.0,61.0,62.0,34.0,32.0,62.0,62.0,square2,r,0.9584,1,N,8.0
NS8,1.0,57.0,56.0,38.0,27.0,56.0,118.0,square2,r,0.3279,1,N,8.0
NS8,2.0,66.0,55.0,42.0,28.0,66.0,184.0,square1,i,0.2495,0,N,8.0
NS8,3.0,67.0,51.0,37.0,28.0,67.0,251.0,square1,i,0.2654,0,N,8.0
NS8,4.0,65.0,53.0,38.0,32.0,65.0,316.0,square1,i,0.2196,0,N,8.0
NS8,5.0,67.0,52.0,43.0,33.0,33.0,349.0,square4,j,0.2121,3,N,8.0
NS8,6.0,56.0,47.0,41.0,36.0,41.0,390.0,square3,f,0.2324,2,N,8.0
NS8,7.0,58.0,46.0,37.0,31.0,58.0,448.0,square1,i,0.2191,0,N,8.0
NS8,8.0,60.0,58.0,36.0,35.0,58.0,506.0,square2,r,0.2438,1,N,8.0
NS8,9.0,60.0,66.0,41.0,39.0,39.0,545.0,square4,j,0.2123,3,N,8.0
NS8,10.0,60.0,60.0,36.0,33.0,36.0,581.0,square3,f,0.3754,2,N,8.0
NS8,11.0,53.0,63.0,32.0,35.0,63.0,644.0,square2,r,0.0655,1,N,8.0
NS8,12.0,51.0,60.0,32.0,29.0,60.0,704.0,square2,r,0.1033,1,N,8.0
NS8,13.0,53.0,65.0,30.0,32.0,65.0,769.0,square2,r,0.0465,1,N,8.0
NS8,14.0,56.0,69.0,25.0,33.0,69.0,838.0,square2,r,0.5791,1,N,8.0
NS8,15.0,57.0,71.0,29.0,35.0,71.0,909.0,square2,r,0.2285,1,N,8.0
NS8,16.0,55.0,64.0,31.0,33.0,64.0,973.0,square2,r,0.1388,1,N,8.0
NS8,17.0,48.0,65.0,29.0,32.0,65.0,1038.0,square2,r,0.1286,1,N,8.0
NS8,18.0,44.0,64.0,28.0,34.0,64.0,1102.0,square2,r,0.1791,1,N,8.0
NS8,19.0,46.0,60.0,26.0,33.0,60.0,1162.0,square2,r,0.187,1,N,8.0
NS8,20.0,41.0,58.0,29.0,35.0,58.0,1220.0,square2,r,0.1107,1,N,8.0
NS8,21.0,45.0,57.0,29.0,35.0,45.0,1265.0,square1,i,0.1457,0,N,8.0
NS8,22.0,47.0,53.0,32.0,32.0,53.0,1318.0,square2,r,0.1918,1,N,8.0
NS8,23.0,49.0,52.0,33.0,35.0,35.0,1353.0,square4,j,0.2267,3,N,8.0
NS8,24.0,56.0,53.0,30.0,37.0,53.0,1406.0,square2,r,0.1777,1,N,8.0
NS8,25.0,57.0,48.0,28.0,42.0,28.0,1434.0,square3,f,0.1125,2,N,8.0
NS8,26.0,52.0,48.0,33.0,43.0,48.0,1482.0,square2,r,0.0613,1,N,8.0
NS8,27.0,53.0,45.0,28.0,47.0,45.0,1527.0,square2,r,0.1815,1,N,8.0
NS8,28.0,50.0,43.0,27.0,41.0,50.0,1577.0,square1,i,0.084,0,N,8.0
NS8,29.0,53.0,52.0,29.0,43.0,53.0,1630.0,square1,i,0.0263,0,N,8.0
NS8,30.0,54.0,51.0,30.0,41.0,54.0,1684.0,square1,i,0.4368,0,N,8.0
NS8,31.0,50.0,50.0,31.0,42.0,50.0,1734.0,square1,i,0.1292,0,N,8.0
NS8,32.0,50.0,50.0,35.0,43.0,50.0,1784.0,square1,i,0.1958,0,N,8.0
NS8,33.0,46.0,48.0,39.0,41.0,46.0,1830.0,square1,i,0.1317,0,N,8.0
NS8,34.0,47.0,46.0,41.0,40.0,40.0,1870.0,square4,j,0.1607,3,N,8.0
NS8,35.0,57.0,45.0,36.0,37.0,36.0,1906.0,square3,f,0.0821,2,N,8.0
NS8,36.0,53.0,49.0,41.0,38.0,49.0,1955.0,square2,r,0.0866,1,N,8.0
NS8,37.0,57.0,50.0,41.0,39.0,50.0,2005.0,square2,r,0.0598,1,N,8.0
NS8,38.0,61.0,51.0,39.0,43.0,51.0,2056.0,square2,r,0.0773,1,N,8.0
NS8,39.0,59.0,54.0,41.0,36.0,54.0,2110.0,square2,r,0.1208,1,N,8.0
NS8,40.0,53.0,55.0,47.0,40.0,55.0,2165.0,square2,r,0.1773,1,N,8.0
NS8,41.0,53.0,55.0,43.0,39.0,55.0,2220.0,square2,r,0.111,1,N,8.0
NS8,42.0,59.0,55.0,45.0,40.0,55.0,2275.0,square2,r,0.1278,1,N,8.0
NS8,43.0,54.0,46.0,51.0,37.0,46.0,2321.0,square2,r,0.1102,1,N,8.0
NS8,44.0,56.0,44.0,50.0,35.0,56.0,2377.0,square1,i,0.0994,0,N,8.0
NS8,45.0,51.0,46.0,41.0,37.0,51.0,2428.0,square1,i,0.178,0,N,8.0
NS8,46.0,52.0,43.0,44.0,34.0,52.0,2480.0,square1,i,0.183,0,N,8.0
NS8,47.0,46.0,41.0,36.0,37.0,46.0,2526.0,square1,i,0.0874,0,N,8.0
NS8,48.0,47.0,46.0,39.0,37.0,46.0,2572.0,square2,r,0.1053,1,N,8.0
NS8,49.0,48.0,36.0,38.0,40.0,40.0,2612.0,square4,j,0.0963,3,N,8.0
NS8,50.0,51.0,37.0,36.0,46.0,36.0,2648.0,square3,f,0.1259,2,N,8.0
NS8,51.0,53.0,38.0,40.0,43.0,38.0,2686.0,square2,r,0.1105,1,N,8.0
NS8,52.0,47.0,32.0,37.0,44.0,47.0,2733.0,square1,i,0.0791,0,N,8.0
NS8,53.0,52.0,31.0,38.0,46.0,52.0,2785.0,square1,i,0.1167,0,N,8.0
NS8,54.0,44.0,34.0,40.0,45.0,44.0,2829.0,square1,i,0.1195,0,N,8.0
NS8,55.0,46.0,26.0,37.0,41.0,37.0,2866.0,square3,f,0.3475,2,N,8.0
NS8,56.0,42.0,29.0,36.0,40.0,40.0,2906.0,square4,j,0.0934,3,N,8.0
NS8,57.0,39.0,21.0,39.0,40.0,40.0,2946.0,square4,j,0.1617,3,N,8.0
NS8,58.0,42.0,18.0,39.0,40.0,18.0,2964.0,square2,r,0.2304,1,N,8.0
NS8,59.0,46.0,16.0,41.0,39.0,39.0,3003.0,square4,j,0.1279,3,N,8.0
NS8,60.0,45.0,20.0,40.0,39.0,45.0,3048.0,square1,i,0.1336,0,N,8.0
NS8,61.0,45.0,26.0,42.0,39.0,45.0,3093.0,square1,i,0.1778,0,N,8.0
NS8,62.0,46.0,21.0,45.0,37.0,46.0,3139.0,square1,i,0.1449,0,N,8.0
NS8,63.0,50.0,23.0,40.0,38.0,50.0,3189.0,square1,i,0.1346,0,N,8.0
NS8,64.0,46.0,24.0,41.0,33.0,46.0,3235.0,square1,i,0.2111,0,N,8.0
NS8,65.0,48.0,28.0,42.0,32.0,48.0,3283.0,square1,i,0.0958,0,N,8.0
NS8,66.0,47.0,20.0,40.0,35.0,47.0,3330.0,square1,i,0.1841,0,N,8.0
NS8,67.0,49.0,25.0,46.0,34.0,49.0,3379.0,square1,i,0.1957,0,N,8.0
NS8,68.0,47.0,24.0,45.0,33.0,47.0,3426.0,square1,i,0.2213,0,N,8.0
NS8,69.0,45.0,21.0,47.0,35.0,45.0,3471.0,square1,i,0.1383,0,N,8.0
NS8,70.0,44.0,21.0,47.0,37.0,44.0,3515.0,square1,i,0.1618,0,N,8.0
NS8,71.0,44.0,15.0,41.0,38.0,41.0,3556.0,square3,f,0.1808,2,N,8.0
NS8,72.0,47.0,19.0,49.0,40.0,19.0,3575.0,square2,r,0.3763,1,N,8.0
NS8,73.0,39.0,21.0,53.0,38.0,39.0,3614.0,square1,i,0.0701,0,N,8.0
NS8,74.0,42.0,19.0,53.0,35.0,42.0,3656.0,square1,i,0.082,0,N,8.0
NS8,75.0,37.0,18.0,43.0,35.0,37.0,3693.0,square1,i,0.0688,0,N,8.0
NS8,76.0,35.0,14.0,42.0,38.0,35.0,3728.0,square1,i,0.0366,0,N,8.0
NS8,77.0,38.0,19.0,47.0,44.0,44.0,3772.0,square4,j,0.1479,3,N,8.0
NS8,78.0,38.0,18.0,50.0,46.0,46.0,3818.0,square4,j,0.0444,3,N,8.0
NS8,79.0,33.0,22.0,54.0,44.0,44.0,3862.0,square4,j,0.1186,3,N,8.0
NS8,80.0,38.0,21.0,56.0,52.0,56.0,3918.0,square3,f,0.128,2,N,8.0
NS8,81.0,37.0,22.0,56.0,43.0,56.0,3974.0,square3,f,0.0786,2,N,8.0
NS8,82.0,30.0,26.0,60.0,42.0,60.0,4034.0,square3,f,0.1291,2,N,8.0
NS8,83.0,38.0,22.0,54.0,46.0,54.0,4088.0,square3,f,0.078,2,N,8.0
NS8,84.0,33.0,18.0,52.0,46.0,18.0,4106.0,square2,r,0.0619,1,N,8.0
NS8,85.0,42.0,12.0,57.0,48.0,57.0,4163.0,square3,f,0.045,2,N,8.0
NS8,86.0,45.0,19.0,58.0,42.0,58.0,4221.0,square3,f,0.1942,2,N,8.0
NS8,87.0,46.0,10.0,65.0,44.0,65.0,4286.0,square3,f,0.1537,2,N,8.0
NS8,88.0,45.0,11.0,59.0,45.0,59.0,4345.0,square3,f,0.1386,2,N,8.0
NS8,89.0,42.0,11.0,60.0,47.0,60.0,4405.0,square3,f,0.128,2,N,8.0
NS8,90.0,40.0,7.0,64.0,49.0,64.0,4469.0,square3,f,0.1106,2,N,8.0
NS8,91.0,42.0,11.0,64.0,48.0,64.0,4533.0,square3,f,0.0595,2,N,8.0
NS8,92.0,43.0,13.0,60.0,43.0,60.0,4593.0,square3,f,0.1496,2,N,8.0
NS8,93.0,44.0,12.0,64.0,45.0,64.0,4657.0,square3,f,0.1463,2,N,8.0
NS8,94.0,45.0,16.0,65.0,49.0,65.0,4722.0,square3,f,0.1776,2,N,8.0
NS8,95.0,45.0,24.0,66.0,42.0,66.0,4788.0,square3,f,0.1605,2,N,8.0
NS8,96.0,53.0,27.0,67.0,44.0,67.0,4855.0,square3,f,0.1656,2,N,8.0
NS8,97.0,50.0,29.0,68.0,43.0,68.0,4923.0,square3,f,0.131,2,N,8.0
NS8,98.0,52.0,29.0,66.0,37.0,66.0,4989.0,square3,f,0.0802,2,N,8.0
NS8,99.0,53.0,32.0,65.0,37.0,65.0,5054.0,square3,f,0.0801,2,N,8.0
NS6,0.0,68.0,18.0,30.0,58.0,30.0,30.0,square3,r,0.6512,2,N,6.0
NS6,1.0,62.0,23.0,38.0,67.0,67.0,97.0,square4,i,0.0675,3,N,6.0
NS6,2.0,59.0,30.0,33.0,67.0,67.0,164.0,square4,i,0.1192,3,N,6.0
NS6,3.0,62.0,27.0,39.0,65.0,65.0,229.0,square4,i,0.0406,3,N,6.0
NS6,4.0,65.0,22.0,32.0,67.0,67.0,296.0,square4,i,0.0506,3,N,6.0
NS6,5.0,61.0,28.0,39.0,67.0,67.0,363.0,square4,i,0.0454,3,N,6.0
NS6,6.0,59.0,28.0,39.0,66.0,66.0,429.0,square4,i,0.1024,3,N,6.0
NS6,7.0,56.0,30.0,43.0,63.0,63.0,492.0,square4,i,0.0286,3,N,6.0
NS6,8.0,57.0,26.0,36.0,60.0,60.0,552.0,square4,i,0.1331,3,N,6.0
NS6,9.0,51.0,30.0,38.0,65.0,65.0,617.0,square4,i,0.0312,3,N,6.0
NS6,10.0,46.0,26.0,41.0,61.0,61.0,678.0,square4,i,0.0805,3,N,6.0
NS6,11.0,46.0,30.0,40.0,58.0,58.0,736.0,square4,i,0.1024,3,N,6.0
NS6,12.0,44.0,27.0,41.0,56.0,56.0,792.0,square4,i,0.1125,3,N,6.0
NS6,13.0,41.0,32.0,44.0,54.0,54.0,846.0,square4,i,0.0422,3,N,6.0
NS6,14.0,45.0,36.0,41.0,51.0,51.0,897.0,square4,i,0.0947,3,N,6.0
NS6,15.0,37.0,34.0,39.0,54.0,54.0,951.0,square4,i,0.1104,3,N,6.0
NS6,16.0,36.0,37.0,39.0,48.0,48.0,999.0,square4,i,0.0363,3,N,6.0
NS6,17.0,41.0,39.0,36.0,45.0,39.0,1038.0,square2,j,0.0472,1,N,6.0
NS6,18.0,39.0,38.0,29.0,48.0,29.0,1067.0,square3,r,0.1462,2,N,6.0
NS6,19.0,35.0,40.0,32.0,46.0,35.0,1102.0,square1,f,0.0017,0,N,6.0
NS6,20.0,41.0,40.0,28.0,55.0,55.0,1157.0,square4,i,0.046,3,N,6.0
NS6,21.0,45.0,44.0,27.0,54.0,54.0,1211.0,square4,i,0.0027,3,N,6.0
NS6,22.0,44.0,51.0,31.0,53.0,53.0,1264.0,square4,i,0.1118,3,N,6.0
NS6,23.0,44.0,50.0,29.0,53.0,53.0,1317.0,square4,i,0.0011,3,N,6.0
NS6,24.0,49.0,49.0,35.0,55.0,55.0,1372.0,square4,i,0.0465,3,N,6.0
NS6,25.0,44.0,51.0,36.0,56.0,56.0,1428.0,square4,i,0.0784,3,N,6.0
NS6,26.0,43.0,46.0,38.0,58.0,58.0,1486.0,square4,i,0.4089,3,N,6.0
NS6,27.0,41.0,44.0,41.0,59.0,59.0,1545.0,square4,i,0.0235,3,N,6.0
NS6,28.0,38.0,47.0,39.0,58.0,58.0,1603.0,square4,i,0.0362,3,N,6.0
NS6,29.0,39.0,46.0,37.0,54.0,54.0,1657.0,square4,i,0.012,3,N,6.0
NS6,30.0,36.0,49.0,40.0,53.0,53.0,1710.0,square4,i,0.3956,3,N,6.0
NS6,31.0,37.0,45.0,36.0,55.0,55.0,1765.0,square4,i,0.0273,3,N,6.0
NS6,32.0,42.0,42.0,40.0,56.0,56.0,1821.0,square4,i,0.0788,3,N,6.0
NS6,33.0,33.0,44.0,32.0,53.0,53.0,1874.0,square4,i,0.3506,3,N,6.0
NS6,34.0,32.0,42.0,36.0,49.0,49.0,1923.0,square4,i,0.0972,3,N,6.0
NS6,35.0,35.0,28.0,38.0,51.0,51.0,1974.0,square4,i,0.0128,3,N,6.0
NS6,36.0,38.0,28.0,35.0,52.0,52.0,2026.0,square4,i,0.0535,3,N,6.0
NS6,37.0,44.0,31.0,37.0,55.0,55.0,2081.0,square4,i,0.0012,3,N,6.0
NS6,38.0,36.0,31.0,36.0,54.0,54.0,2135.0,square4,i,0.0534,3,N,6.0
NS6,39.0,40.0,29.0,41.0,60.0,60.0,2195.0,square4,i,0.1161,3,N,6.0
NS6,40.0,46.0,33.0,36.0,62.0,62.0,2257.0,square4,i,0.0789,3,N,6.0
NS6,41.0,44.0,38.0,34.0,63.0,63.0,2320.0,square4,i,0.0531,3,N,6.0
NS6,42.0,43.0,32.0,29.0,59.0,59.0,2379.0,square4,i,0.112,3,N,6.0
NS6,43.0,47.0,29.0,38.0,61.0,61.0,2440.0,square4,i,0.053,3,N,6.0
NS6,44.0,49.0,33.0,36.0,56.0,56.0,2496.0,square4,i,0.0014,3,N,6.0
NS6,45.0,51.0,29.0,32.0,60.0,60.0,2556.0,square4,i,0.0011,3,N,6.0
NS6,46.0,52.0,36.0,41.0,64.0,64.0,2620.0,square4,i,0.093,3,N,6.0
NS6,47.0,55.0,35.0,46.0,60.0,60.0,2680.0,square4,i,0.0012,3,N,6.0
NS6,48.0,57.0,34.0,40.0,64.0,64.0,2744.0,square4,i,0.0973,3,N,6.0
NS6,49.0,54.0,37.0,42.0,59.0,42.0,2786.0,square3,r,0.1209,2,N,6.0
NS6,50.0,58.0,40.0,35.0,51.0,58.0,2844.0,square1,f,0.0332,0,N,6.0
NS6,51.0,64.0,35.0,36.0,53.0,35.0,2879.0,square2,j,1.2444,1,N,6.0
NS6,52.0,60.0,37.0,30.0,52.0,52.0,2931.0,square4,i,0.2593,3,N,6.0
NS6,53.0,63.0,40.0,30.0,54.0,63.0,2994.0,square1,f,0.1768,0,N,6.0
NS6,54.0,60.0,37.0,30.0,53.0,60.0,3054.0,square1,f,0.0357,0,N,6.0
NS6,55.0,57.0,40.0,29.0,50.0,57.0,3111.0,square1,f,0.0119,0,N,6.0
NS6,56.0,58.0,30.0,30.0,46.0,58.0,3169.0,square1,f,0.1801,0,N,6.0
NS6,57.0,64.0,34.0,31.0,45.0,64.0,3233.0,square1,f,0.0189,0,N,6.0
NS6,58.0,66.0,31.0,34.0,48.0,66.0,3299.0,square1,f,0.1275,0,N,6.0
NS6,59.0,68.0,31.0,35.0,44.0,68.0,3367.0,square1,f,0.0245,0,N,6.0
NS6,60.0,65.0,28.0,27.0,49.0,65.0,3432.0,square1,f,0.18,0,N,6.0
NS6,61.0,67.0,29.0,25.0,47.0,67.0,3499.0,square1,f,0.0986,0,N,6.0
NS6,62.0,67.0,31.0,27.0,41.0,67.0,3566.0,square1,f,0.0926,0,N,6.0
NS6,63.0,69.0,32.0,24.0,45.0,69.0,3635.0,square1,f,0.0766,0,N,6.0
NS6,64.0,72.0,41.0,30.0,50.0,72.0,3707.0,square1,f,0.0012,0,N,6.0
NS6,65.0,75.0,35.0,33.0,50.0,75.0,3782.0,square1,f,0.0029,0,N,6.0
NS6,66.0,71.0,37.0,26.0,49.0,71.0,3853.0,square1,f,0.0339,0,N,6.0
NS6,67.0,74.0,34.0,21.0,49.0,74.0,3927.0,square1,f,0.0633,0,N,6.0
NS6,68.0,81.0,37.0,27.0,50.0,81.0,4008.0,square1,f,0.1636,0,N,6.0
NS6,69.0,80.0,31.0,25.0,49.0,80.0,4088.0,square1,f,0.1807,0,N,6.0
NS6,70.0,83.0,33.0,31.0,46.0,83.0,4171.0,square1,f,0.1433,0,N,6.0
NS6,71.0,75.0,33.0,34.0,53.0,75.0,4246.0,square1,f,0.2257,0,N,6.0
NS6,72.0,73.0,39.0,32.0,55.0,55.0,4301.0,square4,i,0.0959,3,N,6.0
NS6,73.0,74.0,40.0,33.0,53.0,33.0,4334.0,square3,r,0.0011,2,N,6.0
NS6,74.0,73.0,46.0,32.0,50.0,46.0,4380.0,square2,j,0.9152,1,N,6.0
NS6,75.0,71.0,40.0,32.0,49.0,71.0,4451.0,square1,f,0.0435,0,N,6.0
NS6,76.0,65.0,43.0,31.0,56.0,65.0,4516.0,square1,f,0.0969,0,N,6.0
NS6,77.0,66.0,41.0,33.0,56.0,66.0,4582.0,square1,f,0.0292,0,N,6.0
NS6,78.0,71.0,40.0,38.0,64.0,71.0,4653.0,square1,f,0.0624,0,N,6.0
NS6,79.0,69.0,36.0,35.0,62.0,69.0,4722.0,square1,f,0.0945,0,N,6.0
NS6,80.0,69.0,34.0,37.0,69.0,69.0,4791.0,square1,f,0.116,0,N,6.0
NS6,81.0,70.0,37.0,37.0,71.0,70.0,4861.0,square1,f,0.1778,0,N,6.0
NS6,82.0,68.0,38.0,39.0,66.0,68.0,4929.0,square1,f,0.1102,0,N,6.0
NS6,83.0,69.0,42.0,41.0,73.0,69.0,4998.0,square1,f,0.0258,0,N,6.0
NS6,84.0,62.0,42.0,42.0,70.0,62.0,5060.0,square1,f,0.2457,0,N,6.0
NS6,85.0,57.0,45.0,42.0,77.0,42.0,5102.0,square3,r,0.1973,2,N,6.0
NS6,86.0,58.0,47.0,44.0,70.0,70.0,5172.0,square4,i,0.1276,3,N,6.0
NS6,87.0,62.0,44.0,52.0,73.0,73.0,5245.0,square4,i,0.1335,3,N,6.0
NS6,88.0,62.0,45.0,47.0,72.0,72.0,5317.0,square4,i,0.076,3,N,6.0
NS6,89.0,59.0,50.0,47.0,73.0,73.0,5390.0,square4,i,0.1793,3,N,6.0
NS6,90.0,55.0,45.0,44.0,68.0,68.0,5458.0,square4,i,0.0213,3,N,6.0
NS6,91.0,55.0,51.0,47.0,67.0,67.0,5525.0,square4,i,0.0615,3,N,6.0
NS6,92.0,62.0,52.0,35.0,69.0,69.0,5594.0,square4,i,0.0013,3,N,6.0
NS6,93.0,59.0,47.0,32.0,68.0,68.0,5662.0,square4,i,0.1512,3,N,6.0
NS6,94.0,67.0,53.0,44.0,66.0,66.0,5728.0,square4,i,0.026,3,N,6.0
NS6,95.0,71.0,44.0,47.0,66.0,66.0,5794.0,square4,i,0.1091,3,N,6.0
NS6,96.0,68.0,53.0,47.0,66.0,66.0,5860.0,square4,i,0.0755,3,N,6.0
NS6,97.0,65.0,49.0,44.0,64.0,64.0,5924.0,square4,i,0.1838,3,N,6.0
NS6,98.0,66.0,54.0,55.0,57.0,66.0,5990.0,square1,f,0.0011,0,N,6.0
NS6,99.0,69.0,57.0,51.0,56.0,69.0,6059.0,square1,f,0.1796,0,N,6.0
NS3,0.0,52.0,26.0,68.0,52.0,26.0,26.0,square2,r,0.3547,1,N,3.0
NS3,1.0,57.0,23.0,69.0,48.0,69.0,95.0,square3,i,0.1297,2,N,3.0
NS3,2.0,59.0,26.0,70.0,52.0,52.0,147.0,square4,f,0.1698,3,N,3.0
NS3,3.0,57.0,24.0,70.0,52.0,57.0,204.0,square1,j,0.0291,0,N,3.0
NS3,4.0,59.0,30.0,74.0,49.0,74.0,278.0,square3,i,0.1983,2,N,3.0
NS3,5.0,55.0,24.0,67.0,51.0,67.0,345.0,square3,i,0.0011,2,N,3.0
NS3,6.0,54.0,27.0,73.0,55.0,73.0,418.0,square3,i,0.1019,2,N,3.0
NS3,7.0,55.0,28.0,66.0,43.0,66.0,484.0,square3,i,0.0266,2,N,3.0
NS3,8.0,57.0,30.0,65.0,45.0,65.0,549.0,square3,i,0.1043,2,N,3.0
NS3,9.0,53.0,33.0,54.0,37.0,54.0,603.0,square3,i,0.0789,2,N,3.0
NS3,10.0,46.0,27.0,54.0,43.0,43.0,646.0,square4,f,0.0695,3,N,3.0
NS3,11.0,48.0,31.0,58.0,51.0,48.0,694.0,square1,j,0.0177,0,N,3.0
NS3,12.0,50.0,27.0,54.0,53.0,27.0,721.0,square2,r,0.0354,1,N,3.0
NS3,13.0,49.0,28.0,62.0,50.0,62.0,783.0,square3,i,0.1446,2,N,3.0
NS3,14.0,53.0,28.0,62.0,52.0,62.0,845.0,square3,i,0.0982,2,N,3.0
NS3,15.0,52.0,25.0,57.0,57.0,57.0,902.0,square3,i,0.0314,2,N,3.0
NS3,16.0,48.0,29.0,56.0,56.0,56.0,958.0,square3,i,0.2055,2,N,3.0
NS3,17.0,39.0,21.0,58.0,56.0,58.0,1016.0,square3,i,0.1466,2,N,3.0
NS3,18.0,40.0,23.0,58.0,60.0,60.0,1076.0,square4,f,0.0351,3,N,3.0
NS3,19.0,40.0,26.0,63.0,58.0,58.0,1134.0,square4,f,0.0126,3,N,3.0
NS3,20.0,46.0,24.0,60.0,56.0,56.0,1190.0,square4,f,0.1289,3,N,3.0
NS3,21.0,42.0,27.0,61.0,55.0,61.0,1251.0,square3,i,0.1628,2,N,3.0
NS3,22.0,45.0,26.0,62.0,56.0,62.0,1313.0,square3,i,0.1791,2,N,3.0
NS3,23.0,39.0,21.0,64.0,60.0,64.0,1377.0,square3,i,0.0104,2,N,3.0
NS3,24.0,44.0,21.0,59.0,64.0,44.0,1421.0,square1,j,0.0821,0,N,3.0
NS3,25.0,44.0,22.0,58.0,65.0,58.0,1479.0,square3,i,0.0132,2,N,3.0
NS3,26.0,42.0,26.0,60.0,62.0,62.0,1541.0,square4,f,0.146,3,N,3.0
NS3,27.0,38.0,18.0,55.0,67.0,67.0,1608.0,square4,f,0.0318,3,N,3.0
NS3,28.0,41.0,23.0,56.0,60.0,60.0,1668.0,square4,f,0.1096,3,N,3.0
NS3,29.0,38.0,16.0,52.0,66.0,52.0,1720.0,square3,i,0.1771,2,N,3.0
NS3,30.0,36.0,13.0,61.0,64.0,64.0,1784.0,square4,f,0.0011,3,N,3.0
NS3,31.0,42.0,13.0,54.0,63.0,63.0,1847.0,square4,f,0.1672,3,N,3.0
NS3,32.0,38.0,18.0,50.0,62.0,62.0,1909.0,square4,f,0.0357,3,N,3.0
NS3,33.0,29.0,20.0,51.0,64.0,64.0,1973.0,square4,f,0.1628,3,N,3.0
NS3,34.0,32.0,21.0,45.0,63.0,63.0,2036.0,square4,f,0.0166,3,N,3.0
NS3,35.0,30.0,17.0,46.0,65.0,65.0,2101.0,square4,f,0.1974,3,N,3.0
NS3,36.0,35.0,16.0,47.0,69.0,69.0,2170.0,square4,f,0.0632,3,N,3.0
NS3,37.0,34.0,18.0,45.0,68.0,68.0,2238.0,square4,f,0.0425,3,N,3.0
NS3,38.0,40.0,14.0,50.0,74.0,74.0,2312.0,square4,f,0.0976,3,N,3.0
NS3,39.0,39.0,15.0,49.0,73.0,73.0,2385.0,square4,f,0.1961,3,N,3.0
NS3,40.0,42.0,15.0,51.0,74.0,74.0,2459.0,square4,f,0.0923,3,N,3.0
NS3,41.0,38.0,17.0,43.0,74.0,74.0,2533.0,square4,f,0.066,3,N,3.0
NS3,42.0,36.0,16.0,46.0,74.0,74.0,2607.0,square4,f,0.0133,3,N,3.0
NS3,43.0,41.0,21.0,44.0,76.0,76.0,2683.0,square4,f,0.1978,3,N,3.0
NS3,44.0,41.0,26.0,35.0,70.0,70.0,2753.0,square4,f,0.1315,3,N,3.0
NS3,45.0,39.0,27.0,33.0,75.0,33.0,2786.0,square3,i,0.1775,2,N,3.0
NS3,46.0,45.0,25.0,38.0,77.0,77.0,2863.0,square4,f,0.0364,3,N,3.0
NS3,47.0,41.0,20.0,34.0,76.0,76.0,2939.0,square4,f,0.2116,3,N,3.0
NS3,48.0,37.0,25.0,34.0,77.0,77.0,3016.0,square4,f,0.1213,3,N,3.0
NS3,49.0,41.0,18.0,40.0,78.0,78.0,3094.0,square4,f,0.0426,3,N,3.0
NS3,50.0,42.0,17.0,41.0,83.0,83.0,3177.0,square4,f,0.0288,3,N,3.0
NS3,51.0,53.0,18.0,39.0,83.0,83.0,3260.0,square4,f,0.0432,3,N,3.0
NS3,52.0,55.0,19.0,34.0,82.0,82.0,3342.0,square4,f,0.0615,3,N,3.0
NS3,53.0,52.0,17.0,39.0,77.0,77.0,3419.0,square4,f,0.0433,3,N,3.0
NS3,54.0,55.0,21.0,46.0,77.0,77.0,3496.0,square4,f,0.186,3,N,3.0
NS3,55.0,48.0,21.0,49.0,75.0,75.0,3571.0,square4,f,0.0793,3,N,3.0
NS3,56.0,50.0,25.0,51.0,74.0,25.0,3596.0,square2,r,0.1381,1,N,3.0
NS3,57.0,54.0,23.0,46.0,66.0,66.0,3662.0,square4,f,0.0781,3,N,3.0
NS3,58.0,60.0,25.0,50.0,72.0,72.0,3734.0,square4,f,0.0305,3,N,3.0
NS3,59.0,54.0,23.0,46.0,72.0,72.0,3806.0,square4,f,0.084,3,N,3.0
NS3,60.0,51.0,26.0,50.0,72.0,72.0,3878.0,square4,f,0.0663,3,N,3.0
NS3,61.0,57.0,27.0,54.0,71.0,71.0,3949.0,square4,f,0.0609,3,N,3.0
NS3,62.0,51.0,27.0,54.0,64.0,64.0,4013.0,square4,f,0.1125,3,N,3.0
NS3,63.0,54.0,25.0,42.0,62.0,42.0,4055.0,square3,i,0.0942,2,N,3.0
NS3,64.0,54.0,25.0,47.0,62.0,54.0,4109.0,square1,j,0.1377,0,N,3.0
NS3,65.0,48.0,26.0,45.0,60.0,60.0,4169.0,square4,f,0.1976,3,N,3.0
NS3,66.0,49.0,22.0,47.0,60.0,60.0,4229.0,square4,f,0.0944,3,N,3.0
NS3,67.0,49.0,26.0,45.0,65.0,65.0,4294.0,square4,f,0.0771,3,N,3.0
NS3,68.0,54.0,26.0,47.0,67.0,54.0,4348.0,square1,j,0.0526,0,N,3.0
NS3,69.0,48.0,22.0,45.0,56.0,56.0,4404.0,square4,f,0.1184,3,N,3.0
NS3,70.0,55.0,26.0,48.0,61.0,61.0,4465.0,square4,f,0.0655,3,N,3.0
NS3,71.0,55.0,29.0,43.0,60.0,60.0,4525.0,square4,f,0.1772,3,N,3.0
NS3,72.0,56.0,30.0,43.0,51.0,51.0,4576.0,square4,f,0.1688,3,N,3.0
NS3,73.0,55.0,27.0,47.0,56.0,55.0,4631.0,square1,j,0.0997,0,N,3.0
NS3,74.0,63.0,26.0,44.0,55.0,63.0,4694.0,square1,j,0.161,0,N,3.0
NS3,75.0,61.0,34.0,45.0,62.0,61.0,4755.0,square1,j,0.1858,0,N,3.0
NS3,76.0,55.0,28.0,45.0,62.0,55.0,4810.0,square1,j,0.1599,0,N,3.0
NS3,77.0,58.0,31.0,53.0,66.0,66.0,4876.0,square4,f,0.1618,3,N,3.0
NS3,78.0,55.0,29.0,51.0,60.0,60.0,4936.0,square4,f,0.1182,3,N,3.0
NS3,79.0,51.0,29.0,52.0,68.0,68.0,5004.0,square4,f,0.1557,3,N,3.0
NS3,80.0,55.0,31.0,48.0,59.0,48.0,5052.0,square3,i,0.0804,2,N,3.0
NS3,81.0,56.0,38.0,56.0,64.0,64.0,5116.0,square4,f,0.0699,3,N,3.0
NS3,82.0,54.0,27.0,54.0,55.0,27.0,5143.0,square2,r,0.2297,1,N,3.0
NS3,83.0,62.0,30.0,49.0,58.0,58.0,5201.0,square4,f,0.1046,3,N,3.0
NS3,84.0,64.0,24.0,47.0,62.0,62.0,5263.0,square4,f,0.2088,3,N,3.0
NS3,85.0,65.0,23.0,54.0,63.0,63.0,5326.0,square4,f,0.0765,3,N,3.0
NS3,86.0,68.0,25.0,56.0,65.0,65.0,5391.0,square4,f,0.0444,3,N,3.0
NS3,87.0,65.0,22.0,55.0,60.0,60.0,5451.0,square4,f,0.0127,3,N,3.0
NS3,88.0,64.0,20.0,58.0,65.0,65.0,5516.0,square4,f,0.1187,3,N,3.0
NS3,89.0,68.0,13.0,62.0,64.0,64.0,5580.0,square4,f,0.0684,3,N,3.0
NS3,90.0,72.0,13.0,52.0,64.0,64.0,5644.0,square4,f,0.1527,3,N,3.0
NS3,91.0,67.0,20.0,52.0,69.0,69.0,5713.0,square4,f,0.1448,3,N,3.0
NS3,92.0,72.0,21.0,58.0,64.0,64.0,5777.0,square4,f,0.1626,3,N,3.0
NS3,93.0,73.0,16.0,54.0,67.0,67.0,5844.0,square4,f,0.0787,3,N,3.0
NS3,94.0,69.0,17.0,51.0,64.0,64.0,5908.0,square4,f,0.0855,3,N,3.0
NS3,95.0,62.0,19.0,60.0,62.0,62.0,5970.0,square4,f,0.2099,3,N,3.0
NS3,96.0,67.0,15.0,56.0,67.0,67.0,6037.0,square4,f,0.0837,3,N,3.0
NS3,97.0,61.0,17.0,58.0,62.0,58.0,6095.0,square3,i,0.0778,2,N,3.0
NS3,98.0,59.0,13.0,58.0,58.0,59.0,6154.0,square1,j,0.1445,0,N,3.0
NS3,99.0,62.0,15.0,51.0,60.0,60.0,6214.0,square4,f,0.263,3,N,3.0
V12,0.0,47.0,30.0,38.0,55.0,55.0,55.0,square4,r,0.3303,3,V,12.0
V12,1.0,46.0,33.0,39.0,57.0,57.0,112.0,square4,r,0.0894,3,V,12.0
V12,2.0,51.0,29.0,42.0,52.0,52.0,164.0,square4,r,0.0998,3,V,12.0
V12,3.0,52.0,30.0,38.0,62.0,62.0,226.0,square4,r,0.026,3,V,12.0
V12,4.0,48.0,30.0,39.0,62.0,62.0,288.0,square4,r,0.001,3,V,12.0
V12,5.0,55.0,34.0,43.0,61.0,61.0,349.0,square4,r,0.1923,3,V,12.0
V12,6.0,45.0,35.0,42.0,56.0,56.0,405.0,square4,r,0.1119,3,V,12.0
V12,7.0,48.0,29.0,35.0,57.0,57.0,462.0,square4,r,0.0458,3,V,12.0
V12,8.0,46.0,33.0,38.0,59.0,33.0,495.0,square2,i,0.1117,1,V,12.0
V12,9.0,44.0,31.0,42.0,56.0,42.0,537.0,square3,j,0.011,2,V,12.0
V12,10.0,48.0,34.0,45.0,55.0,48.0,585.0,square1,f,0.0314,0,V,12.0
V12,11.0,45.0,32.0,41.0,55.0,55.0,640.0,square4,r,0.2006,3,V,12.0
V12,12.0,52.0,26.0,42.0,57.0,57.0,697.0,square4,r,0.0758,3,V,12.0
V12,13.0,56.0,31.0,41.0,54.0,54.0,751.0,square4,r,0.0284,3,V,12.0
V12,14.0,44.0,34.0,40.0,64.0,64.0,815.0,square4,r,0.2028,3,V,12.0
V12,15.0,48.0,32.0,39.0,61.0,61.0,876.0,square4,r,0.0987,3,V,12.0
V12,16.0,49.0,33.0,37.0,58.0,58.0,934.0,square4,r,0.0109,3,V,12.0
V12,17.0,45.0,33.0,43.0,57.0,57.0,991.0,square4,r,0.033,3,V,12.0
V12,18.0,45.0,28.0,40.0,58.0,58.0,1049.0,square4,r,0.1296,3,V,12.0
V12,19.0,42.0,33.0,43.0,59.0,59.0,1108.0,square4,r,0.0308,3,V,12.0
V12,20.0,46.0,30.0,38.0,62.0,62.0,1170.0,square4,r,0.0928,3,V,12.0
V12,21.0,46.0,35.0,40.0,55.0,55.0,1225.0,square4,r,0.0595,3,V,12.0
V12,22.0,46.0,34.0,36.0,63.0,63.0,1288.0,square4,r,0.0865,3,V,12.0
V12,23.0,54.0,34.0,42.0,56.0,56.0,1344.0,square4,r,0.0927,3,V,12.0
V12,24.0,44.0,30.0,41.0,59.0,59.0,1403.0,square4,r,0.0019,3,V,12.0
V12,25.0,49.0,33.0,37.0,64.0,64.0,1467.0,square4,r,0.0999,3,V,12.0
V12,26.0,52.0,34.0,39.0,57.0,57.0,1524.0,square4,r,0.0952,3,V,12.0
V12,27.0,50.0,26.0,37.0,55.0,55.0,1579.0,square4,r,0.1429,3,V,12.0
V12,28.0,41.0,29.0,46.0,21.0,21.0,1600.0,square4,r,0.127,3,V,12.0
V12,29.0,41.0,28.0,51.0,20.0,28.0,1628.0,square2,i,0.279,1,V,12.0
V12,30.0,32.0,31.0,46.0,22.0,46.0,1674.0,square3,j,0.0755,2,V,12.0
V12,31.0,38.0,28.0,45.0,22.0,45.0,1719.0,square3,j,0.0356,2,V,12.0
V12,32.0,35.0,27.0,44.0,16.0,35.0,1754.0,square1,f,0.1928,0,V,12.0
V12,33.0,39.0,29.0,49.0,21.0,21.0,1775.0,square4,r,0.0446,3,V,12.0
V12,34.0,39.0,28.0,49.0,15.0,49.0,1824.0,square3,j,0.0107,2,V,12.0
V12,35.0,36.0,29.0,50.0,17.0,50.0,1874.0,square3,j,0.1609,2,V,12.0
V12,36.0,41.0,28.0,48.0,12.0,48.0,1922.0,square3,j,0.043,2,V,12.0
V12,37.0,34.0,29.0,46.0,25.0,46.0,1968.0,square3,j,0.1264,2,V,12.0
V12,38.0,38.0,28.0,51.0,19.0,51.0,2019.0,square3,j,0.1956,2,V,12.0
V12,39.0,39.0,31.0,45.0,13.0,45.0,2064.0,square3,j,0.062,2,V,12.0
V12,40.0,35.0,28.0,46.0,26.0,46.0,2110.0,square3,j,0.1797,2,V,12.0
V12,41.0,38.0,27.0,46.0,20.0,46.0,2156.0,square3,j,0.1352,2,V,12.0
V12,42.0,40.0,26.0,50.0,23.0,50.0,2206.0,square3,j,0.083,2,V,12.0
V12,43.0,33.0,30.0,45.0,18.0,45.0,2251.0,square3,j,0.0012,2,V,12.0
V12,44.0,39.0,31.0,46.0,22.0,46.0,2297.0,square3,j,0.1786,2,V,12.0
V12,45.0,32.0,26.0,42.0,20.0,42.0,2339.0,square3,j,0.202,2,V,12.0
V12,46.0,36.0,29.0,43.0,24.0,43.0,2382.0,square3,j,0.0124,2,V,12.0
V12,47.0,37.0,30.0,46.0,21.0,46.0,2428.0,square3,j,0.1832,2,V,12.0
V12,48.0,37.0,27.0,44.0,19.0,44.0,2472.0,square3,j,0.0328,2,V,12.0
V12,49.0,36.0,33.0,55.0,16.0,55.0,2527.0,square3,j,0.0262,2,V,12.0
V12,50.0,45.0,28.0,44.0,18.0,44.0,2571.0,square3,j,0.0454,2,V,12.0
V12,51.0,35.0,32.0,49.0,19.0,49.0,2620.0,square3,j,0.214,2,V,12.0
V12,52.0,36.0,56.0,31.0,52.0,36.0,2656.0,square1,f,0.028,0,V,12.0
V12,53.0,36.0,57.0,29.0,45.0,45.0,2701.0,square4,r,0.1639,3,V,12.0
V12,54.0,38.0,61.0,28.0,51.0,61.0,2762.0,square2,i,0.0662,1,V,12.0
V12,55.0,35.0,60.0,29.0,47.0,60.0,2822.0,square2,i,0.0732,1,V,12.0
V12,56.0,34.0,62.0,29.0,46.0,62.0,2884.0,square2,i,0.0572,1,V,12.0
V12,57.0,43.0,57.0,32.0,46.0,57.0,2941.0,square2,i,0.0413,1,V,12.0
V12,58.0,40.0,59.0,32.0,50.0,59.0,3000.0,square2,i,0.1948,1,V,12.0
V12,59.0,41.0,62.0,33.0,48.0,62.0,3062.0,square2,i,0.3129,1,V,12.0
V12,60.0,36.0,61.0,32.0,49.0,61.0,3123.0,square2,i,0.3117,1,V,12.0
V12,61.0,39.0,56.0,32.0,44.0,56.0,3179.0,square2,i,0.0745,1,V,12.0
V12,62.0,39.0,57.0,30.0,46.0,57.0,3236.0,square2,i,0.0436,1,V,12.0
V12,63.0,42.0,53.0,29.0,46.0,53.0,3289.0,square2,i,0.0514,1,V,12.0
V12,64.0,35.0,57.0,32.0,50.0,57.0,3346.0,square2,i,0.0625,1,V,12.0
V12,65.0,44.0,58.0,32.0,49.0,58.0,3404.0,square2,i,0.2001,1,V,12.0
V12,66.0,44.0,56.0,29.0,52.0,56.0,3460.0,square2,i,0.0011,1,V,12.0
V12,67.0,41.0,60.0,30.0,49.0,60.0,3520.0,square2,i,0.1992,1,V,12.0
V12,68.0,42.0,58.0,32.0,45.0,58.0,3578.0,square2,i,0.0157,1,V,12.0
V12,69.0,36.0,60.0,33.0,50.0,60.0,3638.0,square2,i,0.1546,1,V,12.0
V12,70.0,36.0,57.0,27.0,46.0,57.0,3695.0,square2,i,0.001,1,V,12.0
V12,71.0,41.0,59.0,32.0,48.0,59.0,3754.0,square2,i,0.0373,1,V,12.0
V12,72.0,34.0,59.0,31.0,49.0,59.0,3813.0,square2,i,0.0508,1,V,12.0
V12,73.0,71.0,53.0,65.0,49.0,53.0,3866.0,square2,i,0.031,1,V,12.0
V12,74.0,69.0,49.0,63.0,45.0,49.0,3915.0,square2,i,0.0614,1,V,12.0
V12,75.0,72.0,51.0,56.0,46.0,46.0,3961.0,square4,r,0.0653,3,V,12.0
V12,76.0,72.0,48.0,58.0,43.0,58.0,4019.0,square3,j,0.0601,2,V,12.0
V12,77.0,74.0,57.0,59.0,44.0,59.0,4078.0,square3,j,0.0301,2,V,12.0
V12,78.0,69.0,55.0,63.0,50.0,63.0,4141.0,square3,j,0.1107,2,V,12.0
V12,79.0,73.0,53.0,58.0,43.0,53.0,4194.0,square2,i,0.0013,1,V,12.0
V12,80.0,71.0,47.0,65.0,40.0,65.0,4259.0,square3,j,0.1214,2,V,12.0
V12,81.0,66.0,49.0,57.0,40.0,66.0,4325.0,square1,f,0.1148,0,V,12.0
V12,82.0,71.0,53.0,57.0,48.0,57.0,4382.0,square3,j,0.0648,2,V,12.0
V12,83.0,70.0,50.0,56.0,49.0,70.0,4452.0,square1,f,0.1357,0,V,12.0
V12,84.0,69.0,45.0,64.0,43.0,69.0,4521.0,square1,f,0.113,0,V,12.0
V12,85.0,64.0,48.0,54.0,42.0,64.0,4585.0,square1,f,0.0479,0,V,12.0
V12,86.0,71.0,49.0,63.0,44.0,71.0,4656.0,square1,f,0.312,0,V,12.0
V12,87.0,72.0,52.0,55.0,42.0,72.0,4728.0,square1,f,0.1957,0,V,12.0
V12,88.0,64.0,48.0,59.0,44.0,64.0,4792.0,square1,f,0.0356,0,V,12.0
V12,89.0,69.0,48.0,62.0,45.0,69.0,4861.0,square1,f,0.0213,0,V,12.0
V12,90.0,68.0,56.0,60.0,42.0,68.0,4929.0,square1,f,0.0789,0,V,12.0
V12,91.0,69.0,52.0,62.0,45.0,69.0,4998.0,square1,f,0.0109,0,V,12.0
V12,92.0,65.0,50.0,64.0,47.0,65.0,5063.0,square1,f,0.0179,0,V,12.0
V12,93.0,68.0,51.0,62.0,43.0,68.0,5131.0,square1,f,0.0783,0,V,12.0
V12,94.0,68.0,52.0,60.0,38.0,68.0,5199.0,square1,f,0.0842,0,V,12.0
V12,95.0,71.0,52.0,58.0,47.0,71.0,5270.0,square1,f,0.0813,0,V,12.0
V12,96.0,66.0,49.0,59.0,44.0,66.0,5336.0,square1,f,0.0873,0,V,12.0
V12,97.0,74.0,47.0,54.0,47.0,74.0,5410.0,square1,f,0.0781,0,V,12.0
V12,98.0,68.0,43.0,64.0,41.0,68.0,5478.0,square1,f,0.1511,0,V,12.0
V12,99.0,71.0,53.0,62.0,44.0,71.0,5549.0,square1,f,0.0525,0,V,12.0
V2,0.0,33.0,24.0,43.0,18.0,24.0,24.0,square2,r,0.5981,1,V,2.0
V2,1.0,33.0,29.0,42.0,21.0,42.0,66.0,square3,i,0.0017,2,V,2.0
V2,2.0,37.0,26.0,45.0,22.0,37.0,103.0,square1,j,0.085,0,V,2.0
V2,3.0,39.0,26.0,41.0,20.0,20.0,123.0,square4,f,0.0181,3,V,2.0
V2,4.0,29.0,32.0,45.0,19.0,45.0,168.0,square3,i,0.1855,2,V,2.0
V2,5.0,33.0,28.0,44.0,17.0,44.0,212.0,square3,i,0.007,2,V,2.0
V2,6.0,32.0,24.0,49.0,20.0,49.0,261.0,square3,i,0.0348,2,V,2.0
V2,7.0,32.0,21.0,42.0,13.0,42.0,303.0,square3,i,0.084,2,V,2.0
V2,8.0,35.0,23.0,45.0,19.0,45.0,348.0,square3,i,0.1506,2,V,2.0
V2,9.0,33.0,28.0,46.0,17.0,46.0,394.0,square3,i,0.2842,2,V,2.0
V2,10.0,39.0,27.0,45.0,21.0,45.0,439.0,square3,i,0.0014,2,V,2.0
V2,11.0,30.0,23.0,44.0,22.0,44.0,483.0,square3,i,0.0504,2,V,2.0
V2,12.0,31.0,26.0,43.0,16.0,43.0,526.0,square3,i,0.2162,2,V,2.0
V2,13.0,35.0,26.0,43.0,22.0,43.0,569.0,square3,i,0.0682,2,V,2.0
V2,14.0,35.0,29.0,46.0,19.0,29.0,598.0,square2,r,0.1351,1,V,2.0
V2,15.0,36.0,22.0,44.0,20.0,20.0,618.0,square4,f,0.0111,3,V,2.0
V2,16.0,33.0,27.0,45.0,19.0,33.0,651.0,square1,j,0.1435,0,V,2.0
V2,17.0,35.0,25.0,41.0,15.0,41.0,692.0,square3,i,0.0013,2,V,2.0
V2,18.0,37.0,27.0,51.0,21.0,51.0,743.0,square3,i,0.2344,2,V,2.0
V2,19.0,33.0,25.0,43.0,18.0,43.0,786.0,square3,i,0.041,2,V,2.0
V2,20.0,39.0,25.0,43.0,20.0,43.0,829.0,square3,i,0.0196,2,V,2.0
V2,21.0,27.0,32.0,43.0,24.0,43.0,872.0,square3,i,0.0407,2,V,2.0
V2,22.0,35.0,27.0,50.0,13.0,50.0,922.0,square3,i,0.0663,2,V,2.0
V2,23.0,36.0,25.0,39.0,17.0,25.0,947.0,square2,r,0.1851,1,V,2.0
V2,24.0,32.0,45.0,39.0,59.0,59.0,1006.0,square4,f,0.042,3,V,2.0
V2,25.0,26.0,43.0,37.0,55.0,55.0,1061.0,square4,f,0.0015,3,V,2.0
V2,26.0,23.0,45.0,39.0,58.0,58.0,1119.0,square4,f,0.1882,3,V,2.0
V2,27.0,30.0,44.0,40.0,56.0,30.0,1149.0,square1,j,0.0563,0,V,2.0
V2,28.0,34.0,48.0,41.0,54.0,54.0,1203.0,square4,f,0.1014,3,V,2.0
V2,29.0,29.0,42.0,35.0,54.0,54.0,1257.0,square4,f,0.0742,3,V,2.0
V2,30.0,22.0,39.0,39.0,55.0,39.0,1296.0,square3,i,0.1516,2,V,2.0
V2,31.0,32.0,48.0,35.0,50.0,50.0,1346.0,square4,f,0.1073,3,V,2.0
V2,32.0,27.0,47.0,40.0,58.0,58.0,1404.0,square4,f,0.1847,3,V,2.0
V2,33.0,28.0,46.0,31.0,54.0,54.0,1458.0,square4,f,0.101,3,V,2.0
V2,34.0,28.0,44.0,41.0,49.0,49.0,1507.0,square4,f,0.1188,3,V,2.0
V2,35.0,31.0,44.0,33.0,59.0,59.0,1566.0,square4,f,0.0055,3,V,2.0
V2,36.0,29.0,48.0,30.0,55.0,55.0,1621.0,square4,f,0.1681,3,V,2.0
V2,37.0,25.0,45.0,32.0,51.0,51.0,1672.0,square4,f,0.1678,3,V,2.0
V2,38.0,29.0,48.0,33.0,54.0,54.0,1726.0,square4,f,0.151,3,V,2.0
V2,39.0,29.0,44.0,33.0,54.0,44.0,1770.0,square2,r,0.0014,1,V,2.0
V2,40.0,33.0,42.0,37.0,61.0,61.0,1831.0,square4,f,0.0685,3,V,2.0
V2,41.0,28.0,45.0,41.0,57.0,28.0,1859.0,square1,j,0.1013,0,V,2.0
V2,42.0,33.0,46.0,36.0,54.0,54.0,1913.0,square4,f,0.1456,3,V,2.0
V2,43.0,31.0,42.0,40.0,57.0,40.0,1953.0,square3,i,0.0403,2,V,2.0
V2,44.0,27.0,45.0,38.0,56.0,56.0,2009.0,square4,f,0.1681,3,V,2.0
V2,45.0,27.0,44.0,32.0,51.0,51.0,2060.0,square4,f,0.0514,3,V,2.0
V2,46.0,28.0,44.0,39.0,57.0,57.0,2117.0,square4,f,0.5523,3,V,2.0
V2,47.0,30.0,45.0,36.0,56.0,45.0,2162.0,square2,r,0.2512,1,V,2.0
V2,48.0,31.0,47.0,41.0,59.0,59.0,2221.0,square4,f,0.1677,3,V,2.0
V2,49.0,32.0,45.0,33.0,57.0,57.0,2278.0,square4,f,0.1212,3,V,2.0
V2,50.0,24.0,38.0,36.0,52.0,52.0,2330.0,square4,f,0.0428,3,V,2.0
V2,51.0,29.0,48.0,34.0,54.0,54.0,2384.0,square4,f,0.1849,3,V,2.0
V2,52.0,30.0,50.0,38.0,56.0,56.0,2440.0,square4,f,0.1851,3,V,2.0
V2,53.0,27.0,47.0,33.0,55.0,47.0,2487.0,square2,r,0.0679,1,V,2.0
V2,54.0,34.0,21.0,45.0,25.0,25.0,2512.0,square4,f,0.1339,3,V,2.0
V2,55.0,36.0,19.0,39.0,24.0,36.0,2548.0,square1,j,0.0847,0,V,2.0
V2,56.0,29.0,19.0,45.0,18.0,45.0,2593.0,square3,i,0.083,2,V,2.0
V2,57.0,29.0,20.0,39.0,20.0,20.0,2613.0,square2,r,0.101,1,V,2.0
V2,58.0,40.0,18.0,42.0,21.0,42.0,2655.0,square3,i,0.0019,2,V,2.0
V2,59.0,31.0,17.0,44.0,23.0,44.0,2699.0,square3,i,0.1328,2,V,2.0
V2,60.0,31.0,19.0,42.0,20.0,20.0,2719.0,square4,f,0.0012,3,V,2.0
V2,61.0,34.0,16.0,41.0,25.0,41.0,2760.0,square3,i,0.2182,2,V,2.0
V2,62.0,28.0,12.0,41.0,22.0,41.0,2801.0,square3,i,0.068,2,V,2.0
V2,63.0,32.0,14.0,45.0,26.0,45.0,2846.0,square3,i,0.1348,2,V,2.0
V2,64.0,36.0,21.0,41.0,25.0,41.0,2887.0,square3,i,0.1556,2,V,2.0
V2,65.0,32.0,13.0,39.0,24.0,39.0,2926.0,square3,i,0.1015,2,V,2.0
V2,66.0,35.0,15.0,42.0,20.0,35.0,2961.0,square1,j,0.1003,0,V,2.0
V2,67.0,30.0,23.0,47.0,27.0,23.0,2984.0,square2,r,0.1906,1,V,2.0
V2,68.0,31.0,17.0,43.0,24.0,31.0,3015.0,square1,j,0.0583,0,V,2.0
V2,69.0,33.0,20.0,41.0,20.0,20.0,3035.0,square4,f,0.1393,3,V,2.0
V2,70.0,37.0,17.0,43.0,21.0,43.0,3078.0,square3,i,0.0016,2,V,2.0
V2,71.0,45.0,31.0,36.0,58.0,36.0,3114.0,square3,i,0.1178,2,V,2.0
V2,72.0,47.0,31.0,31.0,54.0,31.0,3145.0,square3,i,0.0922,2,V,2.0
V2,73.0,50.0,30.0,33.0,55.0,50.0,3195.0,square1,j,0.0849,0,V,2.0
V2,74.0,45.0,31.0,36.0,51.0,45.0,3240.0,square1,j,0.1268,0,V,2.0
V2,75.0,47.0,28.0,38.0,54.0,47.0,3287.0,square1,j,0.0119,0,V,2.0
V2,76.0,52.0,33.0,35.0,60.0,52.0,3339.0,square1,j,0.0125,0,V,2.0
V2,77.0,41.0,29.0,37.0,53.0,41.0,3380.0,square1,j,0.1125,0,V,2.0
V2,78.0,51.0,24.0,34.0,56.0,24.0,3404.0,square2,r,0.0961,1,V,2.0
V2,79.0,41.0,34.0,36.0,52.0,41.0,3445.0,square1,j,0.1779,0,V,2.0
V2,80.0,48.0,31.0,37.0,51.0,51.0,3496.0,square4,f,0.0306,3,V,2.0
V2,81.0,43.0,32.0,40.0,53.0,53.0,3549.0,square4,f,0.0853,3,V,2.0
V2,82.0,48.0,25.0,37.0,58.0,58.0,3607.0,square4,f,0.001,3,V,2.0
V2,83.0,45.0,32.0,36.0,61.0,61.0,3668.0,square4,f,0.0274,3,V,2.0
V2,84.0,47.0,29.0,39.0,60.0,60.0,3728.0,square4,f,0.0585,3,V,2.0
V2,85.0,49.0,30.0,39.0,54.0,39.0,3767.0,square3,i,0.0164,2,V,2.0
V2,86.0,46.0,28.0,33.0,51.0,51.0,3818.0,square4,f,0.2087,3,V,2.0
V2,87.0,45.0,24.0,37.0,55.0,55.0,3873.0,square4,f,0.2283,3,V,2.0
V2,88.0,48.0,29.0,42.0,54.0,54.0,3927.0,square4,f,0.0921,3,V,2.0
V2,89.0,43.0,31.0,38.0,52.0,52.0,3979.0,square4,f,0.0919,3,V,2.0
V2,90.0,51.0,33.0,36.0,56.0,33.0,4012.0,square2,r,0.1811,1,V,2.0
V2,91.0,49.0,32.0,37.0,59.0,59.0,4071.0,square4,f,0.0992,3,V,2.0
V2,92.0,47.0,29.0,37.0,56.0,47.0,4118.0,square1,j,0.0322,0,V,2.0
V2,93.0,45.0,27.0,35.0,56.0,56.0,4174.0,square4,f,0.0615,3,V,2.0
V2,94.0,45.0,31.0,31.0,49.0,49.0,4223.0,square4,f,0.0662,3,V,2.0
V2,95.0,47.0,33.0,36.0,52.0,52.0,4275.0,square4,f,0.1128,3,V,2.0
V2,96.0,44.0,28.0,37.0,59.0,59.0,4334.0,square4,f,0.0682,3,V,2.0
V2,97.0,48.0,28.0,33.0,55.0,55.0,4389.0,square4,f,0.1482,3,V,2.0
V2,98.0,49.0,29.0,39.0,60.0,60.0,4449.0,square4,f,0.0635,3,V,2.0
V2,99.0,44.0,30.0,36.0,50.0,50.0,4499.0,square4,f,0.1628,3,V,2.0
V7,0.0,86.0,61.0,78.0,68.0,68.0,68.0,square4,r,0.8422,3,V,7.0
V7,1.0,95.0,62.0,79.0,70.0,70.0,138.0,square4,r,0.1685,3,V,7.0
V7,2.0,89.0,67.0,81.0,77.0,77.0,215.0,square4,r,0.1347,3,V,7.0
V7,3.0,90.0,56.0,85.0,72.0,56.0,271.0,square2,i,0.0013,1,V,7.0
V7,4.0,91.0,65.0,77.0,71.0,91.0,362.0,square1,f,0.0347,0,V,7.0
V7,5.0,91.0,58.0,84.0,72.0,91.0,453.0,square1,f,0.123,0,V,7.0
V7,6.0,94.0,65.0,87.0,72.0,94.0,547.0,square1,f,0.1776,0,V,7.0
V7,7.0,89.0,67.0,79.0,67.0,79.0,626.0,square3,j,0.0847,2,V,7.0
V7,8.0,91.0,65.0,84.0,68.0,91.0,717.0,square1,f,0.0356,0,V,7.0
V7,9.0,92.0,60.0,87.0,69.0,92.0,809.0,square1,f,0.0062,0,V,7.0
V7,10.0,90.0,67.0,81.0,76.0,90.0,899.0,square1,f,0.0013,0,V,7.0
V7,11.0,86.0,67.0,83.0,73.0,86.0,985.0,square1,f,0.035,0,V,7.0
V7,12.0,90.0,62.0,80.0,72.0,90.0,1075.0,square1,f,0.0057,0,V,7.0
V7,13.0,84.0,60.0,88.0,71.0,84.0,1159.0,square1,f,0.0011,0,V,7.0
V7,14.0,95.0,64.0,80.0,70.0,95.0,1254.0,square1,f,0.0895,0,V,7.0
V7,15.0,86.0,60.0,81.0,70.0,70.0,1324.0,square4,r,0.1137,3,V,7.0
V7,16.0,85.0,65.0,77.0,69.0,85.0,1409.0,square1,f,0.0016,0,V,7.0
V7,17.0,91.0,65.0,81.0,70.0,91.0,1500.0,square1,f,0.0839,0,V,7.0
V7,18.0,95.0,61.0,81.0,76.0,81.0,1581.0,square3,j,0.1338,2,V,7.0
V7,19.0,90.0,58.0,79.0,72.0,90.0,1671.0,square1,f,0.0013,0,V,7.0
V7,20.0,94.0,68.0,80.0,79.0,94.0,1765.0,square1,f,0.0352,0,V,7.0
V7,21.0,92.0,66.0,82.0,70.0,92.0,1857.0,square1,f,0.0016,0,V,7.0
V7,22.0,92.0,64.0,83.0,72.0,92.0,1949.0,square1,f,0.0681,0,V,7.0
V7,23.0,91.0,68.0,82.0,73.0,91.0,2040.0,square1,f,0.2342,0,V,7.0
V7,24.0,87.0,71.0,82.0,72.0,87.0,2127.0,square1,f,0.1341,0,V,7.0
V7,25.0,91.0,68.0,90.0,74.0,91.0,2218.0,square1,f,0.1058,0,V,7.0
V7,26.0,89.0,65.0,83.0,72.0,89.0,2307.0,square1,f,0.141,0,V,7.0
V7,27.0,91.0,61.0,81.0,73.0,91.0,2398.0,square1,f,0.1003,0,V,7.0
V7,28.0,90.0,66.0,81.0,72.0,90.0,2488.0,square1,f,0.0843,0,V,7.0
V7,29.0,89.0,67.0,77.0,71.0,89.0,2577.0,square1,f,0.0933,0,V,7.0
V7,30.0,95.0,68.0,84.0,71.0,95.0,2672.0,square1,f,0.1185,0,V,7.0
V7,31.0,95.0,61.0,81.0,70.0,95.0,2767.0,square1,f,0.1233,0,V,7.0
V7,32.0,89.0,65.0,82.0,75.0,89.0,2856.0,square1,f,0.1016,0,V,7.0
V7,33.0,77.0,50.0,80.0,61.0,77.0,2933.0,square1,f,0.1684,0,V,7.0
V7,34.0,76.0,54.0,78.0,61.0,54.0,2987.0,square2,i,0.0406,1,V,7.0
V7,35.0,71.0,51.0,80.0,64.0,80.0,3067.0,square3,j,0.0342,2,V,7.0
V7,36.0,75.0,51.0,80.0,62.0,62.0,3129.0,square4,r,0.035,3,V,7.0
V7,37.0,73.0,58.0,86.0,63.0,86.0,3215.0,square3,j,0.118,2,V,7.0
V7,38.0,73.0,50.0,86.0,61.0,73.0,3288.0,square1,f,0.0684,0,V,7.0
V7,39.0,67.0,53.0,78.0,61.0,78.0,3366.0,square3,j,0.123,2,V,7.0
V7,40.0,71.0,53.0,84.0,58.0,84.0,3450.0,square3,j,0.101,2,V,7.0
V7,41.0,75.0,51.0,83.0,63.0,83.0,3533.0,square3,j,0.1007,2,V,7.0
V7,42.0,69.0,48.0,87.0,63.0,87.0,3620.0,square3,j,0.0847,2,V,7.0
V7,43.0,70.0,58.0,81.0,60.0,81.0,3701.0,square3,j,0.0014,2,V,7.0
V7,44.0,68.0,56.0,76.0,63.0,76.0,3777.0,square3,j,0.0182,2,V,7.0
V7,45.0,74.0,59.0,76.0,56.0,59.0,3836.0,square2,i,0.0526,1,V,7.0
V7,46.0,72.0,54.0,77.0,61.0,61.0,3897.0,square4,r,0.0879,3,V,7.0
V7,47.0,69.0,47.0,81.0,62.0,81.0,3978.0,square3,j,0.1693,2,V,7.0
V7,48.0,75.0,52.0,81.0,57.0,81.0,4059.0,square3,j,0.1518,2,V,7.0
V7,49.0,74.0,55.0,78.0,60.0,78.0,4137.0,square3,j,0.1769,2,V,7.0
V7,50.0,71.0,51.0,80.0,61.0,80.0,4217.0,square3,j,0.0014,2,V,7.0
V7,51.0,75.0,55.0,85.0,62.0,75.0,4292.0,square1,f,0.0516,0,V,7.0
V7,52.0,75.0,59.0,76.0,59.0,76.0,4368.0,square3,j,0.1406,2,V,7.0
V7,53.0,72.0,53.0,84.0,66.0,84.0,4452.0,square3,j,0.0345,2,V,7.0
V7,54.0,69.0,51.0,81.0,60.0,69.0,4521.0,square1,f,0.152,0,V,7.0
V7,55.0,74.0,56.0,75.0,54.0,75.0,4596.0,square3,j,0.006,2,V,7.0
V7,56.0,76.0,51.0,83.0,58.0,83.0,4679.0,square3,j,0.0112,2,V,7.0
V7,57.0,71.0,53.0,80.0,64.0,53.0,4732.0,square2,i,0.1559,1,V,7.0
V7,58.0,81.0,56.0,79.0,61.0,79.0,4811.0,square3,j,0.0845,2,V,7.0
V7,59.0,71.0,55.0,83.0,59.0,59.0,4870.0,square4,r,0.0351,3,V,7.0
V7,60.0,73.0,53.0,83.0,64.0,83.0,4953.0,square3,j,0.0681,2,V,7.0
V7,61.0,70.0,53.0,77.0,63.0,77.0,5030.0,square3,j,0.1677,2,V,7.0
V7,62.0,71.0,54.0,76.0,61.0,76.0,5106.0,square3,j,0.1074,2,V,7.0
V7,63.0,68.0,45.0,79.0,65.0,79.0,5185.0,square3,j,0.1918,2,V,7.0
V7,64.0,65.0,55.0,79.0,59.0,79.0,5264.0,square3,j,0.0676,2,V,7.0
V7,65.0,74.0,54.0,81.0,61.0,81.0,5345.0,square3,j,0.1175,2,V,7.0
V7,66.0,70.0,56.0,81.0,63.0,81.0,5426.0,square3,j,0.1071,2,V,7.0
V7,67.0,70.0,85.0,64.0,92.0,64.0,5490.0,square3,j,0.0391,2,V,7.0
V7,68.0,73.0,85.0,68.0,92.0,73.0,5563.0,square1,f,0.0833,0,V,7.0
V7,69.0,75.0,83.0,70.0,91.0,75.0,5638.0,square1,f,0.1225,0,V,7.0
V7,70.0,75.0,85.0,69.0,91.0,85.0,5723.0,square2,i,0.1182,1,V,7.0
V7,71.0,71.0,86.0,65.0,94.0,86.0,5809.0,square2,i,0.0012,1,V,7.0
V7,72.0,77.0,86.0,65.0,98.0,98.0,5907.0,square4,r,0.0058,3,V,7.0
V7,73.0,77.0,84.0,63.0,94.0,94.0,6001.0,square4,r,0.1672,3,V,7.0
V7,74.0,71.0,86.0,64.0,91.0,91.0,6092.0,square4,r,0.0011,3,V,7.0
V7,75.0,73.0,90.0,60.0,90.0,90.0,6182.0,square4,r,0.1676,3,V,7.0
V7,76.0,79.0,84.0,68.0,95.0,95.0,6277.0,square4,r,0.0348,3,V,7.0
V7,77.0,73.0,85.0,66.0,89.0,89.0,6366.0,square4,r,0.0408,3,V,7.0
V7,78.0,75.0,82.0,67.0,91.0,91.0,6457.0,square4,r,0.135,3,V,7.0
V7,79.0,72.0,85.0,60.0,90.0,90.0,6547.0,square4,r,0.1179,3,V,7.0
V7,80.0,73.0,83.0,66.0,97.0,97.0,6644.0,square4,r,0.1158,3,V,7.0
V7,81.0,73.0,84.0,67.0,92.0,92.0,6736.0,square4,r,0.1002,3,V,7.0
V7,82.0,69.0,84.0,65.0,91.0,91.0,6827.0,square4,r,0.1008,3,V,7.0
V7,83.0,76.0,83.0,72.0,99.0,99.0,6926.0,square4,r,0.0536,3,V,7.0
V7,84.0,72.0,84.0,70.0,94.0,94.0,7020.0,square4,r,0.1178,3,V,7.0
V7,85.0,77.0,83.0,67.0,88.0,88.0,7108.0,square4,r,0.1515,3,V,7.0
V7,86.0,76.0,80.0,67.0,90.0,90.0,7198.0,square4,r,0.0896,3,V,7.0
V7,87.0,70.0,86.0,67.0,95.0,95.0,7293.0,square4,r,0.1681,3,V,7.0
V7,88.0,76.0,84.0,67.0,100.0,100.0,7393.0,square4,r,0.1344,3,V,7.0
V7,89.0,71.0,88.0,60.0,97.0,97.0,7490.0,square4,r,0.1839,3,V,7.0
V7,90.0,69.0,82.0,71.0,95.0,95.0,7585.0,square4,r,0.2346,3,V,7.0
V7,91.0,80.0,84.0,65.0,92.0,92.0,7677.0,square4,r,0.2025,3,V,7.0
V7,92.0,77.0,85.0,68.0,85.0,85.0,7762.0,square4,r,0.2347,3,V,7.0
V7,93.0,72.0,84.0,66.0,91.0,84.0,7846.0,square2,i,0.0349,1,V,7.0
V7,94.0,69.0,83.0,66.0,95.0,69.0,7915.0,square1,f,0.0512,0,V,7.0
V7,95.0,70.0,86.0,75.0,91.0,91.0,8006.0,square4,r,0.1349,3,V,7.0
V7,96.0,74.0,85.0,66.0,88.0,88.0,8094.0,square4,r,0.0355,3,V,7.0
V7,97.0,77.0,82.0,73.0,91.0,73.0,8167.0,square3,j,0.051,2,V,7.0
V7,98.0,76.0,91.0,62.0,94.0,94.0,8261.0,square4,r,0.1944,3,V,7.0
V7,99.0,74.0,84.0,67.0,88.0,88.0,8349.0,square4,r,0.1001,3,V,7.0
