block,Trial,square1,square2,square3,square4,currPoints,totalPoints,square,choiceKey.keys,choiceKey.rt,armNum,blockType,blockNum
prac,0.0,100.0,0.0,0.0,0.0,0,0.0,square2,,,1,p,0.0
prac,1.0,100.0,0.0,0.0,0.0,99999,0.0,invalid,,,-1,p,0.0
prac,2.0,100.0,0.0,0.0,0.0,100,100.0,square1,,,0,p,0.0
prac,3.0,100.0,0.0,0.0,0.0,99999,100.0,invalid,,,-1,p,0.0
prac,4.0,100.0,0.0,0.0,0.0,0,100.0,square3,,,2,p,0.0
prac,5.0,100.0,0.0,0.0,0.0,99999,100.0,invalid,,,-1,p,0.0
prac,6.0,100.0,0.0,0.0,0.0,99999,100.0,invalid,,,-1,p,0.0
prac,7.0,100.0,0.0,0.0,0.0,0,100.0,square2,,,1,p,0.0
prac,8.0,100.0,0.0,0.0,0.0,100,200.0,square1,,,0,p,0.0
prac,9.0,100.0,0.0,0.0,0.0,100,300.0,square1,,,0,p,0.0
S6,0.0,40.0,29.0,39.0,26.0,26,26.0,square4,r,0.9751,3,S,6.0
S6,1.0,34.0,40.0,31.0,25.0,31,57.0,square3,i,1.0237,2,S,6.0
S6,2.0,37.0,31.0,25.0,30.0,25,82.0,square3,i,0.7786,2,S,6.0
S6,3.0,39.0,37.0,30.0,27.0,37,119.0,square2,f,0.894,1,S,6.0
S6,4.0,42.0,40.0,28.0,32.0,40,159.0,square2,f,0.4768,1,S,6.0
S6,5.0,35.0,35.0,39.0,29.0,35,194.0,square2,f,0.3443,1,S,6.0
S6,6.0,48.0,30.0,37.0,33.0,48,242.0,square1,j,0.5555,0,S,6.0
S6,7.0,47.0,34.0,31.0,29.0,47,289.0,square1,j,0.3095,0,S,6.0
S6,8.0,43.0,35.0,30.0,25.0,43,332.0,square1,j,0.1465,0,S,6.0
S6,9.0,36.0,38.0,35.0,35.0,35,367.0,square4,r,0.1931,3,S,6.0
S6,10.0,38.0,35.0,31.0,21.0,38,405.0,square1,j,0.0003,0,S,6.0
S6,11.0,30.0,36.0,31.0,20.0,31,436.0,square3,i,0.6423,2,S,6.0
S6,12.0,37.0,40.0,33.0,22.0,33,469.0,square3,i,0.2763,2,S,6.0
S6,13.0,32.0,41.0,35.0,29.0,35,504.0,square3,i,0.4928,2,S,6.0
S6,14.0,41.0,29.0,30.0,32.0,30,534.0,square3,i,0.3726,2,S,6.0
S6,15.0,43.0,37.0,31.0,27.0,37,571.0,square2,f,0.3556,1,S,6.0
S6,16.0,34.0,34.0,35.0,31.0,34,605.0,square2,f,0.2685,1,S,6.0
S6,17.0,47.0,40.0,29.0,28.0,47,652.0,square1,j,0.3616,0,S,6.0
S6,18.0,37.0,38.0,34.0,35.0,37,689.0,square1,j,0.4275,0,S,6.0
S6,19.0,36.0,39.0,31.0,26.0,26,715.0,square4,r,0.0453,3,S,6.0
S6,20.0,44.0,40.0,31.0,25.0,44,759.0,square1,j,0.0274,0,S,6.0
S6,21.0,39.0,41.0,35.0,24.0,39,798.0,square1,j,0.2766,0,S,6.0
S6,22.0,41.0,38.0,41.0,31.0,41,839.0,square1,j,0.2946,0,S,6.0
S6,23.0,37.0,31.0,30.0,32.0,30,869.0,square3,i,0.2894,2,S,6.0
S6,24.0,48.0,34.0,34.0,21.0,34,903.0,square3,i,0.3085,2,S,6.0
S6,25.0,42.0,45.0,26.0,29.0,26,929.0,square3,i,0.1434,2,S,6.0
S6,26.0,40.0,39.0,36.0,28.0,28,957.0,square4,r,0.3744,3,S,6.0
S6,27.0,42.0,33.0,29.0,29.0,29,986.0,square4,r,0.2941,3,S,6.0
S6,28.0,41.0,30.0,29.0,29.0,30,1016.0,square2,f,0.131,1,S,6.0
S6,29.0,42.0,40.0,32.0,27.0,40,1056.0,square2,f,0.245,1,S,6.0
S6,30.0,42.0,36.0,30.0,26.0,36,1092.0,square2,f,0.2935,1,S,6.0
S6,31.0,42.0,34.0,35.0,29.0,42,1134.0,square1,j,0.2762,0,S,6.0
S6,32.0,35.0,36.0,31.0,23.0,35,1169.0,square1,j,0.2924,0,S,6.0
S6,33.0,35.0,31.0,35.0,30.0,35,1204.0,square1,j,0.1267,0,S,6.0
S6,34.0,40.0,38.0,31.0,27.0,40,1244.0,square1,j,0.2702,0,S,6.0
S6,35.0,42.0,37.0,34.0,34.0,34,1278.0,square3,i,0.1825,2,S,6.0
S6,36.0,37.0,46.0,31.0,34.0,31,1309.0,square3,i,0.427,2,S,6.0
S6,37.0,38.0,40.0,30.0,26.0,38,1347.0,square1,j,0.4268,0,S,6.0
S6,38.0,36.0,34.0,31.0,33.0,99999,1347.0,invalid,,,-1,S,6.0
S6,39.0,44.0,37.0,33.0,31.0,99999,1347.0,invalid,,,-1,S,6.0
S6,40.0,40.0,38.0,31.0,25.0,40,1387.0,square1,j,0.3804,0,S,6.0
S6,41.0,49.0,35.0,35.0,28.0,35,1422.0,square3,i,0.569,2,S,6.0
S6,42.0,44.0,40.0,32.0,28.0,28,1450.0,square4,r,0.495,3,S,6.0
S6,43.0,43.0,36.0,33.0,26.0,26,1476.0,square4,r,0.4716,3,S,6.0
S6,44.0,38.0,33.0,34.0,26.0,33,1509.0,square2,f,0.2981,1,S,6.0
S6,45.0,32.0,35.0,30.0,28.0,35,1544.0,square2,f,0.2207,1,S,6.0
S6,46.0,38.0,36.0,34.0,30.0,36,1580.0,square2,f,0.1969,1,S,6.0
S6,47.0,44.0,35.0,32.0,31.0,35,1615.0,square2,f,0.2288,1,S,6.0
S6,48.0,40.0,40.0,31.0,33.0,40,1655.0,square2,f,0.3119,1,S,6.0
S6,49.0,41.0,29.0,29.0,29.0,29,1684.0,square2,f,0.2273,1,S,6.0
S4,0.0,18.0,16.0,34.0,20.0,16,16.0,square2,r,0.8802,1,S,4.0
S4,1.0,33.0,26.0,26.0,23.0,33,49.0,square1,i,0.6542,0,S,4.0
S4,2.0,35.0,15.0,33.0,22.0,22,71.0,square4,j,0.4263,3,S,4.0
S4,3.0,28.0,19.0,27.0,27.0,27,98.0,square3,f,0.4767,2,S,4.0
S4,4.0,27.0,16.0,25.0,28.0,27,125.0,square1,i,0.2431,0,S,4.0
S4,5.0,23.0,22.0,31.0,24.0,23,148.0,square1,i,0.2302,0,S,4.0
S4,6.0,25.0,20.0,34.0,23.0,34,182.0,square3,f,0.0031,2,S,4.0
S4,7.0,21.0,22.0,30.0,21.0,30,212.0,square3,f,0.3272,2,S,4.0
S4,8.0,33.0,24.0,33.0,17.0,33,245.0,square3,f,0.3438,2,S,4.0
S4,9.0,24.0,18.0,31.0,28.0,31,276.0,square3,f,0.3111,2,S,4.0
S4,10.0,31.0,26.0,35.0,20.0,20,296.0,square4,j,0.0461,3,S,4.0
S4,11.0,25.0,15.0,31.0,25.0,25,321.0,square4,j,0.2815,3,S,4.0
S4,12.0,24.0,16.0,29.0,22.0,22,343.0,square4,j,0.2269,3,S,4.0
S4,13.0,28.0,23.0,25.0,17.0,28,371.0,square1,i,0.0209,0,S,4.0
S4,14.0,22.0,23.0,21.0,23.0,22,393.0,square1,i,0.4201,0,S,4.0
S4,15.0,25.0,19.0,28.0,25.0,19,412.0,square2,r,0.0708,1,S,4.0
S4,16.0,26.0,17.0,30.0,21.0,17,429.0,square2,r,0.1779,1,S,4.0
S4,17.0,22.0,21.0,29.0,22.0,29,458.0,square3,f,0.1605,2,S,4.0
S4,18.0,28.0,22.0,32.0,22.0,32,490.0,square3,f,0.0978,2,S,4.0
S4,19.0,26.0,19.0,31.0,26.0,31,521.0,square3,f,0.1914,2,S,4.0
S4,20.0,28.0,18.0,28.0,25.0,28,549.0,square3,f,0.0274,2,S,4.0
S4,21.0,33.0,26.0,21.0,29.0,21,570.0,square3,f,0.093,2,S,4.0
S4,22.0,31.0,19.0,29.0,20.0,31,601.0,square1,i,0.0598,0,S,4.0
S4,23.0,27.0,21.0,36.0,26.0,27,628.0,square1,i,0.3111,0,S,4.0
S4,24.0,28.0,15.0,32.0,21.0,28,656.0,square1,i,0.1433,0,S,4.0
S4,25.0,27.0,18.0,28.0,25.0,27,683.0,square1,i,0.1794,0,S,4.0
S4,26.0,26.0,20.0,27.0,14.0,14,697.0,square4,j,0.0764,3,S,4.0
S4,27.0,28.0,19.0,36.0,18.0,18,715.0,square4,j,0.0154,3,S,4.0
S4,28.0,28.0,19.0,28.0,23.0,23,738.0,square4,j,0.16,3,S,4.0
S4,29.0,25.0,22.0,29.0,23.0,23,761.0,square4,j,0.0277,3,S,4.0
S4,30.0,26.0,16.0,30.0,20.0,26,787.0,square1,i,1.0644,0,S,4.0
S4,31.0,23.0,25.0,26.0,30.0,23,810.0,square1,i,0.0469,0,S,4.0
S4,32.0,21.0,26.0,22.0,23.0,22,832.0,square3,f,0.4749,2,S,4.0
S4,33.0,25.0,22.0,24.0,17.0,24,856.0,square3,f,0.0603,2,S,4.0
S4,34.0,30.0,22.0,33.0,24.0,33,889.0,square3,f,0.2037,2,S,4.0
S4,35.0,23.0,21.0,35.0,26.0,35,924.0,square3,f,0.1128,2,S,4.0
S4,36.0,19.0,21.0,33.0,24.0,33,957.0,square3,f,0.2289,2,S,4.0
S4,37.0,20.0,17.0,26.0,26.0,26,983.0,square3,f,0.2541,2,S,4.0
S4,38.0,28.0,20.0,28.0,26.0,20,1003.0,square2,r,0.2798,1,S,4.0
S4,39.0,28.0,23.0,40.0,27.0,23,1026.0,square2,r,0.3112,1,S,4.0
S4,40.0,25.0,24.0,32.0,22.0,24,1050.0,square2,r,0.1966,1,S,4.0
S4,41.0,23.0,23.0,26.0,17.0,26,1076.0,square3,f,0.078,2,S,4.0
S4,42.0,26.0,18.0,33.0,22.0,33,1109.0,square3,f,0.349,2,S,4.0
S4,43.0,22.0,21.0,36.0,25.0,36,1145.0,square3,f,0.2934,2,S,4.0
S4,44.0,21.0,18.0,33.0,14.0,33,1178.0,square3,f,0.3099,2,S,4.0
S4,45.0,29.0,19.0,30.0,29.0,30,1208.0,square3,f,0.3374,2,S,4.0
S4,46.0,21.0,16.0,22.0,23.0,22,1230.0,square3,f,0.2312,2,S,4.0
S4,47.0,22.0,18.0,28.0,22.0,28,1258.0,square3,f,0.3285,2,S,4.0
S4,48.0,33.0,21.0,32.0,26.0,32,1290.0,square3,f,0.3118,2,S,4.0
S4,49.0,23.0,17.0,20.0,21.0,20,1310.0,square3,f,0.1609,2,S,4.0
S7,0.0,68.0,73.0,62.0,57.0,68,68.0,square1,r,0.5171,0,S,7.0
S7,1.0,74.0,67.0,66.0,59.0,66,134.0,square3,i,0.3629,2,S,7.0
S7,2.0,68.0,69.0,65.0,60.0,69,203.0,square2,j,0.3286,1,S,7.0
S7,3.0,74.0,68.0,65.0,63.0,63,266.0,square4,f,0.4535,3,S,7.0
S7,4.0,68.0,74.0,67.0,63.0,74,340.0,square2,j,0.1783,1,S,7.0
S7,5.0,68.0,67.0,61.0,57.0,67,407.0,square2,j,0.2896,1,S,7.0
S7,6.0,72.0,64.0,65.0,51.0,64,471.0,square2,j,0.329,1,S,7.0
S7,7.0,69.0,63.0,69.0,63.0,69,540.0,square1,r,0.4297,0,S,7.0
S7,8.0,71.0,68.0,63.0,54.0,71,611.0,square1,r,0.3721,0,S,7.0
S7,9.0,81.0,66.0,68.0,62.0,81,692.0,square1,r,0.3329,0,S,7.0
S7,10.0,72.0,73.0,68.0,61.0,72,764.0,square1,r,0.3098,0,S,7.0
S7,11.0,72.0,72.0,62.0,58.0,72,836.0,square1,r,0.1648,0,S,7.0
S7,12.0,66.0,66.0,62.0,61.0,66,902.0,square1,r,0.3307,0,S,7.0
S7,13.0,73.0,75.0,75.0,68.0,75,977.0,square3,i,0.0366,2,S,7.0
S7,14.0,71.0,73.0,72.0,66.0,72,1049.0,square3,i,0.2795,2,S,7.0
S7,15.0,75.0,68.0,68.0,65.0,68,1117.0,square3,i,0.0435,2,S,7.0
S7,16.0,67.0,65.0,62.0,56.0,62,1179.0,square3,i,0.1849,2,S,7.0
S7,17.0,72.0,67.0,63.0,64.0,63,1242.0,square3,i,0.3624,2,S,7.0
S7,18.0,73.0,69.0,66.0,65.0,73,1315.0,square1,r,0.3544,0,S,7.0
S7,19.0,75.0,70.0,62.0,58.0,75,1390.0,square1,r,0.1237,0,S,7.0
S7,20.0,76.0,63.0,67.0,62.0,76,1466.0,square1,r,0.0289,0,S,7.0
S7,21.0,79.0,76.0,63.0,64.0,79,1545.0,square1,r,0.2233,0,S,7.0
S7,22.0,67.0,72.0,63.0,62.0,67,1612.0,square1,r,0.2323,0,S,7.0
S7,23.0,69.0,71.0,70.0,62.0,69,1681.0,square1,r,0.1957,0,S,7.0
S7,24.0,74.0,67.0,70.0,62.0,74,1755.0,square1,r,0.0947,0,S,7.0
S7,25.0,70.0,67.0,72.0,62.0,70,1825.0,square1,r,0.2036,0,S,7.0
S7,26.0,72.0,62.0,74.0,65.0,72,1897.0,square1,r,0.2099,0,S,7.0
S7,27.0,69.0,70.0,68.0,62.0,69,1966.0,square1,r,0.1376,0,S,7.0
S7,28.0,65.0,66.0,60.0,62.0,65,2031.0,square1,r,0.2464,0,S,7.0
S7,29.0,70.0,64.0,60.0,68.0,70,2101.0,square1,r,0.221,0,S,7.0
S7,30.0,69.0,69.0,64.0,57.0,69,2170.0,square1,r,0.2946,0,S,7.0
S7,31.0,77.0,67.0,65.0,60.0,77,2247.0,square1,r,0.2618,0,S,7.0
S7,32.0,67.0,75.0,65.0,58.0,75,2322.0,square2,j,0.2075,1,S,7.0
S7,33.0,74.0,66.0,66.0,60.0,66,2388.0,square2,j,0.0718,1,S,7.0
S7,34.0,72.0,72.0,66.0,61.0,72,2460.0,square1,r,0.2987,0,S,7.0
S7,35.0,67.0,68.0,64.0,62.0,67,2527.0,square1,r,0.054,0,S,7.0
S7,36.0,64.0,63.0,70.0,58.0,64,2591.0,square1,r,0.5442,0,S,7.0
S7,37.0,80.0,72.0,64.0,53.0,80,2671.0,square1,r,0.2272,0,S,7.0
S7,38.0,78.0,69.0,76.0,67.0,78,2749.0,square1,r,0.31,0,S,7.0
S7,39.0,69.0,66.0,60.0,67.0,69,2818.0,square1,r,0.2387,0,S,7.0
S7,40.0,72.0,71.0,63.0,66.0,72,2890.0,square1,r,0.1119,0,S,7.0
S7,41.0,80.0,73.0,65.0,63.0,80,2970.0,square1,r,0.1423,0,S,7.0
S7,42.0,77.0,60.0,65.0,59.0,77,3047.0,square1,r,0.1749,0,S,7.0
S7,43.0,70.0,72.0,70.0,63.0,70,3117.0,square1,r,0.0436,0,S,7.0
S7,44.0,77.0,70.0,66.0,58.0,77,3194.0,square1,r,0.0319,0,S,7.0
S7,45.0,75.0,69.0,73.0,58.0,75,3269.0,square1,r,0.0049,0,S,7.0
S7,46.0,74.0,71.0,63.0,63.0,74,3343.0,square1,r,0.155,0,S,7.0
S7,47.0,73.0,75.0,71.0,64.0,73,3416.0,square1,r,0.0543,0,S,7.0
S7,48.0,78.0,79.0,64.0,58.0,58,3474.0,square4,f,0.2941,3,S,7.0
S7,49.0,75.0,72.0,66.0,72.0,75,3549.0,square1,r,0.0086,0,S,7.0
S2,0.0,62.0,57.0,71.0,74.0,74,74.0,square4,i,0.5939,3,S,2.0
S2,1.0,64.0,59.0,72.0,67.0,72,146.0,square3,r,0.2768,2,S,2.0
S2,2.0,68.0,57.0,75.0,68.0,57,203.0,square2,f,0.1334,1,S,2.0
S2,3.0,69.0,57.0,80.0,70.0,69,272.0,square1,j,0.0938,0,S,2.0
S2,4.0,66.0,60.0,74.0,68.0,68,340.0,square4,i,0.2472,3,S,2.0
S2,5.0,63.0,62.0,77.0,72.0,72,412.0,square4,i,0.1553,3,S,2.0
S2,6.0,69.0,61.0,75.0,74.0,74,486.0,square4,i,0.1644,3,S,2.0
S2,7.0,74.0,66.0,79.0,72.0,72,558.0,square4,i,0.1657,3,S,2.0
S2,8.0,81.0,65.0,76.0,72.0,72,630.0,square4,i,0.1111,3,S,2.0
S2,9.0,70.0,66.0,78.0,70.0,70,700.0,square4,i,0.1782,3,S,2.0
S2,10.0,70.0,72.0,70.0,74.0,74,774.0,square4,i,0.1092,3,S,2.0
S2,11.0,64.0,66.0,72.0,67.0,67,841.0,square4,i,0.1547,3,S,2.0
S2,12.0,66.0,57.0,70.0,67.0,70,911.0,square3,r,0.1404,2,S,2.0
S2,13.0,68.0,68.0,71.0,73.0,71,982.0,square3,r,0.2436,2,S,2.0
S2,14.0,70.0,63.0,77.0,71.0,77,1059.0,square3,r,0.729,2,S,2.0
S2,15.0,64.0,66.0,75.0,66.0,75,1134.0,square3,r,0.2891,2,S,2.0
S2,16.0,67.0,61.0,73.0,70.0,73,1207.0,square3,r,0.2273,2,S,2.0
S2,17.0,65.0,58.0,71.0,75.0,71,1278.0,square3,r,0.0734,2,S,2.0
S2,18.0,72.0,64.0,81.0,61.0,81,1359.0,square3,r,0.0871,2,S,2.0
S2,19.0,60.0,63.0,72.0,65.0,72,1431.0,square3,r,0.2613,2,S,2.0
S2,20.0,68.0,56.0,71.0,70.0,71,1502.0,square3,r,1.0686,2,S,2.0
S2,21.0,65.0,65.0,74.0,71.0,74,1576.0,square3,r,0.3824,2,S,2.0
S2,22.0,69.0,62.0,77.0,72.0,77,1653.0,square3,r,0.1833,2,S,2.0
S2,23.0,64.0,71.0,74.0,65.0,74,1727.0,square3,r,0.1835,2,S,2.0
S2,24.0,66.0,62.0,78.0,70.0,78,1805.0,square3,r,0.1641,2,S,2.0
S2,25.0,67.0,69.0,76.0,66.0,76,1881.0,square3,r,0.0421,2,S,2.0
S2,26.0,65.0,63.0,74.0,69.0,74,1955.0,square3,r,0.2286,2,S,2.0
S2,27.0,68.0,64.0,67.0,68.0,67,2022.0,square3,r,0.0932,2,S,2.0
S2,28.0,61.0,52.0,71.0,68.0,52,2074.0,square2,f,0.2425,1,S,2.0
S2,29.0,67.0,64.0,73.0,69.0,67,2141.0,square1,j,0.1209,0,S,2.0
S2,30.0,67.0,53.0,77.0,67.0,77,2218.0,square3,r,0.0028,2,S,2.0
S2,31.0,67.0,69.0,69.0,68.0,69,2287.0,square3,r,0.245,2,S,2.0
S2,32.0,71.0,63.0,73.0,70.0,73,2360.0,square3,r,0.0565,2,S,2.0
S2,33.0,61.0,65.0,68.0,71.0,68,2428.0,square3,r,0.0898,2,S,2.0
S2,34.0,66.0,55.0,78.0,68.0,78,2506.0,square3,r,0.0436,2,S,2.0
S2,35.0,60.0,57.0,66.0,66.0,66,2572.0,square3,r,0.0651,2,S,2.0
S2,36.0,64.0,63.0,73.0,72.0,73,2645.0,square3,r,0.1062,2,S,2.0
S2,37.0,65.0,62.0,75.0,68.0,75,2720.0,square3,r,0.1018,2,S,2.0
S2,38.0,69.0,57.0,71.0,62.0,71,2791.0,square3,r,0.2076,2,S,2.0
S2,39.0,72.0,66.0,74.0,74.0,74,2865.0,square3,r,0.0003,2,S,2.0
S2,40.0,66.0,63.0,76.0,59.0,76,2941.0,square3,r,0.1424,2,S,2.0
S2,41.0,74.0,64.0,67.0,76.0,67,3008.0,square3,r,0.0976,2,S,2.0
S2,42.0,62.0,67.0,72.0,68.0,72,3080.0,square3,r,0.1633,2,S,2.0
S2,43.0,69.0,63.0,75.0,71.0,75,3155.0,square3,r,0.0005,2,S,2.0
S2,44.0,72.0,60.0,74.0,67.0,74,3229.0,square3,r,0.0064,2,S,2.0
S2,45.0,69.0,63.0,76.0,73.0,76,3305.0,square3,r,0.0455,2,S,2.0
S2,46.0,64.0,71.0,75.0,72.0,75,3380.0,square3,r,0.0566,2,S,2.0
S2,47.0,75.0,62.0,75.0,69.0,75,3455.0,square3,r,0.0599,2,S,2.0
S2,48.0,66.0,65.0,74.0,68.0,74,3529.0,square3,r,0.0213,2,S,2.0
S2,49.0,67.0,64.0,72.0,76.0,72,3601.0,square3,r,0.0952,2,S,2.0
S10,0.0,72.0,76.0,80.0,64.0,76,76.0,square2,i,0.991,1,S,10.0
S10,1.0,76.0,75.0,74.0,65.0,65,141.0,square4,r,0.3613,3,S,10.0
S10,2.0,70.0,72.0,79.0,74.0,70,211.0,square1,f,0.5134,0,S,10.0
S10,3.0,69.0,77.0,76.0,68.0,76,287.0,square3,j,0.471,2,S,10.0
S10,4.0,72.0,79.0,77.0,70.0,77,364.0,square3,j,0.4618,2,S,10.0
S10,5.0,68.0,74.0,72.0,64.0,72,436.0,square3,j,0.3107,2,S,10.0
S10,6.0,70.0,77.0,72.0,62.0,72,508.0,square3,j,0.227,2,S,10.0
S10,7.0,78.0,81.0,80.0,74.0,80,588.0,square3,j,0.4807,2,S,10.0
S10,8.0,78.0,78.0,82.0,66.0,82,670.0,square3,j,0.2653,2,S,10.0
S10,9.0,69.0,76.0,77.0,65.0,77,747.0,square3,j,0.1117,2,S,10.0
S10,10.0,72.0,78.0,72.0,75.0,78,825.0,square2,i,0.0003,1,S,10.0
S10,11.0,71.0,76.0,78.0,66.0,66,891.0,square4,r,0.6452,3,S,10.0
S10,12.0,73.0,83.0,79.0,69.0,83,974.0,square2,i,0.1634,1,S,10.0
S10,13.0,68.0,77.0,65.0,65.0,77,1051.0,square2,i,0.1359,1,S,10.0
S10,14.0,69.0,84.0,79.0,65.0,84,1135.0,square2,i,0.0478,1,S,10.0
S10,15.0,72.0,84.0,70.0,71.0,70,1205.0,square3,j,0.0472,2,S,10.0
S10,16.0,79.0,80.0,82.0,67.0,80,1285.0,square2,i,0.1146,1,S,10.0
S10,17.0,69.0,83.0,75.0,70.0,83,1368.0,square2,i,0.3585,1,S,10.0
S10,18.0,69.0,75.0,69.0,68.0,75,1443.0,square2,i,0.1112,1,S,10.0
S10,19.0,70.0,83.0,73.0,66.0,83,1526.0,square2,i,0.1388,1,S,10.0
S10,20.0,69.0,83.0,75.0,66.0,83,1609.0,square2,i,0.1966,1,S,10.0
S10,21.0,77.0,70.0,75.0,70.0,70,1679.0,square2,i,0.1575,1,S,10.0
S10,22.0,73.0,77.0,81.0,69.0,77,1756.0,square2,i,0.1791,1,S,10.0
S10,23.0,73.0,78.0,70.0,65.0,78,1834.0,square2,i,0.1654,1,S,10.0
S10,24.0,70.0,80.0,75.0,66.0,80,1914.0,square2,i,0.1823,1,S,10.0
S10,25.0,70.0,80.0,73.0,72.0,80,1994.0,square2,i,0.16,1,S,10.0
S10,26.0,73.0,75.0,73.0,75.0,75,2069.0,square2,i,0.06,1,S,10.0
S10,27.0,77.0,81.0,83.0,66.0,81,2150.0,square2,i,0.0404,1,S,10.0
S10,28.0,73.0,79.0,79.0,73.0,79,2229.0,square2,i,0.1947,1,S,10.0
S10,29.0,73.0,79.0,72.0,69.0,79,2308.0,square2,i,0.0451,1,S,10.0
S10,30.0,71.0,85.0,79.0,69.0,85,2393.0,square2,i,0.112,1,S,10.0
S10,31.0,71.0,85.0,83.0,66.0,85,2478.0,square2,i,0.2234,1,S,10.0
S10,32.0,78.0,79.0,77.0,65.0,79,2557.0,square2,i,0.0269,1,S,10.0
S10,33.0,83.0,79.0,72.0,68.0,79,2636.0,square2,i,0.1561,1,S,10.0
S10,34.0,68.0,74.0,79.0,72.0,74,2710.0,square2,i,0.1796,1,S,10.0
S10,35.0,70.0,83.0,79.0,67.0,83,2793.0,square2,i,0.0575,1,S,10.0
S10,36.0,67.0,76.0,75.0,72.0,76,2869.0,square2,i,0.087,1,S,10.0
S10,37.0,76.0,82.0,79.0,60.0,82,2951.0,square2,i,0.0269,1,S,10.0
S10,38.0,72.0,75.0,69.0,68.0,75,3026.0,square2,i,0.0963,1,S,10.0
S10,39.0,73.0,78.0,76.0,70.0,78,3104.0,square2,i,0.0281,1,S,10.0
S10,40.0,76.0,77.0,66.0,60.0,77,3181.0,square2,i,0.183,1,S,10.0
S10,41.0,74.0,83.0,73.0,67.0,83,3264.0,square2,i,0.0468,1,S,10.0
S10,42.0,72.0,69.0,80.0,63.0,69,3333.0,square2,i,0.1112,1,S,10.0
S10,43.0,69.0,74.0,72.0,68.0,74,3407.0,square2,i,0.1957,1,S,10.0
S10,44.0,67.0,76.0,70.0,65.0,76,3483.0,square2,i,0.1951,1,S,10.0
S10,45.0,76.0,81.0,74.0,72.0,81,3564.0,square2,i,0.03,1,S,10.0
S10,46.0,76.0,79.0,76.0,66.0,79,3643.0,square2,i,0.0604,1,S,10.0
S10,47.0,67.0,81.0,84.0,60.0,81,3724.0,square2,i,0.0798,1,S,10.0
S10,48.0,73.0,83.0,75.0,66.0,83,3807.0,square2,i,0.0501,1,S,10.0
S10,49.0,66.0,77.0,74.0,71.0,77,3884.0,square2,i,0.1567,1,S,10.0
S9,0.0,36.0,36.0,32.0,32.0,36,36.0,square1,i,0.732,0,S,9.0
S9,1.0,40.0,29.0,36.0,24.0,36,72.0,square3,r,0.1623,2,S,9.0
S9,2.0,31.0,43.0,22.0,29.0,43,115.0,square2,j,0.1558,1,S,9.0
S9,3.0,41.0,33.0,28.0,27.0,27,142.0,square4,f,0.4708,3,S,9.0
S9,4.0,34.0,29.0,32.0,31.0,29,171.0,square2,j,0.1108,1,S,9.0
S9,5.0,41.0,32.0,22.0,29.0,32,203.0,square2,j,0.0972,1,S,9.0
S9,6.0,44.0,30.0,21.0,28.0,30,233.0,square2,j,0.178,1,S,9.0
S9,7.0,39.0,37.0,26.0,24.0,37,270.0,square2,j,0.243,1,S,9.0
S9,8.0,41.0,33.0,23.0,20.0,33,303.0,square2,j,0.3364,1,S,9.0
S9,9.0,30.0,35.0,24.0,27.0,35,338.0,square2,j,0.2447,1,S,9.0
S9,10.0,41.0,29.0,23.0,28.0,29,367.0,square2,j,0.1282,1,S,9.0
S9,11.0,37.0,38.0,22.0,33.0,22,389.0,square3,r,0.0397,2,S,9.0
S9,12.0,35.0,31.0,27.0,32.0,35,424.0,square1,i,0.0624,0,S,9.0
S9,13.0,38.0,37.0,30.0,29.0,38,462.0,square1,i,0.194,0,S,9.0
S9,14.0,36.0,38.0,30.0,37.0,36,498.0,square1,i,0.0095,0,S,9.0
S9,15.0,40.0,29.0,27.0,24.0,40,538.0,square1,i,0.1404,0,S,9.0
S9,16.0,33.0,37.0,29.0,28.0,33,571.0,square1,i,0.2796,0,S,9.0
S9,17.0,41.0,32.0,36.0,31.0,41,612.0,square1,i,0.0777,0,S,9.0
S9,18.0,39.0,26.0,16.0,35.0,39,651.0,square1,i,0.0658,0,S,9.0
S9,19.0,35.0,30.0,23.0,27.0,35,686.0,square1,i,0.2038,0,S,9.0
S9,20.0,39.0,34.0,23.0,29.0,39,725.0,square1,i,0.0004,0,S,9.0
S9,21.0,35.0,37.0,28.0,31.0,35,760.0,square1,i,0.0608,0,S,9.0
S9,22.0,37.0,30.0,23.0,38.0,37,797.0,square1,i,0.1928,0,S,9.0
S9,23.0,37.0,34.0,27.0,34.0,37,834.0,square1,i,0.1614,0,S,9.0
S9,24.0,31.0,34.0,26.0,27.0,31,865.0,square1,i,0.2287,0,S,9.0
S9,25.0,38.0,40.0,29.0,24.0,38,903.0,square1,i,0.089,0,S,9.0
S9,26.0,43.0,31.0,21.0,24.0,43,946.0,square1,i,0.1613,0,S,9.0
S9,27.0,30.0,31.0,23.0,28.0,30,976.0,square1,i,0.4141,0,S,9.0
S9,28.0,44.0,32.0,31.0,32.0,44,1020.0,square1,i,0.428,0,S,9.0
S9,29.0,36.0,38.0,22.0,22.0,36,1056.0,square1,i,0.3775,0,S,9.0
S9,30.0,41.0,30.0,26.0,29.0,41,1097.0,square1,i,0.2444,0,S,9.0
S9,31.0,39.0,37.0,30.0,32.0,39,1136.0,square1,i,0.3403,0,S,9.0
S9,32.0,35.0,39.0,28.0,31.0,35,1171.0,square1,i,0.3071,0,S,9.0
S9,33.0,37.0,39.0,29.0,32.0,37,1208.0,square1,i,0.0743,0,S,9.0
S9,34.0,46.0,33.0,21.0,25.0,46,1254.0,square1,i,0.1107,0,S,9.0
S9,35.0,38.0,33.0,28.0,28.0,38,1292.0,square1,i,0.2467,0,S,9.0
S9,36.0,40.0,37.0,21.0,32.0,40,1332.0,square1,i,0.2964,0,S,9.0
S9,37.0,38.0,43.0,23.0,37.0,38,1370.0,square1,i,0.2059,0,S,9.0
S9,38.0,36.0,31.0,29.0,29.0,36,1406.0,square1,i,0.1827,0,S,9.0
S9,39.0,41.0,29.0,26.0,28.0,41,1447.0,square1,i,0.0922,0,S,9.0
S9,40.0,32.0,36.0,26.0,28.0,32,1479.0,square1,i,1.5784,0,S,9.0
S9,41.0,40.0,37.0,35.0,28.0,40,1519.0,square1,i,0.1471,0,S,9.0
S9,42.0,43.0,32.0,26.0,37.0,43,1562.0,square1,i,0.0432,0,S,9.0
S9,43.0,40.0,31.0,23.0,31.0,40,1602.0,square1,i,0.1981,0,S,9.0
S9,44.0,42.0,38.0,24.0,40.0,42,1644.0,square1,i,0.0979,0,S,9.0
S9,45.0,36.0,35.0,30.0,33.0,36,1680.0,square1,i,0.1123,0,S,9.0
S9,46.0,38.0,30.0,33.0,26.0,38,1718.0,square1,i,0.1818,0,S,9.0
S9,47.0,39.0,37.0,25.0,26.0,39,1757.0,square1,i,0.0771,0,S,9.0
S9,48.0,36.0,35.0,26.0,27.0,36,1793.0,square1,i,0.0571,0,S,9.0
S9,49.0,40.0,32.0,24.0,28.0,40,1833.0,square1,i,0.1114,0,S,9.0
V5,0.0,46.0,21.0,37.0,28.0,21,21.0,square2,r,0.8144,1,V,5.0
V5,1.0,43.0,27.0,36.0,31.0,31,52.0,square4,j,0.3066,3,V,5.0
V5,2.0,50.0,18.0,43.0,32.0,43,95.0,square3,i,0.4267,2,V,5.0
V5,3.0,53.0,23.0,36.0,34.0,53,148.0,square1,f,0.794,0,V,5.0
V5,4.0,52.0,19.0,38.0,34.0,52,200.0,square1,f,0.3297,0,V,5.0
V5,5.0,50.0,22.0,41.0,29.0,50,250.0,square1,f,0.3277,0,V,5.0
V5,6.0,52.0,19.0,40.0,33.0,52,302.0,square1,f,0.1395,0,V,5.0
V5,7.0,48.0,24.0,36.0,27.0,48,350.0,square1,f,0.1547,0,V,5.0
V5,8.0,50.0,24.0,35.0,33.0,35,385.0,square3,i,0.1607,2,V,5.0
V5,9.0,48.0,25.0,39.0,34.0,39,424.0,square3,i,0.0428,2,V,5.0
V5,10.0,52.0,19.0,32.0,34.0,19,443.0,square2,r,0.112,1,V,5.0
V5,11.0,48.0,22.0,32.0,32.0,48,491.0,square1,f,0.0059,0,V,5.0
V5,12.0,47.0,17.0,43.0,29.0,29,520.0,square4,j,0.1231,3,V,5.0
V5,13.0,46.0,21.0,42.0,29.0,46,566.0,square1,f,0.038,0,V,5.0
V5,14.0,47.0,28.0,42.0,28.0,47,613.0,square1,f,0.0189,0,V,5.0
V5,15.0,50.0,29.0,38.0,36.0,50,663.0,square1,f,0.1329,0,V,5.0
V5,16.0,49.0,24.0,36.0,34.0,49,712.0,square1,f,0.0086,0,V,5.0
V5,17.0,50.0,20.0,38.0,35.0,50,762.0,square1,f,0.0131,0,V,5.0
V5,18.0,49.0,22.0,46.0,29.0,49,811.0,square1,f,0.1115,0,V,5.0
V5,19.0,46.0,23.0,40.0,31.0,46,857.0,square1,f,0.0421,0,V,5.0
V5,20.0,51.0,22.0,41.0,28.0,51,908.0,square1,f,1.1316,0,V,5.0
V5,21.0,51.0,26.0,36.0,31.0,51,959.0,square1,f,0.0434,0,V,5.0
V5,22.0,47.0,18.0,41.0,28.0,47,1006.0,square1,f,0.0004,0,V,5.0
V5,23.0,52.0,20.0,36.0,29.0,52,1058.0,square1,f,0.1114,0,V,5.0
V5,24.0,51.0,21.0,41.0,34.0,51,1109.0,square1,f,0.077,0,V,5.0
V5,25.0,50.0,20.0,41.0,27.0,50,1159.0,square1,f,0.0346,0,V,5.0
V5,26.0,49.0,29.0,37.0,28.0,49,1208.0,square1,f,0.0437,0,V,5.0
V5,27.0,10.0,13.0,42.0,32.0,10,1218.0,square1,f,0.0026,0,V,5.0
V5,28.0,9.0,19.0,40.0,27.0,9,1227.0,square1,f,0.1446,0,V,5.0
V5,29.0,17.0,17.0,38.0,29.0,17,1244.0,square1,f,0.1487,0,V,5.0
V5,30.0,8.0,18.0,36.0,29.0,8,1252.0,square1,f,0.0781,0,V,5.0
V5,31.0,16.0,24.0,34.0,29.0,34,1286.0,square3,i,0.1778,2,V,5.0
V5,32.0,9.0,17.0,35.0,31.0,17,1303.0,square2,r,0.2616,1,V,5.0
V5,33.0,11.0,19.0,36.0,28.0,28,1331.0,square4,j,0.1097,3,V,5.0
V5,34.0,10.0,19.0,38.0,28.0,28,1359.0,square4,j,0.1298,3,V,5.0
V5,35.0,5.0,23.0,40.0,34.0,34,1393.0,square4,j,0.0938,3,V,5.0
V5,36.0,17.0,20.0,36.0,31.0,31,1424.0,square4,j,0.1149,3,V,5.0
V5,37.0,12.0,13.0,36.0,30.0,30,1454.0,square4,j,0.0003,3,V,5.0
V5,38.0,14.0,24.0,35.0,27.0,27,1481.0,square4,j,0.1294,3,V,5.0
V5,39.0,13.0,20.0,39.0,32.0,39,1520.0,square3,i,0.0139,2,V,5.0
V5,40.0,9.0,15.0,37.0,24.0,37,1557.0,square3,i,0.1736,2,V,5.0
V5,41.0,9.0,14.0,38.0,31.0,38,1595.0,square3,i,0.081,2,V,5.0
V5,42.0,14.0,17.0,43.0,31.0,14,1609.0,square1,f,0.3121,0,V,5.0
V5,43.0,10.0,18.0,39.0,23.0,39,1648.0,square3,i,0.0318,2,V,5.0
V5,44.0,10.0,20.0,33.0,32.0,33,1681.0,square3,i,0.0007,2,V,5.0
V5,45.0,16.0,17.0,37.0,29.0,37,1718.0,square3,i,0.0801,2,V,5.0
V5,46.0,9.0,22.0,37.0,25.0,37,1755.0,square3,i,0.1123,2,V,5.0
V5,47.0,10.0,22.0,35.0,26.0,35,1790.0,square3,i,0.0489,2,V,5.0
V5,48.0,11.0,16.0,39.0,23.0,39,1829.0,square3,i,0.1457,2,V,5.0
V5,49.0,13.0,16.0,33.0,27.0,27,1856.0,square4,j,0.0003,3,V,5.0
V5,50.0,12.0,16.0,39.0,24.0,39,1895.0,square3,i,0.0407,2,V,5.0
V5,51.0,10.0,21.0,43.0,28.0,43,1938.0,square3,i,0.044,2,V,5.0
V5,52.0,8.0,15.0,36.0,28.0,36,1974.0,square3,i,0.2487,2,V,5.0
V5,53.0,38.0,20.0,31.0,54.0,31,2005.0,square3,i,0.1494,2,V,5.0
V5,54.0,39.0,20.0,35.0,51.0,35,2040.0,square3,i,0.0772,2,V,5.0
V5,55.0,41.0,21.0,27.0,50.0,27,2067.0,square3,i,0.1449,2,V,5.0
V5,56.0,39.0,23.0,28.0,49.0,23,2090.0,square2,r,0.3973,1,V,5.0
V5,57.0,36.0,28.0,29.0,59.0,29,2119.0,square3,i,0.0126,2,V,5.0
V5,58.0,38.0,22.0,28.0,49.0,49,2168.0,square4,j,0.1454,3,V,5.0
V5,59.0,44.0,23.0,30.0,51.0,51,2219.0,square4,j,0.1454,3,V,5.0
V5,60.0,43.0,21.0,31.0,48.0,48,2267.0,square4,j,0.1806,3,V,5.0
V5,61.0,39.0,24.0,35.0,50.0,50,2317.0,square4,j,0.1974,3,V,5.0
V5,62.0,38.0,25.0,31.0,52.0,52,2369.0,square4,j,0.1965,3,V,5.0
V5,63.0,41.0,14.0,31.0,52.0,52,2421.0,square4,j,0.0925,3,V,5.0
V5,64.0,43.0,23.0,30.0,51.0,51,2472.0,square4,j,0.0378,3,V,5.0
V5,65.0,41.0,23.0,35.0,52.0,52,2524.0,square4,j,0.2105,3,V,5.0
V5,66.0,41.0,17.0,33.0,47.0,47,2571.0,square4,j,0.0954,3,V,5.0
V5,67.0,44.0,23.0,32.0,49.0,49,2620.0,square4,j,0.0505,3,V,5.0
V5,68.0,44.0,24.0,31.0,44.0,44,2664.0,square4,j,0.079,3,V,5.0
V5,69.0,43.0,28.0,27.0,48.0,48,2712.0,square4,j,0.3668,3,V,5.0
V5,70.0,38.0,22.0,26.0,50.0,50,2762.0,square4,j,0.0005,3,V,5.0
V5,71.0,41.0,29.0,26.0,53.0,53,2815.0,square4,j,0.0616,3,V,5.0
V5,72.0,40.0,20.0,28.0,51.0,51,2866.0,square4,j,0.0105,3,V,5.0
V5,73.0,59.0,44.0,51.0,35.0,35,2901.0,square4,j,0.4109,3,V,5.0
V5,74.0,60.0,38.0,55.0,43.0,43,2944.0,square4,j,0.0397,3,V,5.0
V5,75.0,63.0,45.0,50.0,37.0,63,3007.0,square1,f,0.0117,0,V,5.0
V5,76.0,62.0,42.0,50.0,37.0,62,3069.0,square1,f,0.2104,0,V,5.0
V5,77.0,57.0,37.0,52.0,35.0,57,3126.0,square1,f,0.0639,0,V,5.0
V5,78.0,66.0,45.0,54.0,37.0,66,3192.0,square1,f,0.6136,0,V,5.0
V5,79.0,64.0,37.0,48.0,35.0,64,3256.0,square1,f,0.1779,0,V,5.0
V5,80.0,63.0,40.0,56.0,38.0,63,3319.0,square1,f,0.0598,0,V,5.0
V5,81.0,62.0,41.0,54.0,32.0,62,3381.0,square1,f,0.0042,0,V,5.0
V5,82.0,58.0,41.0,59.0,39.0,58,3439.0,square1,f,0.1413,0,V,5.0
V5,83.0,66.0,46.0,54.0,35.0,66,3505.0,square1,f,0.3063,0,V,5.0
V5,84.0,67.0,44.0,52.0,33.0,67,3572.0,square1,f,0.1109,0,V,5.0
V5,85.0,67.0,45.0,46.0,36.0,67,3639.0,square1,f,0.214,0,V,5.0
V5,86.0,65.0,44.0,51.0,38.0,65,3704.0,square1,f,0.0707,0,V,5.0
V5,87.0,64.0,49.0,48.0,35.0,64,3768.0,square1,f,0.1245,0,V,5.0
V5,88.0,68.0,47.0,56.0,36.0,68,3836.0,square1,f,0.0829,0,V,5.0
V5,89.0,60.0,42.0,57.0,32.0,60,3896.0,square1,f,0.0317,0,V,5.0
V5,90.0,59.0,43.0,53.0,34.0,59,3955.0,square1,f,0.1271,0,V,5.0
V5,91.0,64.0,43.0,51.0,34.0,64,4019.0,square1,f,0.1127,0,V,5.0
V5,92.0,65.0,41.0,57.0,38.0,65,4084.0,square1,f,0.0003,0,V,5.0
V5,93.0,59.0,48.0,54.0,40.0,59,4143.0,square1,f,0.0696,0,V,5.0
V5,94.0,66.0,44.0,53.0,43.0,66,4209.0,square1,f,0.0382,0,V,5.0
V5,95.0,63.0,43.0,50.0,40.0,63,4272.0,square1,f,0.114,0,V,5.0
V5,96.0,62.0,44.0,50.0,33.0,62,4334.0,square1,f,1.5479,0,V,5.0
V5,97.0,64.0,49.0,55.0,37.0,64,4398.0,square1,f,0.2984,0,V,5.0
V5,98.0,65.0,44.0,53.0,36.0,65,4463.0,square1,f,0.073,0,V,5.0
V5,99.0,65.0,42.0,55.0,35.0,65,4528.0,square1,f,0.0134,0,V,5.0
V7,0.0,86.0,61.0,78.0,68.0,68,68.0,square4,i,0.9096,3,V,7.0
V7,1.0,95.0,62.0,79.0,70.0,70,138.0,square4,i,0.189,3,V,7.0
V7,2.0,89.0,67.0,81.0,77.0,77,215.0,square4,i,0.3147,3,V,7.0
V7,3.0,90.0,56.0,85.0,72.0,72,287.0,square4,i,0.1297,3,V,7.0
V7,4.0,91.0,65.0,77.0,71.0,71,358.0,square4,i,1.3293,3,V,7.0
V7,5.0,91.0,58.0,84.0,72.0,72,430.0,square4,i,0.3555,3,V,7.0
V7,6.0,94.0,65.0,87.0,72.0,72,502.0,square4,i,0.3616,3,V,7.0
V7,7.0,89.0,67.0,79.0,67.0,67,569.0,square2,j,0.2493,1,V,7.0
V7,8.0,91.0,65.0,84.0,68.0,91,660.0,square1,r,0.2232,0,V,7.0
V7,9.0,92.0,60.0,87.0,69.0,92,752.0,square1,r,0.2779,0,V,7.0
V7,10.0,90.0,67.0,81.0,76.0,90,842.0,square1,r,0.1416,0,V,7.0
V7,11.0,86.0,67.0,83.0,73.0,86,928.0,square1,r,0.1972,0,V,7.0
V7,12.0,90.0,62.0,80.0,72.0,90,1018.0,square1,r,0.2044,0,V,7.0
V7,13.0,84.0,60.0,88.0,71.0,84,1102.0,square1,r,0.2957,0,V,7.0
V7,14.0,95.0,64.0,80.0,70.0,95,1197.0,square1,r,0.0075,0,V,7.0
V7,15.0,86.0,60.0,81.0,70.0,86,1283.0,square1,r,0.3553,0,V,7.0
V7,16.0,85.0,65.0,77.0,69.0,77,1360.0,square3,f,0.1287,2,V,7.0
V7,17.0,91.0,65.0,81.0,70.0,91,1451.0,square1,r,0.1776,0,V,7.0
V7,18.0,95.0,61.0,81.0,76.0,95,1546.0,square1,r,0.2783,0,V,7.0
V7,19.0,90.0,58.0,79.0,72.0,90,1636.0,square1,r,0.2229,0,V,7.0
V7,20.0,94.0,68.0,80.0,79.0,94,1730.0,square1,r,0.3102,0,V,7.0
V7,21.0,92.0,66.0,82.0,70.0,92,1822.0,square1,r,0.0974,0,V,7.0
V7,22.0,92.0,64.0,83.0,72.0,92,1914.0,square1,r,0.1783,0,V,7.0
V7,23.0,91.0,68.0,82.0,73.0,91,2005.0,square1,r,0.0262,0,V,7.0
V7,24.0,87.0,71.0,82.0,72.0,87,2092.0,square1,r,0.1311,0,V,7.0
V7,25.0,91.0,68.0,90.0,74.0,74,2166.0,square4,i,0.0263,3,V,7.0
V7,26.0,89.0,65.0,83.0,72.0,89,2255.0,square1,r,0.1943,0,V,7.0
V7,27.0,91.0,61.0,81.0,73.0,61,2316.0,square2,j,0.144,1,V,7.0
V7,28.0,90.0,66.0,81.0,72.0,90,2406.0,square1,r,0.2937,0,V,7.0
V7,29.0,89.0,67.0,77.0,71.0,89,2495.0,square1,r,0.3616,0,V,7.0
V7,30.0,95.0,68.0,84.0,71.0,95,2590.0,square1,r,0.4249,0,V,7.0
V7,31.0,95.0,61.0,81.0,70.0,95,2685.0,square1,r,0.8457,0,V,7.0
V7,32.0,89.0,65.0,82.0,75.0,89,2774.0,square1,r,0.0004,0,V,7.0
V7,33.0,77.0,50.0,80.0,61.0,77,2851.0,square1,r,0.7782,0,V,7.0
V7,34.0,76.0,54.0,78.0,61.0,76,2927.0,square1,r,0.0777,0,V,7.0
V7,35.0,71.0,51.0,80.0,64.0,71,2998.0,square1,r,0.1804,0,V,7.0
V7,36.0,75.0,51.0,80.0,62.0,75,3073.0,square1,r,0.0783,0,V,7.0
V7,37.0,73.0,58.0,86.0,63.0,86,3159.0,square3,f,0.4939,2,V,7.0
V7,38.0,73.0,50.0,86.0,61.0,86,3245.0,square3,f,0.3059,2,V,7.0
V7,39.0,67.0,53.0,78.0,61.0,78,3323.0,square3,f,0.2287,2,V,7.0
V7,40.0,71.0,53.0,84.0,58.0,84,3407.0,square3,f,0.1142,2,V,7.0
V7,41.0,75.0,51.0,83.0,63.0,83,3490.0,square3,f,0.0034,2,V,7.0
V7,42.0,69.0,48.0,87.0,63.0,87,3577.0,square3,f,0.5974,2,V,7.0
V7,43.0,70.0,58.0,81.0,60.0,81,3658.0,square3,f,0.4788,2,V,7.0
V7,44.0,68.0,56.0,76.0,63.0,76,3734.0,square3,f,0.1791,2,V,7.0
V7,45.0,74.0,59.0,76.0,56.0,76,3810.0,square3,f,0.1738,2,V,7.0
V7,46.0,72.0,54.0,77.0,61.0,61,3871.0,square4,i,0.1456,3,V,7.0
V7,47.0,69.0,47.0,81.0,62.0,69,3940.0,square1,r,0.2068,0,V,7.0
V7,48.0,75.0,52.0,81.0,57.0,81,4021.0,square3,f,0.0255,2,V,7.0
V7,49.0,74.0,55.0,78.0,60.0,78,4099.0,square3,f,0.2107,2,V,7.0
V7,50.0,71.0,51.0,80.0,61.0,80,4179.0,square3,f,0.1928,2,V,7.0
V7,51.0,75.0,55.0,85.0,62.0,85,4264.0,square3,f,0.2072,2,V,7.0
V7,52.0,75.0,59.0,76.0,59.0,76,4340.0,square3,f,0.2651,2,V,7.0
V7,53.0,72.0,53.0,84.0,66.0,84,4424.0,square3,f,0.0489,2,V,7.0
V7,54.0,69.0,51.0,81.0,60.0,81,4505.0,square3,f,0.0986,2,V,7.0
V7,55.0,74.0,56.0,75.0,54.0,75,4580.0,square3,f,0.2292,2,V,7.0
V7,56.0,76.0,51.0,83.0,58.0,83,4663.0,square3,f,0.107,2,V,7.0
V7,57.0,71.0,53.0,80.0,64.0,80,4743.0,square3,f,0.0437,2,V,7.0
V7,58.0,81.0,56.0,79.0,61.0,79,4822.0,square3,f,0.1062,2,V,7.0
V7,59.0,71.0,55.0,83.0,59.0,83,4905.0,square3,f,0.2482,2,V,7.0
V7,60.0,73.0,53.0,83.0,64.0,83,4988.0,square3,f,0.4607,2,V,7.0
V7,61.0,70.0,53.0,77.0,63.0,53,5041.0,square2,j,0.2714,1,V,7.0
V7,62.0,71.0,54.0,76.0,61.0,76,5117.0,square3,f,0.5463,2,V,7.0
V7,63.0,68.0,45.0,79.0,65.0,79,5196.0,square3,f,0.1792,2,V,7.0
V7,64.0,65.0,55.0,79.0,59.0,79,5275.0,square3,f,0.2037,2,V,7.0
V7,65.0,74.0,54.0,81.0,61.0,81,5356.0,square3,f,0.1162,2,V,7.0
V7,66.0,70.0,56.0,81.0,63.0,81,5437.0,square3,f,0.1491,2,V,7.0
V7,67.0,70.0,85.0,64.0,92.0,64,5501.0,square3,f,0.1892,2,V,7.0
V7,68.0,73.0,85.0,68.0,92.0,68,5569.0,square3,f,0.0051,2,V,7.0
V7,69.0,75.0,83.0,70.0,91.0,91,5660.0,square4,i,0.1595,3,V,7.0
V7,70.0,75.0,85.0,69.0,91.0,91,5751.0,square4,i,0.0455,3,V,7.0
V7,71.0,71.0,86.0,65.0,94.0,94,5845.0,square4,i,0.161,3,V,7.0
V7,72.0,77.0,86.0,65.0,98.0,98,5943.0,square4,i,0.2061,3,V,7.0
V7,73.0,77.0,84.0,63.0,94.0,94,6037.0,square4,i,0.0263,3,V,7.0
V7,74.0,71.0,86.0,64.0,91.0,91,6128.0,square4,i,0.0809,3,V,7.0
V7,75.0,73.0,90.0,60.0,90.0,90,6218.0,square4,i,0.1134,3,V,7.0
V7,76.0,79.0,84.0,68.0,95.0,95,6313.0,square4,i,0.139,3,V,7.0
V7,77.0,73.0,85.0,66.0,89.0,89,6402.0,square4,i,0.0267,3,V,7.0
V7,78.0,75.0,82.0,67.0,91.0,91,6493.0,square4,i,0.2143,3,V,7.0
V7,79.0,72.0,85.0,60.0,90.0,90,6583.0,square4,i,0.0421,3,V,7.0
V7,80.0,73.0,83.0,66.0,97.0,97,6680.0,square4,i,0.0003,3,V,7.0
V7,81.0,73.0,84.0,67.0,92.0,92,6772.0,square4,i,0.1769,3,V,7.0
V7,82.0,69.0,84.0,65.0,91.0,91,6863.0,square4,i,0.077,3,V,7.0
V7,83.0,76.0,83.0,72.0,99.0,99,6962.0,square4,i,0.1242,3,V,7.0
V7,84.0,72.0,84.0,70.0,94.0,94,7056.0,square4,i,0.1536,3,V,7.0
V7,85.0,77.0,83.0,67.0,88.0,88,7144.0,square4,i,0.144,3,V,7.0
V7,86.0,76.0,80.0,67.0,90.0,90,7234.0,square4,i,0.1058,3,V,7.0
V7,87.0,70.0,86.0,67.0,95.0,95,7329.0,square4,i,0.1621,3,V,7.0
V7,88.0,76.0,84.0,67.0,100.0,100,7429.0,square4,i,0.0644,3,V,7.0
V7,89.0,71.0,88.0,60.0,97.0,97,7526.0,square4,i,0.0786,3,V,7.0
V7,90.0,69.0,82.0,71.0,95.0,95,7621.0,square4,i,0.0835,3,V,7.0
V7,91.0,80.0,84.0,65.0,92.0,92,7713.0,square4,i,0.078,3,V,7.0
V7,92.0,77.0,85.0,68.0,85.0,85,7798.0,square4,i,0.1263,3,V,7.0
V7,93.0,72.0,84.0,66.0,91.0,91,7889.0,square4,i,0.1578,3,V,7.0
V7,94.0,69.0,83.0,66.0,95.0,95,7984.0,square4,i,0.112,3,V,7.0
V7,95.0,70.0,86.0,75.0,91.0,91,8075.0,square4,i,0.1075,3,V,7.0
V7,96.0,74.0,85.0,66.0,88.0,88,8163.0,square4,i,0.1602,3,V,7.0
V7,97.0,77.0,82.0,73.0,91.0,91,8254.0,square4,i,0.127,3,V,7.0
V7,98.0,76.0,91.0,62.0,94.0,94,8348.0,square4,i,0.0955,3,V,7.0
V7,99.0,74.0,84.0,67.0,88.0,88,8436.0,square4,i,0.0945,3,V,7.0
V4,0.0,63.0,38.0,47.0,55.0,55,55.0,square4,r,0.604,3,V,4.0
V4,1.0,66.0,42.0,43.0,59.0,59,114.0,square4,r,0.195,3,V,4.0
V4,2.0,66.0,39.0,57.0,59.0,59,173.0,square4,r,0.4019,3,V,4.0
V4,3.0,66.0,37.0,51.0,59.0,59,232.0,square4,r,0.3442,3,V,4.0
V4,4.0,69.0,37.0,50.0,55.0,50,282.0,square3,i,0.0278,2,V,4.0
V4,5.0,64.0,44.0,46.0,62.0,64,346.0,square1,j,0.0425,0,V,4.0
V4,6.0,75.0,43.0,49.0,57.0,43,389.0,square2,f,0.0092,1,V,4.0
V4,7.0,62.0,41.0,52.0,59.0,62,451.0,square1,j,0.1047,0,V,4.0
V4,8.0,65.0,41.0,44.0,60.0,65,516.0,square1,j,0.1477,0,V,4.0
V4,9.0,68.0,35.0,44.0,64.0,68,584.0,square1,j,0.1694,0,V,4.0
V4,10.0,67.0,44.0,48.0,61.0,67,651.0,square1,j,0.4709,0,V,4.0
V4,11.0,61.0,40.0,48.0,56.0,61,712.0,square1,j,0.8944,0,V,4.0
V4,12.0,68.0,41.0,49.0,55.0,99999,712.0,invalid,,,-1,V,4.0
V4,13.0,63.0,42.0,47.0,60.0,63,775.0,square1,j,0.0062,0,V,4.0
V4,14.0,63.0,40.0,51.0,55.0,63,838.0,square1,j,0.1587,0,V,4.0
V4,15.0,62.0,41.0,52.0,62.0,62,900.0,square1,j,0.1284,0,V,4.0
V4,16.0,69.0,37.0,47.0,60.0,69,969.0,square1,j,0.0069,0,V,4.0
V4,17.0,66.0,40.0,48.0,56.0,66,1035.0,square1,j,0.1949,0,V,4.0
V4,18.0,67.0,43.0,47.0,59.0,67,1102.0,square1,j,0.0004,0,V,4.0
V4,19.0,64.0,42.0,51.0,59.0,64,1166.0,square1,j,0.0379,0,V,4.0
V4,20.0,67.0,40.0,47.0,58.0,67,1233.0,square1,j,0.0004,0,V,4.0
V4,21.0,60.0,41.0,50.0,59.0,60,1293.0,square1,j,0.0004,0,V,4.0
V4,22.0,66.0,43.0,54.0,55.0,66,1359.0,square1,j,0.0925,0,V,4.0
V4,23.0,67.0,37.0,50.0,62.0,62,1421.0,square4,r,0.015,3,V,4.0
V4,24.0,67.0,37.0,49.0,60.0,67,1488.0,square1,j,0.1146,0,V,4.0
V4,25.0,67.0,39.0,55.0,52.0,67,1555.0,square1,j,0.1925,0,V,4.0
V4,26.0,64.0,39.0,51.0,63.0,64,1619.0,square1,j,0.1462,0,V,4.0
V4,27.0,68.0,36.0,55.0,60.0,68,1687.0,square1,j,0.0797,0,V,4.0
V4,28.0,67.0,40.0,46.0,54.0,67,1754.0,square1,j,0.1116,0,V,4.0
V4,29.0,67.0,41.0,50.0,57.0,67,1821.0,square1,j,0.2633,0,V,4.0
V4,30.0,66.0,39.0,49.0,53.0,66,1887.0,square1,j,0.1294,0,V,4.0
V4,31.0,70.0,38.0,48.0,58.0,70,1957.0,square1,j,0.0704,0,V,4.0
V4,32.0,63.0,40.0,53.0,61.0,63,2020.0,square1,j,0.0615,0,V,4.0
V4,33.0,66.0,41.0,51.0,56.0,66,2086.0,square1,j,0.1151,0,V,4.0
V4,34.0,64.0,39.0,46.0,57.0,64,2150.0,square1,j,0.0004,0,V,4.0
V4,35.0,69.0,36.0,50.0,58.0,69,2219.0,square1,j,0.1771,0,V,4.0
V4,36.0,60.0,43.0,53.0,54.0,60,2279.0,square1,j,0.0213,0,V,4.0
V4,37.0,52.0,78.0,68.0,66.0,52,2331.0,square1,j,0.0772,0,V,4.0
V4,38.0,44.0,81.0,68.0,62.0,44,2375.0,square1,j,0.3429,0,V,4.0
V4,39.0,59.0,71.0,70.0,63.0,59,2434.0,square1,j,0.0108,0,V,4.0
V4,40.0,53.0,77.0,73.0,59.0,53,2487.0,square1,j,0.1943,0,V,4.0
V4,41.0,53.0,76.0,74.0,66.0,53,2540.0,square1,j,0.179,0,V,4.0
V4,42.0,51.0,79.0,73.0,59.0,79,2619.0,square2,f,0.3123,1,V,4.0
V4,43.0,48.0,76.0,68.0,65.0,76,2695.0,square2,f,0.1775,1,V,4.0
V4,44.0,57.0,83.0,78.0,63.0,83,2778.0,square2,f,0.3235,1,V,4.0
V4,45.0,54.0,74.0,69.0,61.0,74,2852.0,square2,f,0.1129,1,V,4.0
V4,46.0,53.0,85.0,66.0,62.0,85,2937.0,square2,f,0.1435,1,V,4.0
V4,47.0,56.0,83.0,68.0,57.0,83,3020.0,square2,f,0.2165,1,V,4.0
V4,48.0,49.0,74.0,73.0,59.0,74,3094.0,square2,f,0.2115,1,V,4.0
V4,49.0,54.0,74.0,70.0,60.0,74,3168.0,square2,f,0.1284,1,V,4.0
V4,50.0,47.0,83.0,69.0,60.0,83,3251.0,square2,f,0.0005,1,V,4.0
V4,51.0,54.0,78.0,73.0,56.0,78,3329.0,square2,f,0.0663,1,V,4.0
V4,52.0,52.0,76.0,71.0,58.0,76,3405.0,square2,f,0.111,1,V,4.0
V4,53.0,51.0,82.0,76.0,63.0,82,3487.0,square2,f,0.0441,1,V,4.0
V4,54.0,57.0,76.0,69.0,64.0,76,3563.0,square2,f,0.0665,1,V,4.0
V4,55.0,49.0,75.0,68.0,59.0,75,3638.0,square2,f,0.0066,1,V,4.0
V4,56.0,55.0,81.0,66.0,65.0,81,3719.0,square2,f,0.1573,1,V,4.0
V4,57.0,58.0,80.0,72.0,63.0,80,3799.0,square2,f,0.2611,1,V,4.0
V4,58.0,49.0,81.0,66.0,62.0,81,3880.0,square2,f,0.1234,1,V,4.0
V4,59.0,57.0,78.0,73.0,59.0,78,3958.0,square2,f,0.0104,1,V,4.0
V4,60.0,48.0,79.0,66.0,59.0,79,4037.0,square2,f,0.9153,1,V,4.0
V4,61.0,53.0,80.0,72.0,60.0,80,4117.0,square2,f,0.1284,1,V,4.0
V4,62.0,53.0,79.0,70.0,61.0,79,4196.0,square2,f,0.4235,1,V,4.0
V4,63.0,81.0,66.0,90.0,66.0,66,4262.0,square2,f,0.4774,1,V,4.0
V4,64.0,80.0,64.0,85.0,76.0,64,4326.0,square2,f,0.363,1,V,4.0
V4,65.0,77.0,61.0,92.0,74.0,92,4418.0,square3,i,0.0689,2,V,4.0
V4,66.0,89.0,65.0,91.0,73.0,91,4509.0,square3,i,0.0619,2,V,4.0
V4,67.0,86.0,64.0,92.0,70.0,92,4601.0,square3,i,0.0063,2,V,4.0
V4,68.0,82.0,60.0,91.0,77.0,91,4692.0,square3,i,0.0934,2,V,4.0
V4,69.0,78.0,69.0,90.0,70.0,90,4782.0,square3,i,0.311,2,V,4.0
V4,70.0,85.0,64.0,95.0,73.0,95,4877.0,square3,i,0.0475,2,V,4.0
V4,71.0,85.0,61.0,88.0,69.0,69,4946.0,square4,r,0.1652,3,V,4.0
V4,72.0,86.0,63.0,87.0,75.0,87,5033.0,square3,i,0.1281,2,V,4.0
V4,73.0,86.0,69.0,92.0,70.0,92,5125.0,square3,i,0.1228,2,V,4.0
V4,74.0,81.0,62.0,90.0,69.0,90,5215.0,square3,i,0.0637,2,V,4.0
V4,75.0,83.0,66.0,88.0,74.0,88,5303.0,square3,i,1.3595,2,V,4.0
V4,76.0,80.0,64.0,92.0,75.0,92,5395.0,square3,i,0.2281,2,V,4.0
V4,77.0,81.0,65.0,91.0,74.0,91,5486.0,square3,i,0.7109,2,V,4.0
V4,78.0,78.0,70.0,89.0,73.0,89,5575.0,square3,i,0.6775,2,V,4.0
V4,79.0,84.0,66.0,85.0,75.0,85,5660.0,square3,i,0.1054,2,V,4.0
V4,80.0,83.0,65.0,93.0,74.0,93,5753.0,square3,i,0.0003,2,V,4.0
V4,81.0,86.0,59.0,91.0,74.0,91,5844.0,square3,i,0.0447,2,V,4.0
V4,82.0,87.0,64.0,92.0,73.0,92,5936.0,square3,i,0.0622,2,V,4.0
V4,83.0,83.0,68.0,86.0,70.0,86,6022.0,square3,i,0.1,2,V,4.0
V4,84.0,82.0,62.0,87.0,73.0,87,6109.0,square3,i,0.178,2,V,4.0
V4,85.0,85.0,61.0,90.0,70.0,90,6199.0,square3,i,0.1265,2,V,4.0
V4,86.0,84.0,66.0,97.0,71.0,97,6296.0,square3,i,0.0435,2,V,4.0
V4,87.0,82.0,64.0,87.0,71.0,87,6383.0,square3,i,0.0309,2,V,4.0
V4,88.0,80.0,67.0,93.0,72.0,93,6476.0,square3,i,0.0464,2,V,4.0
V4,89.0,78.0,64.0,92.0,75.0,92,6568.0,square3,i,0.2457,2,V,4.0
V4,90.0,75.0,66.0,88.0,72.0,88,6656.0,square3,i,0.0323,2,V,4.0
V4,91.0,82.0,59.0,91.0,76.0,91,6747.0,square3,i,0.3161,2,V,4.0
V4,92.0,84.0,62.0,91.0,70.0,91,6838.0,square3,i,0.0931,2,V,4.0
V4,93.0,80.0,61.0,94.0,76.0,94,6932.0,square3,i,0.4622,2,V,4.0
V4,94.0,83.0,64.0,88.0,72.0,88,7020.0,square3,i,1.1655,2,V,4.0
V4,95.0,82.0,60.0,94.0,69.0,94,7114.0,square3,i,0.0005,2,V,4.0
V4,96.0,84.0,63.0,92.0,72.0,92,7206.0,square3,i,0.0625,2,V,4.0
V4,97.0,84.0,62.0,85.0,70.0,85,7291.0,square3,i,0.0006,2,V,4.0
V4,98.0,81.0,64.0,93.0,72.0,93,7384.0,square3,i,0.0772,2,V,4.0
V4,99.0,80.0,61.0,92.0,75.0,92,7476.0,square3,i,0.0475,2,V,4.0
