block,Trial,square1,square2,square3,square4,currPoints,totalPoints,square,choiceKey.keys,choiceKey.rt,armNum,blockType,blockNum
prac,0.0,100.0,0.0,0.0,0.0,100,100.0,square1,,,0,p,0.0
prac,1.0,100.0,0.0,0.0,0.0,99999,100.0,invalid,,,-1,p,0.0
prac,2.0,100.0,0.0,0.0,0.0,99999,100.0,invalid,,,-1,p,0.0
prac,3.0,100.0,0.0,0.0,0.0,99999,100.0,invalid,,,-1,p,0.0
prac,4.0,100.0,0.0,0.0,0.0,0,100.0,square2,,,1,p,0.0
prac,5.0,100.0,0.0,0.0,0.0,99999,100.0,invalid,,,-1,p,0.0
prac,6.0,100.0,0.0,0.0,0.0,0,100.0,square3,,,2,p,0.0
prac,7.0,100.0,0.0,0.0,0.0,100,200.0,square1,,,0,p,0.0
prac,8.0,100.0,0.0,0.0,0.0,100,300.0,square1,,,0,p,0.0
prac,9.0,100.0,0.0,0.0,0.0,0,300.0,square4,,,3,p,0.0
V3,0.0,62.0,45.0,70.0,53.0,53,53.0,square4,r,1.2019,3,V,3.0
V3,1.0,63.0,47.0,76.0,60.0,63,116.0,square1,i,0.8196,0,V,3.0
V3,2.0,65.0,54.0,73.0,57.0,73,189.0,square3,f,0.8573,2,V,3.0
V3,3.0,68.0,51.0,71.0,51.0,51,240.0,square2,j,0.3103,1,V,3.0
V3,4.0,61.0,49.0,75.0,53.0,53,293.0,square4,r,0.4271,3,V,3.0
V3,5.0,65.0,47.0,74.0,50.0,74,367.0,square3,f,0.4594,2,V,3.0
V3,6.0,61.0,51.0,72.0,57.0,61,428.0,square1,i,0.914,0,V,3.0
V3,7.0,67.0,49.0,75.0,55.0,75,503.0,square3,f,0.1767,2,V,3.0
V3,8.0,64.0,48.0,76.0,56.0,76,579.0,square3,f,0.2789,2,V,3.0
V3,9.0,67.0,49.0,71.0,56.0,71,650.0,square3,f,0.2934,2,V,3.0
V3,10.0,65.0,50.0,71.0,56.0,65,715.0,square1,i,0.047,0,V,3.0
V3,11.0,63.0,43.0,78.0,58.0,58,773.0,square4,r,0.8327,3,V,3.0
V3,12.0,66.0,53.0,73.0,54.0,73,846.0,square3,f,0.2596,2,V,3.0
V3,13.0,64.0,46.0,78.0,51.0,78,924.0,square3,f,0.2084,2,V,3.0
V3,14.0,67.0,51.0,71.0,58.0,71,995.0,square3,f,0.1603,2,V,3.0
V3,15.0,61.0,50.0,73.0,54.0,73,1068.0,square3,f,0.1439,2,V,3.0
V3,16.0,64.0,52.0,74.0,54.0,74,1142.0,square3,f,0.2068,2,V,3.0
V3,17.0,61.0,48.0,74.0,55.0,74,1216.0,square3,f,0.0777,2,V,3.0
V3,18.0,65.0,50.0,70.0,59.0,70,1286.0,square3,f,0.0611,2,V,3.0
V3,19.0,64.0,52.0,76.0,56.0,76,1362.0,square3,f,0.314,2,V,3.0
V3,20.0,64.0,50.0,69.0,58.0,69,1431.0,square3,f,0.0384,2,V,3.0
V3,21.0,66.0,50.0,72.0,56.0,72,1503.0,square3,f,0.0454,2,V,3.0
V3,22.0,43.0,48.0,40.0,62.0,40,1543.0,square3,f,0.1599,2,V,3.0
V3,23.0,41.0,51.0,35.0,59.0,35,1578.0,square3,f,0.1107,2,V,3.0
V3,24.0,51.0,51.0,37.0,60.0,37,1615.0,square3,f,0.0908,2,V,3.0
V3,25.0,45.0,53.0,36.0,57.0,36,1651.0,square3,f,0.0629,2,V,3.0
V3,26.0,44.0,51.0,38.0,59.0,51,1702.0,square2,j,0.1613,1,V,3.0
V3,27.0,43.0,51.0,34.0,66.0,34,1736.0,square3,f,0.066,2,V,3.0
V3,28.0,47.0,51.0,40.0,67.0,47,1783.0,square1,i,0.3276,0,V,3.0
V3,29.0,42.0,55.0,35.0,65.0,65,1848.0,square4,r,0.1266,3,V,3.0
V3,30.0,49.0,54.0,36.0,62.0,62,1910.0,square4,r,0.1552,3,V,3.0
V3,31.0,50.0,53.0,42.0,66.0,66,1976.0,square4,r,0.0007,3,V,3.0
V3,32.0,47.0,53.0,34.0,58.0,58,2034.0,square4,r,0.1759,3,V,3.0
V3,33.0,45.0,56.0,34.0,62.0,62,2096.0,square4,r,0.127,3,V,3.0
V3,34.0,48.0,54.0,38.0,64.0,64,2160.0,square4,r,0.1435,3,V,3.0
V3,35.0,39.0,55.0,42.0,65.0,65,2225.0,square4,r,0.1782,3,V,3.0
V3,36.0,46.0,57.0,41.0,63.0,63,2288.0,square4,r,0.0983,3,V,3.0
V3,37.0,43.0,54.0,41.0,65.0,65,2353.0,square4,r,0.128,3,V,3.0
V3,38.0,47.0,52.0,37.0,63.0,63,2416.0,square4,r,0.1318,3,V,3.0
V3,39.0,47.0,53.0,38.0,55.0,38,2454.0,square3,f,0.6269,2,V,3.0
V3,40.0,41.0,54.0,39.0,64.0,41,2495.0,square1,i,0.0456,0,V,3.0
V3,41.0,48.0,52.0,38.0,64.0,52,2547.0,square2,j,0.7936,1,V,3.0
V3,42.0,45.0,50.0,34.0,63.0,63,2610.0,square4,r,0.1128,3,V,3.0
V3,43.0,44.0,50.0,34.0,62.0,62,2672.0,square4,r,0.1986,3,V,3.0
V3,44.0,47.0,55.0,39.0,65.0,65,2737.0,square4,r,0.0293,3,V,3.0
V3,45.0,45.0,55.0,31.0,63.0,63,2800.0,square4,r,0.0156,3,V,3.0
V3,46.0,42.0,52.0,38.0,64.0,64,2864.0,square4,r,0.1625,3,V,3.0
V3,47.0,44.0,53.0,37.0,55.0,55,2919.0,square4,r,0.113,3,V,3.0
V3,48.0,44.0,49.0,37.0,58.0,58,2977.0,square4,r,0.0263,3,V,3.0
V3,49.0,48.0,58.0,35.0,54.0,54,3031.0,square4,r,0.0791,3,V,3.0
V3,50.0,42.0,28.0,30.0,52.0,52,3083.0,square4,r,0.094,3,V,3.0
V3,51.0,46.0,29.0,32.0,51.0,51,3134.0,square4,r,0.0978,3,V,3.0
V3,52.0,37.0,20.0,36.0,50.0,50,3184.0,square4,r,0.0922,3,V,3.0
V3,53.0,44.0,22.0,34.0,55.0,55,3239.0,square4,r,0.5475,3,V,3.0
V3,54.0,37.0,27.0,26.0,50.0,50,3289.0,square4,r,0.3571,3,V,3.0
V3,55.0,41.0,21.0,39.0,53.0,53,3342.0,square4,r,0.1069,3,V,3.0
V3,56.0,40.0,20.0,38.0,51.0,51,3393.0,square4,r,0.2604,3,V,3.0
V3,57.0,44.0,28.0,31.0,57.0,57,3450.0,square4,r,0.0285,3,V,3.0
V3,58.0,46.0,20.0,28.0,49.0,49,3499.0,square4,r,0.3108,3,V,3.0
V3,59.0,44.0,24.0,30.0,55.0,55,3554.0,square4,r,0.1074,3,V,3.0
V3,60.0,42.0,29.0,29.0,51.0,29,3583.0,square2,j,0.4285,1,V,3.0
V3,61.0,41.0,21.0,30.0,46.0,46,3629.0,square4,r,0.1214,3,V,3.0
V3,62.0,41.0,27.0,31.0,49.0,31,3660.0,square3,f,0.9101,2,V,3.0
V3,63.0,42.0,27.0,34.0,51.0,42,3702.0,square1,i,0.2303,0,V,3.0
V3,64.0,41.0,24.0,30.0,47.0,41,3743.0,square1,i,0.1122,0,V,3.0
V3,65.0,36.0,18.0,34.0,48.0,36,3779.0,square1,i,0.0099,0,V,3.0
V3,66.0,39.0,28.0,35.0,45.0,39,3818.0,square1,i,0.0117,0,V,3.0
V3,67.0,42.0,21.0,32.0,46.0,42,3860.0,square1,i,0.0135,0,V,3.0
V3,68.0,40.0,24.0,35.0,53.0,40,3900.0,square1,i,0.013,0,V,3.0
V3,69.0,48.0,23.0,34.0,50.0,48,3948.0,square1,i,0.0762,0,V,3.0
V3,70.0,40.0,27.0,31.0,49.0,40,3988.0,square1,i,0.083,0,V,3.0
V3,71.0,41.0,23.0,28.0,51.0,41,4029.0,square1,i,0.1103,0,V,3.0
V3,72.0,42.0,25.0,33.0,55.0,55,4084.0,square4,r,0.1268,3,V,3.0
V3,73.0,41.0,24.0,35.0,55.0,55,4139.0,square4,r,0.0121,3,V,3.0
V3,74.0,38.0,26.0,28.0,53.0,53,4192.0,square4,r,0.1468,3,V,3.0
V3,75.0,54.0,39.0,69.0,50.0,50,4242.0,square4,r,0.0456,3,V,3.0
V3,76.0,55.0,42.0,64.0,53.0,99999,4242.0,invalid,,,-1,V,3.0
V3,77.0,59.0,37.0,66.0,44.0,44,4286.0,square4,r,0.0976,3,V,3.0
V3,78.0,58.0,38.0,60.0,46.0,46,4332.0,square4,r,0.1799,3,V,3.0
V3,79.0,54.0,35.0,66.0,49.0,54,4386.0,square1,i,0.0618,0,V,3.0
V3,80.0,60.0,36.0,68.0,44.0,60,4446.0,square1,i,0.0139,0,V,3.0
V3,81.0,55.0,38.0,66.0,51.0,55,4501.0,square1,i,0.114,0,V,3.0
V3,82.0,57.0,47.0,64.0,50.0,57,4558.0,square1,i,0.1105,0,V,3.0
V3,83.0,57.0,37.0,63.0,45.0,57,4615.0,square1,i,0.1268,0,V,3.0
V3,84.0,54.0,40.0,65.0,53.0,54,4669.0,square1,i,0.1615,0,V,3.0
V3,85.0,58.0,41.0,63.0,48.0,58,4727.0,square1,i,0.0733,0,V,3.0
V3,86.0,53.0,38.0,57.0,49.0,53,4780.0,square1,i,0.1128,0,V,3.0
V3,87.0,49.0,42.0,60.0,43.0,49,4829.0,square1,i,0.1179,0,V,3.0
V3,88.0,56.0,35.0,70.0,46.0,56,4885.0,square1,i,0.0438,0,V,3.0
V3,89.0,58.0,39.0,63.0,52.0,58,4943.0,square1,i,0.1093,0,V,3.0
V3,90.0,59.0,43.0,63.0,45.0,59,5002.0,square1,i,0.0911,0,V,3.0
V3,91.0,54.0,37.0,69.0,49.0,54,5056.0,square1,i,0.0754,0,V,3.0
V3,92.0,56.0,41.0,61.0,47.0,56,5112.0,square1,i,0.0608,0,V,3.0
V3,93.0,58.0,35.0,68.0,47.0,58,5170.0,square1,i,0.0627,0,V,3.0
V3,94.0,61.0,37.0,67.0,51.0,61,5231.0,square1,i,0.0893,0,V,3.0
V3,95.0,57.0,32.0,64.0,47.0,57,5288.0,square1,i,0.243,0,V,3.0
V3,96.0,53.0,38.0,63.0,48.0,53,5341.0,square1,i,0.0284,0,V,3.0
V3,97.0,57.0,44.0,71.0,50.0,57,5398.0,square1,i,0.1597,0,V,3.0
V3,98.0,56.0,39.0,70.0,47.0,56,5454.0,square1,i,0.1972,0,V,3.0
V3,99.0,62.0,40.0,67.0,49.0,62,5516.0,square1,i,0.1217,0,V,3.0
V2,0.0,33.0,24.0,43.0,18.0,43,43.0,square3,r,0.9903,2,V,2.0
V2,1.0,33.0,29.0,42.0,21.0,29,72.0,square2,i,0.2897,1,V,2.0
V2,2.0,37.0,26.0,45.0,22.0,37,109.0,square1,f,0.7785,0,V,2.0
V2,3.0,39.0,26.0,41.0,20.0,39,148.0,square1,f,0.3277,0,V,2.0
V2,4.0,29.0,32.0,45.0,19.0,19,167.0,square4,j,0.014,3,V,2.0
V2,5.0,33.0,28.0,44.0,17.0,44,211.0,square3,r,0.0007,2,V,2.0
V2,6.0,32.0,24.0,49.0,20.0,49,260.0,square3,r,0.0005,2,V,2.0
V2,7.0,32.0,21.0,42.0,13.0,42,302.0,square3,r,0.7604,2,V,2.0
V2,8.0,35.0,23.0,45.0,19.0,45,347.0,square3,r,0.2974,2,V,2.0
V2,9.0,33.0,28.0,46.0,17.0,28,375.0,square2,i,0.3793,1,V,2.0
V2,10.0,39.0,27.0,45.0,21.0,45,420.0,square3,r,0.462,2,V,2.0
V2,11.0,30.0,23.0,44.0,22.0,44,464.0,square3,r,0.3618,2,V,2.0
V2,12.0,31.0,26.0,43.0,16.0,43,507.0,square3,r,0.3898,2,V,2.0
V2,13.0,35.0,26.0,43.0,22.0,43,550.0,square3,r,0.113,2,V,2.0
V2,14.0,35.0,29.0,46.0,19.0,46,596.0,square3,r,0.1564,2,V,2.0
V2,15.0,36.0,22.0,44.0,20.0,36,632.0,square1,f,0.2671,0,V,2.0
V2,16.0,33.0,27.0,45.0,19.0,45,677.0,square3,r,0.0433,2,V,2.0
V2,17.0,35.0,25.0,41.0,15.0,15,692.0,square4,j,0.0428,3,V,2.0
V2,18.0,37.0,27.0,51.0,21.0,51,743.0,square3,r,0.14,2,V,2.0
V2,19.0,33.0,25.0,43.0,18.0,43,786.0,square3,r,0.1613,2,V,2.0
V2,20.0,39.0,25.0,43.0,20.0,39,825.0,square1,f,0.3778,0,V,2.0
V2,21.0,27.0,32.0,43.0,24.0,27,852.0,square1,f,0.047,0,V,2.0
V2,22.0,35.0,27.0,50.0,13.0,35,887.0,square1,f,0.0805,0,V,2.0
V2,23.0,36.0,25.0,39.0,17.0,39,926.0,square3,r,0.0438,2,V,2.0
V2,24.0,32.0,45.0,39.0,59.0,39,965.0,square3,r,0.171,2,V,2.0
V2,25.0,26.0,43.0,37.0,55.0,37,1002.0,square3,r,0.0438,2,V,2.0
V2,26.0,23.0,45.0,39.0,58.0,39,1041.0,square3,r,0.1858,2,V,2.0
V2,27.0,30.0,44.0,40.0,56.0,40,1081.0,square3,r,0.5638,2,V,2.0
V2,28.0,34.0,48.0,41.0,54.0,41,1122.0,square3,r,0.4279,2,V,2.0
V2,29.0,29.0,42.0,35.0,54.0,35,1157.0,square3,r,0.7108,2,V,2.0
V2,30.0,22.0,39.0,39.0,55.0,39,1196.0,square3,r,0.1999,2,V,2.0
V2,31.0,32.0,48.0,35.0,50.0,35,1231.0,square3,r,0.197,2,V,2.0
V2,32.0,27.0,47.0,40.0,58.0,40,1271.0,square3,r,0.2604,2,V,2.0
V2,33.0,28.0,46.0,31.0,54.0,28,1299.0,square1,f,0.1128,0,V,2.0
V2,34.0,28.0,44.0,41.0,49.0,41,1340.0,square3,r,0.8134,2,V,2.0
V2,35.0,31.0,44.0,33.0,59.0,44,1384.0,square2,i,0.6451,1,V,2.0
V2,36.0,29.0,48.0,30.0,55.0,48,1432.0,square2,i,0.0273,1,V,2.0
V2,37.0,25.0,45.0,32.0,51.0,45,1477.0,square2,i,0.7991,1,V,2.0
V2,38.0,29.0,48.0,33.0,54.0,48,1525.0,square2,i,0.3428,1,V,2.0
V2,39.0,29.0,44.0,33.0,54.0,44,1569.0,square2,i,0.2461,1,V,2.0
V2,40.0,33.0,42.0,37.0,61.0,37,1606.0,square3,r,0.656,2,V,2.0
V2,41.0,28.0,45.0,41.0,57.0,45,1651.0,square2,i,0.3446,1,V,2.0
V2,42.0,33.0,46.0,36.0,54.0,54,1705.0,square4,j,0.4973,3,V,2.0
V2,43.0,31.0,42.0,40.0,57.0,57,1762.0,square4,j,0.532,3,V,2.0
V2,44.0,27.0,45.0,38.0,56.0,56,1818.0,square4,j,0.377,3,V,2.0
V2,45.0,27.0,44.0,32.0,51.0,51,1869.0,square4,j,0.2266,3,V,2.0
V2,46.0,28.0,44.0,39.0,57.0,57,1926.0,square4,j,0.2057,3,V,2.0
V2,47.0,30.0,45.0,36.0,56.0,56,1982.0,square4,j,0.0544,3,V,2.0
V2,48.0,31.0,47.0,41.0,59.0,59,2041.0,square4,j,0.2311,3,V,2.0
V2,49.0,32.0,45.0,33.0,57.0,57,2098.0,square4,j,0.1445,3,V,2.0
V2,50.0,24.0,38.0,36.0,52.0,52,2150.0,square4,j,0.1432,3,V,2.0
V2,51.0,29.0,48.0,34.0,54.0,54,2204.0,square4,j,0.0008,3,V,2.0
V2,52.0,30.0,50.0,38.0,56.0,56,2260.0,square4,j,0.0609,3,V,2.0
V2,53.0,27.0,47.0,33.0,55.0,55,2315.0,square4,j,0.0092,3,V,2.0
V2,54.0,34.0,21.0,45.0,25.0,25,2340.0,square4,j,0.1881,3,V,2.0
V2,55.0,36.0,19.0,39.0,24.0,36,2376.0,square1,f,0.5438,0,V,2.0
V2,56.0,29.0,19.0,45.0,18.0,18,2394.0,square4,j,0.3786,3,V,2.0
V2,57.0,29.0,20.0,39.0,20.0,20,2414.0,square4,j,0.3456,3,V,2.0
V2,58.0,40.0,18.0,42.0,21.0,18,2432.0,square2,i,0.2285,1,V,2.0
V2,59.0,31.0,17.0,44.0,23.0,44,2476.0,square3,r,0.2474,2,V,2.0
V2,60.0,31.0,19.0,42.0,20.0,42,2518.0,square3,r,0.1608,2,V,2.0
V2,61.0,34.0,16.0,41.0,25.0,41,2559.0,square3,r,0.0653,2,V,2.0
V2,62.0,28.0,12.0,41.0,22.0,41,2600.0,square3,r,0.1777,2,V,2.0
V2,63.0,32.0,14.0,45.0,26.0,45,2645.0,square3,r,0.0008,2,V,2.0
V2,64.0,36.0,21.0,41.0,25.0,41,2686.0,square3,r,0.1264,2,V,2.0
V2,65.0,32.0,13.0,39.0,24.0,39,2725.0,square3,r,0.3731,2,V,2.0
V2,66.0,35.0,15.0,42.0,20.0,42,2767.0,square3,r,0.2453,2,V,2.0
V2,67.0,30.0,23.0,47.0,27.0,27,2794.0,square4,j,0.1776,3,V,2.0
V2,68.0,31.0,17.0,43.0,24.0,43,2837.0,square3,r,0.0091,2,V,2.0
V2,69.0,33.0,20.0,41.0,20.0,33,2870.0,square1,f,0.1341,0,V,2.0
V2,70.0,37.0,17.0,43.0,21.0,43,2913.0,square3,r,0.0428,2,V,2.0
V2,71.0,45.0,31.0,36.0,58.0,31,2944.0,square2,i,0.1947,1,V,2.0
V2,72.0,47.0,31.0,31.0,54.0,31,2975.0,square3,r,0.027,2,V,2.0
V2,73.0,50.0,30.0,33.0,55.0,33,3008.0,square3,r,0.0146,2,V,2.0
V2,74.0,45.0,31.0,36.0,51.0,36,3044.0,square3,r,0.0909,2,V,2.0
V2,75.0,47.0,28.0,38.0,54.0,38,3082.0,square3,r,0.0774,2,V,2.0
V2,76.0,52.0,33.0,35.0,60.0,35,3117.0,square3,r,0.0049,2,V,2.0
V2,77.0,41.0,29.0,37.0,53.0,37,3154.0,square3,r,0.1123,2,V,2.0
V2,78.0,51.0,24.0,34.0,56.0,34,3188.0,square3,r,0.1256,2,V,2.0
V2,79.0,41.0,34.0,36.0,52.0,36,3224.0,square3,r,0.0647,2,V,2.0
V2,80.0,48.0,31.0,37.0,51.0,37,3261.0,square3,r,0.1442,2,V,2.0
V2,81.0,43.0,32.0,40.0,53.0,32,3293.0,square2,i,0.2981,1,V,2.0
V2,82.0,48.0,25.0,37.0,58.0,58,3351.0,square4,j,0.1099,3,V,2.0
V2,83.0,45.0,32.0,36.0,61.0,45,3396.0,square1,f,0.4266,0,V,2.0
V2,84.0,47.0,29.0,39.0,60.0,60,3456.0,square4,j,0.0301,3,V,2.0
V2,85.0,49.0,30.0,39.0,54.0,54,3510.0,square4,j,0.0007,3,V,2.0
V2,86.0,46.0,28.0,33.0,51.0,51,3561.0,square4,j,0.1125,3,V,2.0
V2,87.0,45.0,24.0,37.0,55.0,55,3616.0,square4,j,0.0308,3,V,2.0
V2,88.0,48.0,29.0,42.0,54.0,54,3670.0,square4,j,0.0402,3,V,2.0
V2,89.0,43.0,31.0,38.0,52.0,52,3722.0,square4,j,0.0118,3,V,2.0
V2,90.0,51.0,33.0,36.0,56.0,56,3778.0,square4,j,0.1065,3,V,2.0
V2,91.0,49.0,32.0,37.0,59.0,59,3837.0,square4,j,0.3595,3,V,2.0
V2,92.0,47.0,29.0,37.0,56.0,56,3893.0,square4,j,0.0106,3,V,2.0
V2,93.0,45.0,27.0,35.0,56.0,45,3938.0,square1,f,0.3783,0,V,2.0
V2,94.0,45.0,31.0,31.0,49.0,49,3987.0,square4,j,0.4609,3,V,2.0
V2,95.0,47.0,33.0,36.0,52.0,52,4039.0,square4,j,0.0223,3,V,2.0
V2,96.0,44.0,28.0,37.0,59.0,59,4098.0,square4,j,0.1798,3,V,2.0
V2,97.0,48.0,28.0,33.0,55.0,55,4153.0,square4,j,0.2004,3,V,2.0
V2,98.0,49.0,29.0,39.0,60.0,60,4213.0,square4,j,0.1755,3,V,2.0
V2,99.0,44.0,30.0,36.0,50.0,50,4263.0,square4,j,0.1467,3,V,2.0
V10,0.0,28.0,21.0,37.0,46.0,28,28.0,square1,r,1.4188,0,V,10.0
V10,1.0,26.0,19.0,41.0,49.0,41,69.0,square3,i,0.1976,2,V,10.0
V10,2.0,29.0,20.0,43.0,48.0,43,112.0,square3,i,0.2602,2,V,10.0
V10,3.0,27.0,27.0,37.0,44.0,37,149.0,square3,i,0.2222,2,V,10.0
V10,4.0,28.0,16.0,36.0,47.0,16,165.0,square2,j,0.2653,1,V,10.0
V10,5.0,33.0,25.0,42.0,54.0,54,219.0,square4,f,0.06,3,V,10.0
V10,6.0,28.0,19.0,35.0,45.0,45,264.0,square4,f,0.1774,3,V,10.0
V10,7.0,30.0,24.0,35.0,49.0,49,313.0,square4,f,0.1799,3,V,10.0
V10,8.0,37.0,29.0,41.0,47.0,47,360.0,square4,f,0.1732,3,V,10.0
V10,9.0,28.0,21.0,41.0,48.0,48,408.0,square4,f,0.1733,3,V,10.0
V10,10.0,27.0,22.0,39.0,42.0,39,447.0,square3,i,0.0145,2,V,10.0
V10,11.0,32.0,16.0,41.0,48.0,48,495.0,square4,f,0.1224,3,V,10.0
V10,12.0,34.0,15.0,33.0,49.0,49,544.0,square4,f,0.098,3,V,10.0
V10,13.0,36.0,19.0,41.0,45.0,45,589.0,square4,f,0.1446,3,V,10.0
V10,14.0,28.0,23.0,35.0,53.0,53,642.0,square4,f,0.1894,3,V,10.0
V10,15.0,26.0,28.0,40.0,50.0,50,692.0,square4,f,0.0006,3,V,10.0
V10,16.0,30.0,25.0,42.0,47.0,47,739.0,square4,f,0.0007,3,V,10.0
V10,17.0,31.0,19.0,38.0,50.0,50,789.0,square4,f,0.0935,3,V,10.0
V10,18.0,34.0,21.0,35.0,48.0,48,837.0,square4,f,0.0794,3,V,10.0
V10,19.0,31.0,24.0,39.0,46.0,46,883.0,square4,f,0.1974,3,V,10.0
V10,20.0,28.0,22.0,42.0,47.0,47,930.0,square4,f,0.1936,3,V,10.0
V10,21.0,24.0,20.0,41.0,47.0,47,977.0,square4,f,0.133,3,V,10.0
V10,22.0,32.0,22.0,34.0,44.0,44,1021.0,square4,f,0.1776,3,V,10.0
V10,23.0,29.0,23.0,37.0,47.0,47,1068.0,square4,f,0.1613,3,V,10.0
V10,24.0,25.0,25.0,38.0,46.0,38,1106.0,square3,i,0.0007,2,V,10.0
V10,25.0,30.0,24.0,41.0,45.0,30,1136.0,square1,r,0.0625,0,V,10.0
V10,26.0,32.0,17.0,38.0,49.0,17,1153.0,square2,j,0.0086,1,V,10.0
V10,27.0,34.0,21.0,38.0,47.0,47,1200.0,square4,f,0.0053,3,V,10.0
V10,28.0,29.0,21.0,37.0,45.0,45,1245.0,square4,f,0.1323,3,V,10.0
V10,29.0,30.0,20.0,31.0,47.0,47,1292.0,square4,f,0.1101,3,V,10.0
V10,30.0,28.0,21.0,35.0,44.0,44,1336.0,square4,f,0.1116,3,V,10.0
V10,31.0,36.0,25.0,14.0,8.0,14,1350.0,square3,i,0.1797,2,V,10.0
V10,32.0,38.0,27.0,19.0,11.0,11,1361.0,square4,f,0.2301,3,V,10.0
V10,33.0,39.0,21.0,20.0,13.0,21,1382.0,square2,j,0.1161,1,V,10.0
V10,34.0,34.0,24.0,20.0,10.0,34,1416.0,square1,r,0.1668,0,V,10.0
V10,35.0,44.0,29.0,17.0,11.0,44,1460.0,square1,r,0.2931,0,V,10.0
V10,36.0,33.0,30.0,17.0,9.0,33,1493.0,square1,r,0.0281,0,V,10.0
V10,37.0,31.0,27.0,12.0,6.0,31,1524.0,square1,r,0.0788,0,V,10.0
V10,38.0,34.0,29.0,15.0,10.0,34,1558.0,square1,r,0.1136,0,V,10.0
V10,39.0,35.0,21.0,19.0,5.0,35,1593.0,square1,r,0.1258,0,V,10.0
V10,40.0,32.0,26.0,18.0,6.0,32,1625.0,square1,r,0.0953,0,V,10.0
V10,41.0,34.0,32.0,13.0,9.0,34,1659.0,square1,r,0.0977,0,V,10.0
V10,42.0,35.0,30.0,16.0,8.0,35,1694.0,square1,r,0.0616,0,V,10.0
V10,43.0,38.0,32.0,16.0,8.0,38,1732.0,square1,r,0.0478,0,V,10.0
V10,44.0,34.0,20.0,18.0,3.0,34,1766.0,square1,r,0.1111,0,V,10.0
V10,45.0,38.0,22.0,23.0,9.0,38,1804.0,square1,r,0.1297,0,V,10.0
V10,46.0,36.0,28.0,16.0,10.0,36,1840.0,square1,r,0.1376,0,V,10.0
V10,47.0,36.0,27.0,13.0,8.0,36,1876.0,square1,r,0.1927,0,V,10.0
V10,48.0,35.0,27.0,14.0,12.0,35,1911.0,square1,r,0.1941,0,V,10.0
V10,49.0,33.0,28.0,16.0,10.0,33,1944.0,square1,r,0.1434,0,V,10.0
V10,50.0,31.0,29.0,19.0,8.0,31,1975.0,square1,r,0.0981,0,V,10.0
V10,51.0,32.0,21.0,20.0,12.0,32,2007.0,square1,r,0.2605,0,V,10.0
V10,52.0,29.0,25.0,21.0,10.0,29,2036.0,square1,r,0.0221,0,V,10.0
V10,53.0,39.0,29.0,23.0,2.0,23,2059.0,square3,i,0.0477,2,V,10.0
V10,54.0,33.0,28.0,19.0,7.0,28,2087.0,square2,j,0.151,1,V,10.0
V10,55.0,34.0,24.0,15.0,8.0,8,2095.0,square4,f,0.0804,3,V,10.0
V10,56.0,35.0,20.0,21.0,9.0,20,2115.0,square2,j,0.0452,1,V,10.0
V10,57.0,33.0,27.0,19.0,7.0,27,2142.0,square2,j,0.1993,1,V,10.0
V10,58.0,38.0,24.0,16.0,7.0,24,2166.0,square2,j,0.1449,1,V,10.0
V10,59.0,34.0,29.0,15.0,5.0,29,2195.0,square2,j,0.0006,1,V,10.0
V10,60.0,34.0,22.0,19.0,9.0,22,2217.0,square2,j,0.1758,1,V,10.0
V10,61.0,39.0,31.0,20.0,10.0,31,2248.0,square2,j,0.1117,1,V,10.0
V10,62.0,35.0,24.0,18.0,6.0,24,2272.0,square2,j,0.1989,1,V,10.0
V10,63.0,35.0,26.0,18.0,9.0,35,2307.0,square1,r,0.112,0,V,10.0
V10,64.0,31.0,55.0,23.0,23.0,23,2330.0,square3,i,0.0951,2,V,10.0
V10,65.0,35.0,50.0,22.0,27.0,35,2365.0,square1,r,0.0107,0,V,10.0
V10,66.0,35.0,53.0,25.0,29.0,35,2400.0,square1,r,0.0046,0,V,10.0
V10,67.0,38.0,44.0,17.0,29.0,38,2438.0,square1,r,0.0917,0,V,10.0
V10,68.0,36.0,48.0,22.0,27.0,36,2474.0,square1,r,0.1249,0,V,10.0
V10,69.0,41.0,53.0,17.0,28.0,41,2515.0,square1,r,0.0719,0,V,10.0
V10,70.0,40.0,48.0,23.0,28.0,40,2555.0,square1,r,0.0702,0,V,10.0
V10,71.0,39.0,43.0,24.0,20.0,39,2594.0,square1,r,0.1175,0,V,10.0
V10,72.0,36.0,49.0,19.0,25.0,49,2643.0,square2,j,0.2304,1,V,10.0
V10,73.0,39.0,49.0,23.0,32.0,49,2692.0,square2,j,0.0232,1,V,10.0
V10,74.0,36.0,44.0,17.0,29.0,44,2736.0,square2,j,0.174,1,V,10.0
V10,75.0,37.0,46.0,20.0,30.0,46,2782.0,square2,j,0.1594,1,V,10.0
V10,76.0,38.0,47.0,23.0,30.0,47,2829.0,square2,j,0.1356,1,V,10.0
V10,77.0,36.0,49.0,22.0,32.0,49,2878.0,square2,j,0.0277,1,V,10.0
V10,78.0,41.0,44.0,19.0,27.0,44,2922.0,square2,j,0.0887,1,V,10.0
V10,79.0,41.0,48.0,22.0,27.0,48,2970.0,square2,j,0.1608,1,V,10.0
V10,80.0,34.0,44.0,26.0,29.0,44,3014.0,square2,j,0.0584,1,V,10.0
V10,81.0,38.0,47.0,18.0,29.0,47,3061.0,square2,j,0.0612,1,V,10.0
V10,82.0,43.0,43.0,23.0,28.0,43,3104.0,square2,j,0.0466,1,V,10.0
V10,83.0,34.0,51.0,23.0,26.0,51,3155.0,square2,j,0.1441,1,V,10.0
V10,84.0,36.0,46.0,18.0,25.0,46,3201.0,square2,j,0.1604,1,V,10.0
V10,85.0,39.0,46.0,25.0,26.0,46,3247.0,square2,j,0.2101,1,V,10.0
V10,86.0,39.0,50.0,27.0,27.0,50,3297.0,square2,j,0.2228,1,V,10.0
V10,87.0,38.0,46.0,20.0,30.0,46,3343.0,square2,j,0.0005,1,V,10.0
V10,88.0,37.0,49.0,22.0,28.0,49,3392.0,square2,j,0.2243,1,V,10.0
V10,89.0,34.0,51.0,25.0,26.0,51,3443.0,square2,j,0.0271,1,V,10.0
V10,90.0,41.0,49.0,22.0,29.0,49,3492.0,square2,j,0.0068,1,V,10.0
V10,91.0,37.0,45.0,26.0,32.0,45,3537.0,square2,j,0.1506,1,V,10.0
V10,92.0,42.0,42.0,27.0,28.0,42,3579.0,square2,j,0.2288,1,V,10.0
V10,93.0,41.0,48.0,19.0,36.0,48,3627.0,square2,j,0.1094,1,V,10.0
V10,94.0,43.0,49.0,23.0,31.0,49,3676.0,square2,j,0.1269,1,V,10.0
V10,95.0,39.0,46.0,18.0,27.0,46,3722.0,square2,j,0.2126,1,V,10.0
V10,96.0,37.0,48.0,24.0,27.0,48,3770.0,square2,j,0.1474,1,V,10.0
V10,97.0,42.0,50.0,23.0,31.0,50,3820.0,square2,j,0.0943,1,V,10.0
V10,98.0,33.0,47.0,25.0,32.0,47,3867.0,square2,j,0.1131,1,V,10.0
V10,99.0,39.0,48.0,23.0,32.0,48,3915.0,square2,j,0.1468,1,V,10.0
NS8,0.0,61.0,62.0,34.0,32.0,62,62.0,square2,r,1.2701,1,N,8.0
NS8,1.0,57.0,56.0,38.0,27.0,27,89.0,square4,j,0.3313,3,N,8.0
NS8,2.0,66.0,55.0,42.0,28.0,42,131.0,square3,f,0.0301,2,N,8.0
NS8,3.0,67.0,51.0,37.0,28.0,67,198.0,square1,i,0.0082,0,N,8.0
NS8,4.0,65.0,53.0,38.0,32.0,53,251.0,square2,r,0.1989,1,N,8.0
NS8,5.0,67.0,52.0,43.0,33.0,52,303.0,square2,r,0.16,1,N,8.0
NS8,6.0,56.0,47.0,41.0,36.0,47,350.0,square2,r,0.2249,1,N,8.0
NS8,7.0,58.0,46.0,37.0,31.0,58,408.0,square1,i,0.6554,0,N,8.0
NS8,8.0,60.0,58.0,36.0,35.0,60,468.0,square1,i,0.5398,0,N,8.0
NS8,9.0,60.0,66.0,41.0,39.0,60,528.0,square1,i,0.045,0,N,8.0
NS8,10.0,60.0,60.0,36.0,33.0,60,588.0,square1,i,0.1593,0,N,8.0
NS8,11.0,53.0,63.0,32.0,35.0,53,641.0,square1,i,0.1751,0,N,8.0
NS8,12.0,51.0,60.0,32.0,29.0,51,692.0,square1,i,0.0257,0,N,8.0
NS8,13.0,53.0,65.0,30.0,32.0,53,745.0,square1,i,0.0006,0,N,8.0
NS8,14.0,56.0,69.0,25.0,33.0,56,801.0,square1,i,0.2235,0,N,8.0
NS8,15.0,57.0,71.0,29.0,35.0,57,858.0,square1,i,0.131,0,N,8.0
NS8,16.0,55.0,64.0,31.0,33.0,55,913.0,square1,i,0.0768,0,N,8.0
NS8,17.0,48.0,65.0,29.0,32.0,48,961.0,square1,i,0.0895,0,N,8.0
NS8,18.0,44.0,64.0,28.0,34.0,44,1005.0,square1,i,0.0469,0,N,8.0
NS8,19.0,46.0,60.0,26.0,33.0,60,1065.0,square2,r,0.1763,1,N,8.0
NS8,20.0,41.0,58.0,29.0,35.0,58,1123.0,square2,r,0.1048,1,N,8.0
NS8,21.0,45.0,57.0,29.0,35.0,57,1180.0,square2,r,0.0423,1,N,8.0
NS8,22.0,47.0,53.0,32.0,32.0,53,1233.0,square2,r,0.0566,1,N,8.0
NS8,23.0,49.0,52.0,33.0,35.0,52,1285.0,square2,r,0.028,1,N,8.0
NS8,24.0,56.0,53.0,30.0,37.0,53,1338.0,square2,r,0.0611,1,N,8.0
NS8,25.0,57.0,48.0,28.0,42.0,48,1386.0,square2,r,0.1278,1,N,8.0
NS8,26.0,52.0,48.0,33.0,43.0,33,1419.0,square3,f,0.0247,2,N,8.0
NS8,27.0,53.0,45.0,28.0,47.0,47,1466.0,square4,j,0.0845,3,N,8.0
NS8,28.0,50.0,43.0,27.0,41.0,41,1507.0,square4,j,0.0429,3,N,8.0
NS8,29.0,53.0,52.0,29.0,43.0,52,1559.0,square2,r,0.1102,1,N,8.0
NS8,30.0,54.0,51.0,30.0,41.0,54,1613.0,square1,i,0.01,0,N,8.0
NS8,31.0,50.0,50.0,31.0,42.0,50,1663.0,square1,i,0.147,0,N,8.0
NS8,32.0,50.0,50.0,35.0,43.0,50,1713.0,square1,i,0.0271,0,N,8.0
NS8,33.0,46.0,48.0,39.0,41.0,46,1759.0,square1,i,0.1824,0,N,8.0
NS8,34.0,47.0,46.0,41.0,40.0,46,1805.0,square2,r,0.0782,1,N,8.0
NS8,35.0,57.0,45.0,36.0,37.0,57,1862.0,square1,i,0.0939,0,N,8.0
NS8,36.0,53.0,49.0,41.0,38.0,53,1915.0,square1,i,0.0593,0,N,8.0
NS8,37.0,57.0,50.0,41.0,39.0,57,1972.0,square1,i,0.1394,0,N,8.0
NS8,38.0,61.0,51.0,39.0,43.0,61,2033.0,square1,i,0.0006,0,N,8.0
NS8,39.0,59.0,54.0,41.0,36.0,59,2092.0,square1,i,0.0949,0,N,8.0
NS8,40.0,53.0,55.0,47.0,40.0,53,2145.0,square1,i,1.8059,0,N,8.0
NS8,41.0,53.0,55.0,43.0,39.0,53,2198.0,square1,i,0.2291,0,N,8.0
NS8,42.0,59.0,55.0,45.0,40.0,59,2257.0,square1,i,0.0936,0,N,8.0
NS8,43.0,54.0,46.0,51.0,37.0,54,2311.0,square1,i,0.0714,0,N,8.0
NS8,44.0,56.0,44.0,50.0,35.0,56,2367.0,square1,i,0.1411,0,N,8.0
NS8,45.0,51.0,46.0,41.0,37.0,51,2418.0,square1,i,0.1769,0,N,8.0
NS8,46.0,52.0,43.0,44.0,34.0,52,2470.0,square1,i,0.1059,0,N,8.0
NS8,47.0,46.0,41.0,36.0,37.0,46,2516.0,square1,i,0.1102,0,N,8.0
NS8,48.0,47.0,46.0,39.0,37.0,47,2563.0,square1,i,0.0484,0,N,8.0
NS8,49.0,48.0,36.0,38.0,40.0,36,2599.0,square2,r,0.2609,1,N,8.0
NS8,50.0,51.0,37.0,36.0,46.0,37,2636.0,square2,r,0.0434,1,N,8.0
NS8,51.0,53.0,38.0,40.0,43.0,53,2689.0,square1,i,0.0275,0,N,8.0
NS8,52.0,47.0,32.0,37.0,44.0,47,2736.0,square1,i,0.0036,0,N,8.0
NS8,53.0,52.0,31.0,38.0,46.0,52,2788.0,square1,i,0.0261,0,N,8.0
NS8,54.0,44.0,34.0,40.0,45.0,44,2832.0,square1,i,0.044,0,N,8.0
NS8,55.0,46.0,26.0,37.0,41.0,46,2878.0,square1,i,0.0771,0,N,8.0
NS8,56.0,42.0,29.0,36.0,40.0,40,2918.0,square4,j,0.1946,3,N,8.0
NS8,57.0,39.0,21.0,39.0,40.0,39,2957.0,square3,f,0.1462,2,N,8.0
NS8,58.0,42.0,18.0,39.0,40.0,39,2996.0,square3,f,0.181,2,N,8.0
NS8,59.0,46.0,16.0,41.0,39.0,41,3037.0,square3,f,0.0781,2,N,8.0
NS8,60.0,45.0,20.0,40.0,39.0,39,3076.0,square4,j,0.16,3,N,8.0
NS8,61.0,45.0,26.0,42.0,39.0,26,3102.0,square2,r,0.1621,1,N,8.0
NS8,62.0,46.0,21.0,45.0,37.0,46,3148.0,square1,i,0.0935,0,N,8.0
NS8,63.0,50.0,23.0,40.0,38.0,50,3198.0,square1,i,0.1283,0,N,8.0
NS8,64.0,46.0,24.0,41.0,33.0,46,3244.0,square1,i,0.0653,0,N,8.0
NS8,65.0,48.0,28.0,42.0,32.0,48,3292.0,square1,i,0.0477,0,N,8.0
NS8,66.0,47.0,20.0,40.0,35.0,47,3339.0,square1,i,0.0007,0,N,8.0
NS8,67.0,49.0,25.0,46.0,34.0,49,3388.0,square1,i,0.0155,0,N,8.0
NS8,68.0,47.0,24.0,45.0,33.0,47,3435.0,square1,i,0.0622,0,N,8.0
NS8,69.0,45.0,21.0,47.0,35.0,45,3480.0,square1,i,0.1109,0,N,8.0
NS8,70.0,44.0,21.0,47.0,37.0,44,3524.0,square1,i,0.0259,0,N,8.0
NS8,71.0,44.0,15.0,41.0,38.0,44,3568.0,square1,i,0.0913,0,N,8.0
NS8,72.0,47.0,19.0,49.0,40.0,47,3615.0,square1,i,0.0782,0,N,8.0
NS8,73.0,39.0,21.0,53.0,38.0,39,3654.0,square1,i,0.1131,0,N,8.0
NS8,74.0,42.0,19.0,53.0,35.0,19,3673.0,square2,r,0.279,1,N,8.0
NS8,75.0,37.0,18.0,43.0,35.0,37,3710.0,square1,i,0.1609,0,N,8.0
NS8,76.0,35.0,14.0,42.0,38.0,38,3748.0,square4,j,0.0066,3,N,8.0
NS8,77.0,38.0,19.0,47.0,44.0,38,3786.0,square1,i,0.0454,0,N,8.0
NS8,78.0,38.0,18.0,50.0,46.0,50,3836.0,square3,f,0.1119,2,N,8.0
NS8,79.0,33.0,22.0,54.0,44.0,54,3890.0,square3,f,0.212,2,N,8.0
NS8,80.0,38.0,21.0,56.0,52.0,56,3946.0,square3,f,0.0778,2,N,8.0
NS8,81.0,37.0,22.0,56.0,43.0,56,4002.0,square3,f,0.0271,2,N,8.0
NS8,82.0,30.0,26.0,60.0,42.0,60,4062.0,square3,f,0.2988,2,N,8.0
NS8,83.0,38.0,22.0,54.0,46.0,54,4116.0,square3,f,0.0936,2,N,8.0
NS8,84.0,33.0,18.0,52.0,46.0,52,4168.0,square3,f,0.063,2,N,8.0
NS8,85.0,42.0,12.0,57.0,48.0,57,4225.0,square3,f,0.0927,2,N,8.0
NS8,86.0,45.0,19.0,58.0,42.0,58,4283.0,square3,f,0.0789,2,N,8.0
NS8,87.0,46.0,10.0,65.0,44.0,65,4348.0,square3,f,0.0993,2,N,8.0
NS8,88.0,45.0,11.0,59.0,45.0,59,4407.0,square3,f,0.1061,2,N,8.0
NS8,89.0,42.0,11.0,60.0,47.0,60,4467.0,square3,f,0.1053,2,N,8.0
NS8,90.0,40.0,7.0,64.0,49.0,64,4531.0,square3,f,0.3108,2,N,8.0
NS8,91.0,42.0,11.0,64.0,48.0,64,4595.0,square3,f,0.1126,2,N,8.0
NS8,92.0,43.0,13.0,60.0,43.0,60,4655.0,square3,f,0.1937,2,N,8.0
NS8,93.0,44.0,12.0,64.0,45.0,64,4719.0,square3,f,0.1606,2,N,8.0
NS8,94.0,45.0,16.0,65.0,49.0,65,4784.0,square3,f,0.1094,2,N,8.0
NS8,95.0,45.0,24.0,66.0,42.0,66,4850.0,square3,f,0.1808,2,N,8.0
NS8,96.0,53.0,27.0,67.0,44.0,67,4917.0,square3,f,0.1395,2,N,8.0
NS8,97.0,50.0,29.0,68.0,43.0,68,4985.0,square3,f,0.112,2,N,8.0
NS8,98.0,52.0,29.0,66.0,37.0,66,5051.0,square3,f,0.0947,2,N,8.0
NS8,99.0,53.0,32.0,65.0,37.0,65,5116.0,square3,f,0.139,2,N,8.0
NS2,0.0,44.0,66.0,42.0,38.0,42,42.0,square3,r,1.3345,2,N,2.0
NS2,1.0,44.0,66.0,47.0,43.0,66,108.0,square2,i,0.0955,1,N,2.0
NS2,2.0,42.0,62.0,53.0,43.0,62,170.0,square2,i,0.0571,1,N,2.0
NS2,3.0,46.0,58.0,48.0,46.0,58,228.0,square2,i,0.9095,1,N,2.0
NS2,4.0,47.0,61.0,51.0,42.0,61,289.0,square2,i,0.0957,1,N,2.0
NS2,5.0,51.0,58.0,50.0,50.0,58,347.0,square2,i,0.0399,1,N,2.0
NS2,6.0,52.0,58.0,43.0,48.0,58,405.0,square2,i,0.0656,1,N,2.0
NS2,7.0,50.0,52.0,43.0,50.0,52,457.0,square2,i,0.2881,1,N,2.0
NS2,8.0,54.0,58.0,41.0,46.0,58,515.0,square2,i,0.032,1,N,2.0
NS2,9.0,52.0,59.0,42.0,46.0,59,574.0,square2,i,0.0757,1,N,2.0
NS2,10.0,50.0,52.0,37.0,48.0,52,626.0,square2,i,0.1634,1,N,2.0
NS2,11.0,45.0,56.0,38.0,43.0,56,682.0,square2,i,0.1955,1,N,2.0
NS2,12.0,50.0,56.0,37.0,48.0,56,738.0,square2,i,0.1797,1,N,2.0
NS2,13.0,47.0,63.0,36.0,49.0,63,801.0,square2,i,0.0258,1,N,2.0
NS2,14.0,51.0,56.0,39.0,49.0,56,857.0,square2,i,0.0366,1,N,2.0
NS2,15.0,46.0,64.0,39.0,50.0,64,921.0,square2,i,0.194,1,N,2.0
NS2,16.0,51.0,61.0,37.0,47.0,61,982.0,square2,i,0.6978,1,N,2.0
NS2,17.0,59.0,68.0,46.0,53.0,68,1050.0,square2,i,1.8273,1,N,2.0
NS2,18.0,53.0,65.0,42.0,49.0,65,1115.0,square2,i,0.1901,1,N,2.0
NS2,19.0,52.0,67.0,47.0,49.0,67,1182.0,square2,i,0.0962,1,N,2.0
NS2,20.0,56.0,64.0,45.0,48.0,64,1246.0,square2,i,0.0436,1,N,2.0
NS2,21.0,57.0,73.0,46.0,44.0,73,1319.0,square2,i,0.1278,1,N,2.0
NS2,22.0,54.0,76.0,36.0,47.0,76,1395.0,square2,i,0.0439,1,N,2.0
NS2,23.0,55.0,77.0,35.0,42.0,77,1472.0,square2,i,0.1306,1,N,2.0
NS2,24.0,53.0,68.0,35.0,46.0,68,1540.0,square2,i,0.1807,1,N,2.0
NS2,25.0,55.0,73.0,29.0,45.0,73,1613.0,square2,i,0.0351,1,N,2.0
NS2,26.0,52.0,69.0,30.0,49.0,69,1682.0,square2,i,0.2546,1,N,2.0
NS2,27.0,52.0,62.0,33.0,52.0,62,1744.0,square2,i,0.0741,1,N,2.0
NS2,28.0,58.0,62.0,33.0,47.0,62,1806.0,square2,i,0.0767,1,N,2.0
NS2,29.0,56.0,65.0,38.0,46.0,65,1871.0,square2,i,0.5316,1,N,2.0
NS2,30.0,56.0,66.0,37.0,50.0,66,1937.0,square2,i,0.0837,1,N,2.0
NS2,31.0,50.0,64.0,35.0,45.0,64,2001.0,square2,i,0.0938,1,N,2.0
NS2,32.0,56.0,62.0,38.0,45.0,62,2063.0,square2,i,0.01,1,N,2.0
NS2,33.0,59.0,58.0,34.0,48.0,58,2121.0,square2,i,0.0659,1,N,2.0
NS2,34.0,55.0,59.0,36.0,48.0,59,2180.0,square2,i,0.0247,1,N,2.0
NS2,35.0,54.0,57.0,33.0,48.0,57,2237.0,square2,i,0.0006,1,N,2.0
NS2,36.0,53.0,58.0,34.0,51.0,58,2295.0,square2,i,0.2279,1,N,2.0
NS2,37.0,46.0,53.0,32.0,55.0,53,2348.0,square2,i,0.0222,1,N,2.0
NS2,38.0,46.0,59.0,37.0,49.0,59,2407.0,square2,i,0.1973,1,N,2.0
NS2,39.0,53.0,59.0,36.0,48.0,59,2466.0,square2,i,0.5928,1,N,2.0
NS2,40.0,46.0,60.0,37.0,42.0,60,2526.0,square2,i,0.0429,1,N,2.0
NS2,41.0,51.0,57.0,42.0,41.0,57,2583.0,square2,i,0.1166,1,N,2.0
NS2,42.0,49.0,53.0,46.0,41.0,53,2636.0,square2,i,1.291,1,N,2.0
NS2,43.0,49.0,57.0,43.0,39.0,57,2693.0,square2,i,0.0819,1,N,2.0
NS2,44.0,48.0,55.0,48.0,37.0,48,2741.0,square3,r,0.1686,2,N,2.0
NS2,45.0,49.0,52.0,34.0,36.0,49,2790.0,square1,j,0.3108,0,N,2.0
NS2,46.0,50.0,46.0,39.0,34.0,34,2824.0,square4,f,0.8635,3,N,2.0
NS2,47.0,55.0,48.0,39.0,26.0,55,2879.0,square1,j,0.3503,0,N,2.0
NS2,48.0,55.0,42.0,41.0,31.0,55,2934.0,square1,j,0.3307,0,N,2.0
NS2,49.0,55.0,41.0,36.0,36.0,55,2989.0,square1,j,0.1756,0,N,2.0
NS2,50.0,50.0,43.0,43.0,36.0,50,3039.0,square1,j,0.4957,0,N,2.0
NS2,51.0,49.0,40.0,44.0,32.0,49,3088.0,square1,j,0.0766,0,N,2.0
NS2,52.0,54.0,45.0,40.0,32.0,45,3133.0,square2,i,0.1141,1,N,2.0
NS2,53.0,55.0,44.0,42.0,38.0,42,3175.0,square3,r,0.3299,2,N,2.0
NS2,54.0,57.0,44.0,42.0,37.0,57,3232.0,square1,j,0.1776,0,N,2.0
NS2,55.0,56.0,47.0,35.0,29.0,56,3288.0,square1,j,0.1945,0,N,2.0
NS2,56.0,56.0,45.0,31.0,36.0,56,3344.0,square1,j,0.2149,0,N,2.0
NS2,57.0,48.0,43.0,33.0,36.0,48,3392.0,square1,j,0.0246,0,N,2.0
NS2,58.0,46.0,44.0,30.0,40.0,46,3438.0,square1,j,0.112,0,N,2.0
NS2,59.0,45.0,36.0,33.0,37.0,45,3483.0,square1,j,0.0598,0,N,2.0
NS2,60.0,45.0,37.0,32.0,38.0,37,3520.0,square2,i,0.0036,1,N,2.0
NS2,61.0,47.0,37.0,31.0,37.0,31,3551.0,square3,r,0.128,2,N,2.0
NS2,62.0,46.0,36.0,28.0,34.0,46,3597.0,square1,j,0.1422,0,N,2.0
NS2,63.0,53.0,36.0,26.0,43.0,53,3650.0,square1,j,0.1613,0,N,2.0
NS2,64.0,53.0,37.0,24.0,45.0,53,3703.0,square1,j,0.094,0,N,2.0
NS2,65.0,49.0,34.0,27.0,49.0,49,3752.0,square1,j,0.0504,0,N,2.0
NS2,66.0,50.0,30.0,26.0,57.0,50,3802.0,square1,j,0.1571,0,N,2.0
NS2,67.0,49.0,28.0,32.0,55.0,49,3851.0,square1,j,0.1216,0,N,2.0
NS2,68.0,53.0,23.0,35.0,55.0,53,3904.0,square1,j,0.2155,0,N,2.0
NS2,69.0,49.0,29.0,33.0,51.0,49,3953.0,square1,j,0.1474,0,N,2.0
NS2,70.0,54.0,27.0,30.0,60.0,54,4007.0,square1,j,0.1447,0,N,2.0
NS2,71.0,57.0,28.0,31.0,59.0,57,4064.0,square1,j,0.1759,0,N,2.0
NS2,72.0,55.0,25.0,29.0,61.0,55,4119.0,square1,j,0.2105,0,N,2.0
NS2,73.0,63.0,29.0,31.0,56.0,63,4182.0,square1,j,0.1474,0,N,2.0
NS2,74.0,59.0,34.0,34.0,58.0,59,4241.0,square1,j,0.0985,0,N,2.0
NS2,75.0,58.0,37.0,31.0,53.0,58,4299.0,square1,j,0.1297,0,N,2.0
NS2,76.0,62.0,41.0,25.0,53.0,62,4361.0,square1,j,0.1963,0,N,2.0
NS2,77.0,60.0,37.0,30.0,52.0,60,4421.0,square1,j,0.062,0,N,2.0
NS2,78.0,63.0,37.0,37.0,50.0,63,4484.0,square1,j,0.1278,0,N,2.0
NS2,79.0,66.0,44.0,32.0,47.0,66,4550.0,square1,j,0.0209,0,N,2.0
NS2,80.0,65.0,41.0,30.0,45.0,65,4615.0,square1,j,0.2106,0,N,2.0
NS2,81.0,60.0,37.0,26.0,49.0,60,4675.0,square1,j,0.0442,0,N,2.0
NS2,82.0,68.0,38.0,28.0,46.0,68,4743.0,square1,j,0.0637,0,N,2.0
NS2,83.0,63.0,42.0,30.0,49.0,63,4806.0,square1,j,0.0266,0,N,2.0
NS2,84.0,71.0,41.0,37.0,51.0,71,4877.0,square1,j,0.0006,0,N,2.0
NS2,85.0,63.0,47.0,29.0,40.0,63,4940.0,square1,j,0.0272,0,N,2.0
NS2,86.0,67.0,42.0,36.0,44.0,67,5007.0,square1,j,0.1799,0,N,2.0
NS2,87.0,62.0,45.0,31.0,41.0,62,5069.0,square1,j,0.1101,0,N,2.0
NS2,88.0,63.0,39.0,32.0,44.0,63,5132.0,square1,j,0.1296,0,N,2.0
NS2,89.0,66.0,39.0,37.0,39.0,66,5198.0,square1,j,0.0427,0,N,2.0
NS2,90.0,53.0,38.0,35.0,40.0,53,5251.0,square1,j,0.0004,0,N,2.0
NS2,91.0,57.0,39.0,38.0,43.0,39,5290.0,square2,i,0.0575,1,N,2.0
NS2,92.0,53.0,36.0,40.0,47.0,40,5330.0,square3,r,0.1561,2,N,2.0
NS2,93.0,47.0,39.0,43.0,38.0,38,5368.0,square4,f,0.0279,3,N,2.0
NS2,94.0,45.0,33.0,46.0,40.0,45,5413.0,square1,j,0.1615,0,N,2.0
NS2,95.0,49.0,38.0,53.0,36.0,49,5462.0,square1,j,0.0825,0,N,2.0
NS2,96.0,50.0,39.0,46.0,34.0,50,5512.0,square1,j,0.1053,0,N,2.0
NS2,97.0,57.0,37.0,44.0,41.0,57,5569.0,square1,j,0.0006,0,N,2.0
NS2,98.0,55.0,43.0,39.0,43.0,55,5624.0,square1,j,0.1087,0,N,2.0
NS2,99.0,56.0,46.0,41.0,41.0,56,5680.0,square1,j,0.077,0,N,2.0
NS4,0.0,55.0,53.0,59.0,44.0,55,55.0,square1,f,1.0054,0,N,4.0
NS4,1.0,49.0,56.0,64.0,41.0,49,104.0,square1,f,0.1101,0,N,4.0
NS4,2.0,50.0,54.0,71.0,48.0,54,158.0,square2,j,0.0616,1,N,4.0
NS4,3.0,53.0,58.0,67.0,50.0,58,216.0,square2,j,0.0555,1,N,4.0
NS4,4.0,49.0,51.0,70.0,55.0,51,267.0,square2,j,0.6771,1,N,4.0
NS4,5.0,55.0,59.0,73.0,58.0,59,326.0,square2,j,0.1216,1,N,4.0
NS4,6.0,56.0,54.0,71.0,57.0,54,380.0,square2,j,0.054,1,N,4.0
NS4,7.0,60.0,54.0,75.0,52.0,54,434.0,square2,j,0.0279,1,N,4.0
NS4,8.0,58.0,53.0,74.0,52.0,53,487.0,square2,j,0.0125,1,N,4.0
NS4,9.0,46.0,48.0,78.0,51.0,48,535.0,square2,j,0.0668,1,N,4.0
NS4,10.0,55.0,48.0,78.0,51.0,48,583.0,square2,j,0.175,1,N,4.0
NS4,11.0,55.0,44.0,79.0,49.0,44,627.0,square2,j,0.0215,1,N,4.0
NS4,12.0,50.0,40.0,79.0,50.0,40,667.0,square2,j,0.0008,1,N,4.0
NS4,13.0,45.0,39.0,79.0,53.0,39,706.0,square2,j,0.0091,1,N,4.0
NS4,14.0,44.0,38.0,77.0,56.0,38,744.0,square2,j,0.0007,1,N,4.0
NS4,15.0,45.0,32.0,68.0,52.0,32,776.0,square2,j,0.0006,1,N,4.0
NS4,16.0,49.0,32.0,74.0,53.0,32,808.0,square2,j,0.2401,1,N,4.0
NS4,17.0,45.0,32.0,69.0,51.0,32,840.0,square2,j,0.0441,1,N,4.0
NS4,18.0,50.0,34.0,69.0,47.0,34,874.0,square2,j,0.0723,1,N,4.0
NS4,19.0,50.0,36.0,65.0,53.0,36,910.0,square2,j,0.0441,1,N,4.0
NS4,20.0,45.0,36.0,62.0,53.0,36,946.0,square2,j,0.229,1,N,4.0
NS4,21.0,49.0,35.0,62.0,55.0,35,981.0,square2,j,0.0086,1,N,4.0
NS4,22.0,53.0,32.0,61.0,60.0,32,1013.0,square2,j,0.0385,1,N,4.0
NS4,23.0,52.0,33.0,58.0,54.0,33,1046.0,square2,j,0.0133,1,N,4.0
NS4,24.0,48.0,32.0,52.0,60.0,32,1078.0,square2,j,0.0482,1,N,4.0
NS4,25.0,47.0,30.0,53.0,57.0,53,1131.0,square3,i,0.2389,2,N,4.0
NS4,26.0,50.0,30.0,60.0,55.0,60,1191.0,square3,i,0.1608,2,N,4.0
NS4,27.0,50.0,28.0,62.0,47.0,62,1253.0,square3,i,0.1756,2,N,4.0
NS4,28.0,54.0,28.0,58.0,49.0,58,1311.0,square3,i,0.194,2,N,4.0
NS4,29.0,44.0,29.0,50.0,49.0,50,1361.0,square3,i,0.0007,2,N,4.0
NS4,30.0,43.0,26.0,55.0,57.0,55,1416.0,square3,i,0.2627,2,N,4.0
NS4,31.0,43.0,25.0,60.0,54.0,60,1476.0,square3,i,0.1735,2,N,4.0
NS4,32.0,34.0,27.0,58.0,56.0,58,1534.0,square3,i,0.1393,2,N,4.0
NS4,33.0,34.0,20.0,60.0,62.0,60,1594.0,square3,i,0.1784,2,N,4.0
NS4,34.0,38.0,28.0,58.0,57.0,58,1652.0,square3,i,0.0104,2,N,4.0
NS4,35.0,40.0,24.0,63.0,59.0,63,1715.0,square3,i,0.0418,2,N,4.0
NS4,36.0,36.0,30.0,56.0,63.0,56,1771.0,square3,i,0.2133,2,N,4.0
NS4,37.0,40.0,29.0,54.0,63.0,54,1825.0,square3,i,0.1244,2,N,4.0
NS4,38.0,40.0,33.0,53.0,69.0,53,1878.0,square3,i,0.2446,2,N,4.0
NS4,39.0,36.0,30.0,57.0,67.0,57,1935.0,square3,i,0.0004,2,N,4.0
NS4,40.0,33.0,33.0,58.0,68.0,58,1993.0,square3,i,0.1387,2,N,4.0
NS4,41.0,34.0,28.0,58.0,72.0,58,2051.0,square3,i,0.0447,2,N,4.0
NS4,42.0,35.0,30.0,60.0,70.0,99999,2051.0,invalid,,,-1,N,4.0
NS4,43.0,35.0,34.0,57.0,63.0,57,2108.0,square3,i,0.001,2,N,4.0
NS4,44.0,30.0,32.0,59.0,69.0,59,2167.0,square3,i,0.1973,2,N,4.0
NS4,45.0,29.0,31.0,60.0,66.0,60,2227.0,square3,i,0.0594,2,N,4.0
NS4,46.0,35.0,34.0,66.0,66.0,66,2293.0,square3,i,0.1103,2,N,4.0
NS4,47.0,35.0,28.0,63.0,62.0,63,2356.0,square3,i,0.0404,2,N,4.0
NS4,48.0,37.0,37.0,61.0,55.0,61,2417.0,square3,i,0.0631,2,N,4.0
NS4,49.0,40.0,34.0,59.0,54.0,59,2476.0,square3,i,0.2785,2,N,4.0
NS4,50.0,39.0,38.0,68.0,51.0,68,2544.0,square3,i,0.2394,2,N,4.0
NS4,51.0,46.0,28.0,69.0,48.0,69,2613.0,square3,i,1.0961,2,N,4.0
NS4,52.0,40.0,34.0,62.0,49.0,40,2653.0,square1,f,0.4935,0,N,4.0
NS4,53.0,39.0,34.0,63.0,48.0,63,2716.0,square3,i,0.0958,2,N,4.0
NS4,54.0,44.0,31.0,58.0,47.0,58,2774.0,square3,i,0.0607,2,N,4.0
NS4,55.0,42.0,30.0,68.0,46.0,46,2820.0,square4,r,0.2776,3,N,4.0
NS4,56.0,36.0,25.0,69.0,44.0,69,2889.0,square3,i,0.1918,2,N,4.0
NS4,57.0,35.0,29.0,71.0,46.0,71,2960.0,square3,i,0.0476,2,N,4.0
NS4,58.0,43.0,28.0,68.0,47.0,68,3028.0,square3,i,0.0643,2,N,4.0
NS4,59.0,43.0,27.0,67.0,43.0,67,3095.0,square3,i,0.059,2,N,4.0
NS4,60.0,40.0,25.0,72.0,46.0,72,3167.0,square3,i,0.1095,2,N,4.0
NS4,61.0,39.0,32.0,63.0,43.0,63,3230.0,square3,i,0.2121,2,N,4.0
NS4,62.0,39.0,29.0,61.0,39.0,61,3291.0,square3,i,0.0007,2,N,4.0
NS4,63.0,41.0,28.0,59.0,40.0,59,3350.0,square3,i,0.0006,2,N,4.0
NS4,64.0,41.0,31.0,57.0,51.0,57,3407.0,square3,i,0.0006,2,N,4.0
NS4,65.0,46.0,36.0,59.0,58.0,59,3466.0,square3,i,0.0006,2,N,4.0
NS4,66.0,45.0,36.0,53.0,46.0,53,3519.0,square3,i,0.1388,2,N,4.0
NS4,67.0,40.0,34.0,49.0,46.0,49,3568.0,square3,i,0.1647,2,N,4.0
NS4,68.0,43.0,37.0,48.0,48.0,48,3616.0,square3,i,0.0745,2,N,4.0
NS4,69.0,42.0,36.0,44.0,56.0,44,3660.0,square3,i,0.0545,2,N,4.0
NS4,70.0,40.0,38.0,47.0,58.0,47,3707.0,square3,i,0.0952,2,N,4.0
NS4,71.0,36.0,34.0,42.0,63.0,34,3741.0,square2,j,0.1809,1,N,4.0
NS4,72.0,38.0,36.0,36.0,66.0,38,3779.0,square1,f,0.0282,0,N,4.0
NS4,73.0,36.0,40.0,40.0,66.0,66,3845.0,square4,r,0.0411,3,N,4.0
NS4,74.0,31.0,38.0,46.0,67.0,67,3912.0,square4,r,0.0596,3,N,4.0
NS4,75.0,40.0,33.0,42.0,64.0,64,3976.0,square4,r,0.16,3,N,4.0
NS4,76.0,38.0,35.0,42.0,64.0,64,4040.0,square4,r,0.0891,3,N,4.0
NS4,77.0,40.0,35.0,39.0,66.0,66,4106.0,square4,r,0.16,3,N,4.0
NS4,78.0,40.0,33.0,38.0,68.0,68,4174.0,square4,r,0.0006,3,N,4.0
NS4,79.0,40.0,38.0,31.0,70.0,70,4244.0,square4,r,0.3267,3,N,4.0
NS4,80.0,37.0,35.0,33.0,73.0,73,4317.0,square4,r,0.043,3,N,4.0
NS4,81.0,34.0,35.0,30.0,70.0,70,4387.0,square4,r,0.0599,3,N,4.0
NS4,82.0,35.0,37.0,31.0,66.0,66,4453.0,square4,r,0.026,3,N,4.0
NS4,83.0,42.0,32.0,28.0,67.0,67,4520.0,square4,r,0.0428,3,N,4.0
NS4,84.0,38.0,35.0,30.0,68.0,68,4588.0,square4,r,0.1268,3,N,4.0
NS4,85.0,43.0,35.0,32.0,64.0,64,4652.0,square4,r,0.06,3,N,4.0
NS4,86.0,49.0,35.0,32.0,70.0,70,4722.0,square4,r,0.0007,3,N,4.0
NS4,87.0,48.0,34.0,32.0,69.0,69,4791.0,square4,r,0.159,3,N,4.0
NS4,88.0,50.0,35.0,30.0,64.0,64,4855.0,square4,r,0.1858,3,N,4.0
NS4,89.0,48.0,34.0,32.0,68.0,68,4923.0,square4,r,0.049,3,N,4.0
NS4,90.0,53.0,29.0,27.0,68.0,68,4991.0,square4,r,0.0585,3,N,4.0
NS4,91.0,54.0,27.0,34.0,68.0,68,5059.0,square4,r,0.1234,3,N,4.0
NS4,92.0,52.0,20.0,35.0,69.0,99999,5059.0,invalid,,,-1,N,4.0
NS4,93.0,42.0,15.0,33.0,68.0,68,5127.0,square4,r,0.0539,3,N,4.0
NS4,94.0,40.0,24.0,37.0,72.0,72,5199.0,square4,r,0.0945,3,N,4.0
NS4,95.0,43.0,25.0,43.0,69.0,69,5268.0,square4,r,0.0805,3,N,4.0
NS4,96.0,41.0,29.0,43.0,74.0,74,5342.0,square4,r,0.0816,3,N,4.0
NS4,97.0,46.0,32.0,42.0,78.0,78,5420.0,square4,r,0.2295,3,N,4.0
NS4,98.0,48.0,26.0,46.0,75.0,75,5495.0,square4,r,0.1244,3,N,4.0
NS4,99.0,46.0,27.0,45.0,71.0,71,5566.0,square4,r,0.0245,3,N,4.0
