block,Trial,square1,square2,square3,square4,currPoints,totalPoints,square,choiceKey.keys,choiceKey.rt,armNum,blockType,blockNum
prac,0.0,100.0,0.0,0.0,0.0,0,0.0,square2,,,1,p,0.0
prac,1.0,100.0,0.0,0.0,0.0,0,0.0,square3,,,2,p,0.0
prac,2.0,100.0,0.0,0.0,0.0,100,100.0,square1,,,0,p,0.0
prac,3.0,100.0,0.0,0.0,0.0,100,200.0,square1,,,0,p,0.0
prac,4.0,100.0,0.0,0.0,0.0,100,300.0,square1,,,0,p,0.0
prac,5.0,100.0,0.0,0.0,0.0,100,400.0,square1,,,0,p,0.0
prac,6.0,100.0,0.0,0.0,0.0,100,500.0,square1,,,0,p,0.0
prac,7.0,100.0,0.0,0.0,0.0,99999,500.0,invalid,,,-1,p,0.0
prac,8.0,100.0,0.0,0.0,0.0,100,600.0,square1,,,0,p,0.0
prac,9.0,100.0,0.0,0.0,0.0,100,700.0,square1,,,0,p,0.0
NS4,0.0,55.0,53.0,59.0,44.0,59,59.0,square3,r,0.6551,2,N,4.0
NS4,1.0,49.0,56.0,64.0,41.0,49,108.0,square1,i,0.0991,0,N,4.0
NS4,2.0,50.0,54.0,71.0,48.0,54,162.0,square2,j,0.4174,1,N,4.0
NS4,3.0,53.0,58.0,67.0,50.0,50,212.0,square4,f,0.3173,3,N,4.0
NS4,4.0,49.0,51.0,70.0,55.0,51,263.0,square2,j,0.2753,1,N,4.0
NS4,5.0,55.0,59.0,73.0,58.0,73,336.0,square3,r,0.5223,2,N,4.0
NS4,6.0,56.0,54.0,71.0,57.0,71,407.0,square3,r,0.3557,2,N,4.0
NS4,7.0,60.0,54.0,75.0,52.0,60,467.0,square1,i,0.336,0,N,4.0
NS4,8.0,58.0,53.0,74.0,52.0,52,519.0,square4,f,0.4233,3,N,4.0
NS4,9.0,46.0,48.0,78.0,51.0,46,565.0,square1,i,0.2068,0,N,4.0
NS4,10.0,55.0,48.0,78.0,51.0,48,613.0,square2,j,0.5174,1,N,4.0
NS4,11.0,55.0,44.0,79.0,49.0,49,662.0,square4,f,0.0849,3,N,4.0
NS4,12.0,50.0,40.0,79.0,50.0,79,741.0,square3,r,0.244,2,N,4.0
NS4,13.0,45.0,39.0,79.0,53.0,79,820.0,square3,r,0.3335,2,N,4.0
NS4,14.0,44.0,38.0,77.0,56.0,77,897.0,square3,r,0.2405,2,N,4.0
NS4,15.0,45.0,32.0,68.0,52.0,68,965.0,square3,r,0.29,2,N,4.0
NS4,16.0,49.0,32.0,74.0,53.0,49,1014.0,square1,i,0.28,0,N,4.0
NS4,17.0,45.0,32.0,69.0,51.0,32,1046.0,square2,j,0.0984,1,N,4.0
NS4,18.0,50.0,34.0,69.0,47.0,47,1093.0,square4,f,0.0721,3,N,4.0
NS4,19.0,50.0,36.0,65.0,53.0,65,1158.0,square3,r,0.3741,2,N,4.0
NS4,20.0,45.0,36.0,62.0,53.0,62,1220.0,square3,r,0.333,2,N,4.0
NS4,21.0,49.0,35.0,62.0,55.0,62,1282.0,square3,r,0.2505,2,N,4.0
NS4,22.0,53.0,32.0,61.0,60.0,61,1343.0,square3,r,0.3739,2,N,4.0
NS4,23.0,52.0,33.0,58.0,54.0,58,1401.0,square3,r,0.2594,2,N,4.0
NS4,24.0,48.0,32.0,52.0,60.0,52,1453.0,square3,r,0.2846,2,N,4.0
NS4,25.0,47.0,30.0,53.0,57.0,53,1506.0,square3,r,0.2179,2,N,4.0
NS4,26.0,50.0,30.0,60.0,55.0,60,1566.0,square3,r,0.2341,2,N,4.0
NS4,27.0,50.0,28.0,62.0,47.0,50,1616.0,square1,i,0.2223,0,N,4.0
NS4,28.0,54.0,28.0,58.0,49.0,28,1644.0,square2,j,0.1556,1,N,4.0
NS4,29.0,44.0,29.0,50.0,49.0,49,1693.0,square4,f,0.0695,3,N,4.0
NS4,30.0,43.0,26.0,55.0,57.0,55,1748.0,square3,r,0.059,2,N,4.0
NS4,31.0,43.0,25.0,60.0,54.0,43,1791.0,square1,i,0.1673,0,N,4.0
NS4,32.0,34.0,27.0,58.0,56.0,58,1849.0,square3,r,0.0675,2,N,4.0
NS4,33.0,34.0,20.0,60.0,62.0,60,1909.0,square3,r,0.2001,2,N,4.0
NS4,34.0,38.0,28.0,58.0,57.0,58,1967.0,square3,r,0.2335,2,N,4.0
NS4,35.0,40.0,24.0,63.0,59.0,63,2030.0,square3,r,0.2394,2,N,4.0
NS4,36.0,36.0,30.0,56.0,63.0,56,2086.0,square3,r,0.0908,2,N,4.0
NS4,37.0,40.0,29.0,54.0,63.0,54,2140.0,square3,r,0.1836,2,N,4.0
NS4,38.0,40.0,33.0,53.0,69.0,53,2193.0,square3,r,0.5078,2,N,4.0
NS4,39.0,36.0,30.0,57.0,67.0,57,2250.0,square3,r,0.4086,2,N,4.0
NS4,40.0,33.0,33.0,58.0,68.0,58,2308.0,square3,r,0.2581,2,N,4.0
NS4,41.0,34.0,28.0,58.0,72.0,58,2366.0,square3,r,0.7272,2,N,4.0
NS4,42.0,35.0,30.0,60.0,70.0,60,2426.0,square3,r,0.3346,2,N,4.0
NS4,43.0,35.0,34.0,57.0,63.0,35,2461.0,square1,i,0.0658,0,N,4.0
NS4,44.0,30.0,32.0,59.0,69.0,59,2520.0,square3,r,0.2577,2,N,4.0
NS4,45.0,29.0,31.0,60.0,66.0,66,2586.0,square4,f,0.2855,3,N,4.0
NS4,46.0,35.0,34.0,66.0,66.0,66,2652.0,square4,f,0.3719,3,N,4.0
NS4,47.0,35.0,28.0,63.0,62.0,62,2714.0,square4,f,0.2668,3,N,4.0
NS4,48.0,37.0,37.0,61.0,55.0,37,2751.0,square2,j,0.1387,1,N,4.0
NS4,49.0,40.0,34.0,59.0,54.0,54,2805.0,square4,f,0.3086,3,N,4.0
NS4,50.0,39.0,38.0,68.0,51.0,68,2873.0,square3,r,0.951,2,N,4.0
NS4,51.0,46.0,28.0,69.0,48.0,69,2942.0,square3,r,0.1837,2,N,4.0
NS4,52.0,40.0,34.0,62.0,49.0,62,3004.0,square3,r,0.2377,2,N,4.0
NS4,53.0,39.0,34.0,63.0,48.0,63,3067.0,square3,r,0.0245,2,N,4.0
NS4,54.0,44.0,31.0,58.0,47.0,58,3125.0,square3,r,0.0008,2,N,4.0
NS4,55.0,42.0,30.0,68.0,46.0,42,3167.0,square1,i,0.4244,0,N,4.0
NS4,56.0,36.0,25.0,69.0,44.0,44,3211.0,square4,f,0.0746,3,N,4.0
NS4,57.0,35.0,29.0,71.0,46.0,29,3240.0,square2,j,0.3006,1,N,4.0
NS4,58.0,43.0,28.0,68.0,47.0,68,3308.0,square3,r,0.2497,2,N,4.0
NS4,59.0,43.0,27.0,67.0,43.0,67,3375.0,square3,r,0.275,2,N,4.0
NS4,60.0,40.0,25.0,72.0,46.0,72,3447.0,square3,r,0.1247,2,N,4.0
NS4,61.0,39.0,32.0,63.0,43.0,63,3510.0,square3,r,0.1835,2,N,4.0
NS4,62.0,39.0,29.0,61.0,39.0,61,3571.0,square3,r,0.0183,2,N,4.0
NS4,63.0,41.0,28.0,59.0,40.0,59,3630.0,square3,r,0.0066,2,N,4.0
NS4,64.0,41.0,31.0,57.0,51.0,57,3687.0,square3,r,0.1069,2,N,4.0
NS4,65.0,46.0,36.0,59.0,58.0,59,3746.0,square3,r,0.1503,2,N,4.0
NS4,66.0,45.0,36.0,53.0,46.0,46,3792.0,square4,f,0.3004,3,N,4.0
NS4,67.0,40.0,34.0,49.0,46.0,34,3826.0,square2,j,0.4569,1,N,4.0
NS4,68.0,43.0,37.0,48.0,48.0,43,3869.0,square1,i,0.253,0,N,4.0
NS4,69.0,42.0,36.0,44.0,56.0,44,3913.0,square3,r,0.2903,2,N,4.0
NS4,70.0,40.0,38.0,47.0,58.0,47,3960.0,square3,r,0.289,2,N,4.0
NS4,71.0,36.0,34.0,42.0,63.0,42,4002.0,square3,r,0.4513,2,N,4.0
NS4,72.0,38.0,36.0,36.0,66.0,38,4040.0,square1,i,0.2754,0,N,4.0
NS4,73.0,36.0,40.0,40.0,66.0,40,4080.0,square2,j,0.3293,1,N,4.0
NS4,74.0,31.0,38.0,46.0,67.0,67,4147.0,square4,f,0.042,3,N,4.0
NS4,75.0,40.0,33.0,42.0,64.0,64,4211.0,square4,f,0.2722,3,N,4.0
NS4,76.0,38.0,35.0,42.0,64.0,64,4275.0,square4,f,0.2507,3,N,4.0
NS4,77.0,40.0,35.0,39.0,66.0,66,4341.0,square4,f,0.1227,3,N,4.0
NS4,78.0,40.0,33.0,38.0,68.0,68,4409.0,square4,f,0.1828,3,N,4.0
NS4,79.0,40.0,38.0,31.0,70.0,70,4479.0,square4,f,0.1673,3,N,4.0
NS4,80.0,37.0,35.0,33.0,73.0,73,4552.0,square4,f,0.0435,3,N,4.0
NS4,81.0,34.0,35.0,30.0,70.0,70,4622.0,square4,f,0.1516,3,N,4.0
NS4,82.0,35.0,37.0,31.0,66.0,66,4688.0,square4,f,0.9256,3,N,4.0
NS4,83.0,42.0,32.0,28.0,67.0,67,4755.0,square4,f,0.1578,3,N,4.0
NS4,84.0,38.0,35.0,30.0,68.0,68,4823.0,square4,f,0.2091,3,N,4.0
NS4,85.0,43.0,35.0,32.0,64.0,64,4887.0,square4,f,0.2421,3,N,4.0
NS4,86.0,49.0,35.0,32.0,70.0,70,4957.0,square4,f,0.9425,3,N,4.0
NS4,87.0,48.0,34.0,32.0,69.0,69,5026.0,square4,f,0.5103,3,N,4.0
NS4,88.0,50.0,35.0,30.0,64.0,64,5090.0,square4,f,0.3912,3,N,4.0
NS4,89.0,48.0,34.0,32.0,68.0,68,5158.0,square4,f,0.3411,3,N,4.0
NS4,90.0,53.0,29.0,27.0,68.0,68,5226.0,square4,f,0.2727,3,N,4.0
NS4,91.0,54.0,27.0,34.0,68.0,68,5294.0,square4,f,0.2386,3,N,4.0
NS4,92.0,52.0,20.0,35.0,69.0,69,5363.0,square4,f,0.0524,3,N,4.0
NS4,93.0,42.0,15.0,33.0,68.0,68,5431.0,square4,f,0.1012,3,N,4.0
NS4,94.0,40.0,24.0,37.0,72.0,72,5503.0,square4,f,0.1683,3,N,4.0
NS4,95.0,43.0,25.0,43.0,69.0,69,5572.0,square4,f,0.1347,3,N,4.0
NS4,96.0,41.0,29.0,43.0,74.0,74,5646.0,square4,f,0.1726,3,N,4.0
NS4,97.0,46.0,32.0,42.0,78.0,78,5724.0,square4,f,0.1175,3,N,4.0
NS4,98.0,48.0,26.0,46.0,75.0,75,5799.0,square4,f,0.0559,3,N,4.0
NS4,99.0,46.0,27.0,45.0,71.0,99999,5799.0,invalid,,,-1,N,4.0
NS9,0.0,40.0,33.0,41.0,64.0,41,41.0,square3,i,1.3614,2,N,9.0
NS9,1.0,40.0,19.0,39.0,64.0,40,81.0,square1,j,1.6847,0,N,9.0
NS9,2.0,41.0,16.0,44.0,59.0,16,97.0,square2,f,0.5074,1,N,9.0
NS9,3.0,41.0,19.0,48.0,58.0,58,155.0,square4,r,0.368,3,N,9.0
NS9,4.0,46.0,18.0,45.0,54.0,54,209.0,square4,r,0.217,3,N,9.0
NS9,5.0,40.0,17.0,53.0,54.0,54,263.0,square4,r,0.0572,3,N,9.0
NS9,6.0,40.0,19.0,47.0,46.0,46,309.0,square4,r,0.1589,3,N,9.0
NS9,7.0,44.0,21.0,51.0,49.0,51,360.0,square3,i,0.026,2,N,9.0
NS9,8.0,41.0,26.0,44.0,55.0,44,404.0,square3,i,0.117,2,N,9.0
NS9,9.0,36.0,15.0,44.0,54.0,36,440.0,square1,j,0.2181,0,N,9.0
NS9,10.0,32.0,19.0,48.0,49.0,19,459.0,square2,f,0.2573,1,N,9.0
NS9,11.0,32.0,18.0,50.0,57.0,57,516.0,square4,r,0.273,3,N,9.0
NS9,12.0,32.0,18.0,57.0,52.0,52,568.0,square4,r,0.001,3,N,9.0
NS9,13.0,32.0,8.0,58.0,56.0,56,624.0,square4,r,0.2084,3,N,9.0
NS9,14.0,28.0,9.0,61.0,55.0,55,679.0,square4,r,0.1025,3,N,9.0
NS9,15.0,31.0,11.0,64.0,48.0,48,727.0,square4,r,0.0523,3,N,9.0
NS9,16.0,34.0,13.0,68.0,47.0,68,795.0,square3,i,0.1221,2,N,9.0
NS9,17.0,37.0,11.0,71.0,54.0,71,866.0,square3,i,0.0745,2,N,9.0
NS9,18.0,35.0,10.0,71.0,50.0,71,937.0,square3,i,0.0579,2,N,9.0
NS9,19.0,32.0,21.0,77.0,49.0,77,1014.0,square3,i,0.4515,2,N,9.0
NS9,20.0,41.0,22.0,74.0,48.0,74,1088.0,square3,i,0.6636,2,N,9.0
NS9,21.0,40.0,21.0,75.0,50.0,75,1163.0,square3,i,0.2905,2,N,9.0
NS9,22.0,42.0,23.0,72.0,54.0,72,1235.0,square3,i,0.2838,2,N,9.0
NS9,23.0,43.0,22.0,75.0,45.0,75,1310.0,square3,i,0.3384,2,N,9.0
NS9,24.0,41.0,18.0,70.0,49.0,70,1380.0,square3,i,0.2172,2,N,9.0
NS9,25.0,38.0,21.0,75.0,53.0,75,1455.0,square3,i,0.2358,2,N,9.0
NS9,26.0,40.0,20.0,73.0,54.0,73,1528.0,square3,i,0.0527,2,N,9.0
NS9,27.0,46.0,21.0,74.0,56.0,74,1602.0,square3,i,0.3011,2,N,9.0
NS9,28.0,51.0,25.0,72.0,58.0,72,1674.0,square3,i,0.1671,2,N,9.0
NS9,29.0,43.0,29.0,71.0,56.0,71,1745.0,square3,i,0.3587,2,N,9.0
NS9,30.0,38.0,26.0,71.0,52.0,71,1816.0,square3,i,0.3674,2,N,9.0
NS9,31.0,43.0,23.0,73.0,53.0,73,1889.0,square3,i,0.2507,2,N,9.0
NS9,32.0,43.0,24.0,76.0,52.0,76,1965.0,square3,i,0.1417,2,N,9.0
NS9,33.0,41.0,18.0,72.0,49.0,72,2037.0,square3,i,0.7234,2,N,9.0
NS9,34.0,36.0,26.0,68.0,55.0,68,2105.0,square3,i,0.2675,2,N,9.0
NS9,35.0,34.0,34.0,68.0,52.0,34,2139.0,square1,j,0.1084,0,N,9.0
NS9,36.0,34.0,43.0,70.0,49.0,43,2182.0,square2,f,0.1507,1,N,9.0
NS9,37.0,32.0,41.0,61.0,47.0,47,2229.0,square4,r,0.2567,3,N,9.0
NS9,38.0,28.0,41.0,65.0,47.0,65,2294.0,square3,i,0.2899,2,N,9.0
NS9,39.0,28.0,43.0,61.0,48.0,61,2355.0,square3,i,0.2836,2,N,9.0
NS9,40.0,26.0,46.0,65.0,39.0,65,2420.0,square3,i,0.2003,2,N,9.0
NS9,41.0,21.0,38.0,62.0,41.0,62,2482.0,square3,i,0.0698,2,N,9.0
NS9,42.0,18.0,37.0,59.0,42.0,59,2541.0,square3,i,0.6552,2,N,9.0
NS9,43.0,18.0,44.0,57.0,39.0,57,2598.0,square3,i,0.2746,2,N,9.0
NS9,44.0,19.0,43.0,58.0,36.0,58,2656.0,square3,i,0.2506,2,N,9.0
NS9,45.0,23.0,42.0,53.0,39.0,53,2709.0,square3,i,0.142,2,N,9.0
NS9,46.0,22.0,48.0,58.0,43.0,58,2767.0,square3,i,0.0916,2,N,9.0
NS9,47.0,20.0,47.0,51.0,44.0,51,2818.0,square3,i,0.5893,2,N,9.0
NS9,48.0,21.0,43.0,57.0,40.0,40,2858.0,square4,r,0.2393,3,N,9.0
NS9,49.0,25.0,38.0,59.0,46.0,25,2883.0,square1,j,0.709,0,N,9.0
NS9,50.0,27.0,41.0,49.0,52.0,41,2924.0,square2,f,0.367,1,N,9.0
NS9,51.0,20.0,42.0,52.0,54.0,52,2976.0,square3,i,0.2424,2,N,9.0
NS9,52.0,18.0,41.0,51.0,48.0,51,3027.0,square3,i,0.2911,2,N,9.0
NS9,53.0,17.0,43.0,52.0,50.0,52,3079.0,square3,i,0.2195,2,N,9.0
NS9,54.0,27.0,37.0,55.0,56.0,55,3134.0,square3,i,0.3519,2,N,9.0
NS9,55.0,30.0,38.0,59.0,50.0,59,3193.0,square3,i,0.2684,2,N,9.0
NS9,56.0,32.0,49.0,54.0,59.0,54,3247.0,square3,i,0.2723,2,N,9.0
NS9,57.0,34.0,50.0,50.0,58.0,50,3297.0,square3,i,0.1174,2,N,9.0
NS9,58.0,28.0,49.0,54.0,51.0,51,3348.0,square4,r,0.2998,3,N,9.0
NS9,59.0,26.0,47.0,46.0,49.0,49,3397.0,square4,r,0.2702,3,N,9.0
NS9,60.0,30.0,47.0,50.0,51.0,47,3444.0,square2,f,0.4221,1,N,9.0
NS9,61.0,29.0,43.0,51.0,50.0,43,3487.0,square2,f,0.3839,1,N,9.0
NS9,62.0,32.0,42.0,52.0,54.0,32,3519.0,square1,j,0.2735,0,N,9.0
NS9,63.0,35.0,45.0,57.0,46.0,57,3576.0,square3,i,1.3594,2,N,9.0
NS9,64.0,37.0,41.0,53.0,44.0,53,3629.0,square3,i,0.285,2,N,9.0
NS9,65.0,34.0,41.0,50.0,49.0,50,3679.0,square3,i,0.0706,2,N,9.0
NS9,66.0,38.0,43.0,46.0,53.0,46,3725.0,square3,i,0.0009,2,N,9.0
NS9,67.0,36.0,35.0,51.0,54.0,54,3779.0,square4,r,0.6432,3,N,9.0
NS9,68.0,43.0,38.0,48.0,57.0,57,3836.0,square4,r,0.3013,3,N,9.0
NS9,69.0,42.0,42.0,48.0,49.0,49,3885.0,square4,r,0.2024,3,N,9.0
NS9,70.0,45.0,40.0,50.0,51.0,40,3925.0,square2,f,0.2017,1,N,9.0
NS9,71.0,49.0,42.0,48.0,52.0,49,3974.0,square1,j,0.209,0,N,9.0
NS9,72.0,39.0,44.0,47.0,58.0,39,4013.0,square1,j,0.5049,0,N,9.0
NS9,73.0,40.0,45.0,45.0,62.0,62,4075.0,square4,r,0.0142,3,N,9.0
NS9,74.0,46.0,48.0,47.0,56.0,56,4131.0,square4,r,0.2182,3,N,9.0
NS9,75.0,35.0,39.0,53.0,65.0,65,4196.0,square4,r,0.2503,3,N,9.0
NS9,76.0,40.0,45.0,56.0,67.0,67,4263.0,square4,r,0.2411,3,N,9.0
NS9,77.0,38.0,46.0,54.0,69.0,69,4332.0,square4,r,0.2169,3,N,9.0
NS9,78.0,37.0,42.0,53.0,69.0,69,4401.0,square4,r,0.3269,3,N,9.0
NS9,79.0,40.0,44.0,53.0,70.0,70,4471.0,square4,r,0.3833,3,N,9.0
NS9,80.0,37.0,50.0,55.0,70.0,70,4541.0,square4,r,0.4166,3,N,9.0
NS9,81.0,33.0,54.0,54.0,63.0,63,4604.0,square4,r,0.2929,3,N,9.0
NS9,82.0,35.0,55.0,52.0,74.0,74,4678.0,square4,r,0.3934,3,N,9.0
NS9,83.0,34.0,48.0,56.0,75.0,75,4753.0,square4,r,0.3893,3,N,9.0
NS9,84.0,39.0,51.0,62.0,78.0,78,4831.0,square4,r,0.2091,3,N,9.0
NS9,85.0,38.0,57.0,55.0,77.0,77,4908.0,square4,r,0.2919,3,N,9.0
NS9,86.0,34.0,53.0,57.0,68.0,68,4976.0,square4,r,0.3073,3,N,9.0
NS9,87.0,35.0,48.0,55.0,69.0,69,5045.0,square4,r,0.4594,3,N,9.0
NS9,88.0,41.0,48.0,50.0,69.0,69,5114.0,square4,r,0.3081,3,N,9.0
NS9,89.0,38.0,54.0,55.0,70.0,70,5184.0,square4,r,0.3175,3,N,9.0
NS9,90.0,43.0,55.0,49.0,71.0,71,5255.0,square4,r,0.3743,3,N,9.0
NS9,91.0,41.0,46.0,54.0,78.0,78,5333.0,square4,r,0.2851,3,N,9.0
NS9,92.0,40.0,42.0,41.0,72.0,72,5405.0,square4,r,0.7503,3,N,9.0
NS9,93.0,39.0,43.0,47.0,70.0,70,5475.0,square4,r,0.0349,3,N,9.0
NS9,94.0,36.0,47.0,43.0,80.0,80,5555.0,square4,r,0.351,3,N,9.0
NS9,95.0,37.0,46.0,43.0,75.0,75,5630.0,square4,r,0.1088,3,N,9.0
NS9,96.0,39.0,47.0,47.0,75.0,75,5705.0,square4,r,0.0071,3,N,9.0
NS9,97.0,35.0,41.0,49.0,80.0,80,5785.0,square4,r,0.5849,3,N,9.0
NS9,98.0,33.0,45.0,56.0,74.0,74,5859.0,square4,r,0.1185,3,N,9.0
NS9,99.0,34.0,42.0,58.0,74.0,74,5933.0,square4,r,0.1076,3,N,9.0
NS6,0.0,68.0,18.0,30.0,58.0,18,18.0,square2,i,1.304,1,N,6.0
NS6,1.0,62.0,23.0,38.0,67.0,38,56.0,square3,j,0.6724,2,N,6.0
NS6,2.0,59.0,30.0,33.0,67.0,67,123.0,square4,f,1.6394,3,N,6.0
NS6,3.0,62.0,27.0,39.0,65.0,62,185.0,square1,r,0.3087,0,N,6.0
NS6,4.0,65.0,22.0,32.0,67.0,67,252.0,square4,f,0.2747,3,N,6.0
NS6,5.0,61.0,28.0,39.0,67.0,67,319.0,square4,f,0.2012,3,N,6.0
NS6,6.0,59.0,28.0,39.0,66.0,66,385.0,square4,f,0.2,3,N,6.0
NS6,7.0,56.0,30.0,43.0,63.0,63,448.0,square4,f,0.1331,3,N,6.0
NS6,8.0,57.0,26.0,36.0,60.0,60,508.0,square4,f,0.1745,3,N,6.0
NS6,9.0,51.0,30.0,38.0,65.0,65,573.0,square4,f,0.134,3,N,6.0
NS6,10.0,46.0,26.0,41.0,61.0,61,634.0,square4,f,0.1579,3,N,6.0
NS6,11.0,46.0,30.0,40.0,58.0,46,680.0,square1,r,0.092,0,N,6.0
NS6,12.0,44.0,27.0,41.0,56.0,56,736.0,square4,f,0.266,3,N,6.0
NS6,13.0,41.0,32.0,44.0,54.0,44,780.0,square3,j,0.0888,2,N,6.0
NS6,14.0,45.0,36.0,41.0,51.0,36,816.0,square2,i,0.0729,1,N,6.0
NS6,15.0,37.0,34.0,39.0,54.0,37,853.0,square1,r,0.2562,0,N,6.0
NS6,16.0,36.0,37.0,39.0,48.0,48,901.0,square4,f,0.2423,3,N,6.0
NS6,17.0,41.0,39.0,36.0,45.0,45,946.0,square4,f,0.3003,3,N,6.0
NS6,18.0,39.0,38.0,29.0,48.0,48,994.0,square4,f,0.1911,3,N,6.0
NS6,19.0,35.0,40.0,32.0,46.0,46,1040.0,square4,f,0.1326,3,N,6.0
NS6,20.0,41.0,40.0,28.0,55.0,55,1095.0,square4,f,0.1083,3,N,6.0
NS6,21.0,45.0,44.0,27.0,54.0,54,1149.0,square4,f,0.109,3,N,6.0
NS6,22.0,44.0,51.0,31.0,53.0,53,1202.0,square4,f,0.0064,3,N,6.0
NS6,23.0,44.0,50.0,29.0,53.0,53,1255.0,square4,f,0.0214,3,N,6.0
NS6,24.0,49.0,49.0,35.0,55.0,55,1310.0,square4,f,0.2891,3,N,6.0
NS6,25.0,44.0,51.0,36.0,56.0,56,1366.0,square4,f,0.0682,3,N,6.0
NS6,26.0,43.0,46.0,38.0,58.0,58,1424.0,square4,f,0.1752,3,N,6.0
NS6,27.0,41.0,44.0,41.0,59.0,59,1483.0,square4,f,0.3611,3,N,6.0
NS6,28.0,38.0,47.0,39.0,58.0,58,1541.0,square4,f,0.1247,3,N,6.0
NS6,29.0,39.0,46.0,37.0,54.0,54,1595.0,square4,f,0.0065,3,N,6.0
NS6,30.0,36.0,49.0,40.0,53.0,53,1648.0,square4,f,0.1339,3,N,6.0
NS6,31.0,37.0,45.0,36.0,55.0,55,1703.0,square4,f,0.0345,3,N,6.0
NS6,32.0,42.0,42.0,40.0,56.0,42,1745.0,square1,r,0.3257,0,N,6.0
NS6,33.0,33.0,44.0,32.0,53.0,53,1798.0,square4,f,0.202,3,N,6.0
NS6,34.0,32.0,42.0,36.0,49.0,49,1847.0,square4,f,0.2257,3,N,6.0
NS6,35.0,35.0,28.0,38.0,51.0,38,1885.0,square3,j,0.1073,2,N,6.0
NS6,36.0,38.0,28.0,35.0,52.0,28,1913.0,square2,i,0.4031,1,N,6.0
NS6,37.0,44.0,31.0,37.0,55.0,44,1957.0,square1,r,0.2593,0,N,6.0
NS6,38.0,36.0,31.0,36.0,54.0,54,2011.0,square4,f,0.2837,3,N,6.0
NS6,39.0,40.0,29.0,41.0,60.0,60,2071.0,square4,f,0.5341,3,N,6.0
NS6,40.0,46.0,33.0,36.0,62.0,62,2133.0,square4,f,0.069,3,N,6.0
NS6,41.0,44.0,38.0,34.0,63.0,63,2196.0,square4,f,0.0502,3,N,6.0
NS6,42.0,43.0,32.0,29.0,59.0,59,2255.0,square4,f,0.1056,3,N,6.0
NS6,43.0,47.0,29.0,38.0,61.0,61,2316.0,square4,f,0.101,3,N,6.0
NS6,44.0,49.0,33.0,36.0,56.0,56,2372.0,square4,f,0.1506,3,N,6.0
NS6,45.0,51.0,29.0,32.0,60.0,60,2432.0,square4,f,0.0248,3,N,6.0
NS6,46.0,52.0,36.0,41.0,64.0,64,2496.0,square4,f,0.2352,3,N,6.0
NS6,47.0,55.0,35.0,46.0,60.0,60,2556.0,square4,f,0.3356,3,N,6.0
NS6,48.0,57.0,34.0,40.0,64.0,64,2620.0,square4,f,0.3915,3,N,6.0
NS6,49.0,54.0,37.0,42.0,59.0,59,2679.0,square4,f,0.8589,3,N,6.0
NS6,50.0,58.0,40.0,35.0,51.0,51,2730.0,square4,f,0.0009,3,N,6.0
NS6,51.0,64.0,35.0,36.0,53.0,53,2783.0,square4,f,0.1484,3,N,6.0
NS6,52.0,60.0,37.0,30.0,52.0,52,2835.0,square4,f,0.0928,3,N,6.0
NS6,53.0,63.0,40.0,30.0,54.0,54,2889.0,square4,f,0.3352,3,N,6.0
NS6,54.0,60.0,37.0,30.0,53.0,53,2942.0,square4,f,0.1514,3,N,6.0
NS6,55.0,57.0,40.0,29.0,50.0,50,2992.0,square4,f,0.141,3,N,6.0
NS6,56.0,58.0,30.0,30.0,46.0,46,3038.0,square4,f,0.0344,3,N,6.0
NS6,57.0,64.0,34.0,31.0,45.0,64,3102.0,square1,r,0.2586,0,N,6.0
NS6,58.0,66.0,31.0,34.0,48.0,66,3168.0,square1,r,0.6405,0,N,6.0
NS6,59.0,68.0,31.0,35.0,44.0,68,3236.0,square1,r,0.1683,0,N,6.0
NS6,60.0,65.0,28.0,27.0,49.0,65,3301.0,square1,r,0.6338,0,N,6.0
NS6,61.0,67.0,29.0,25.0,47.0,67,3368.0,square1,r,0.4593,0,N,6.0
NS6,62.0,67.0,31.0,27.0,41.0,67,3435.0,square1,r,0.0346,0,N,6.0
NS6,63.0,69.0,32.0,24.0,45.0,69,3504.0,square1,r,0.0697,0,N,6.0
NS6,64.0,72.0,41.0,30.0,50.0,72,3576.0,square1,r,0.7045,0,N,6.0
NS6,65.0,75.0,35.0,33.0,50.0,75,3651.0,square1,r,0.3085,0,N,6.0
NS6,66.0,71.0,37.0,26.0,49.0,71,3722.0,square1,r,0.3687,0,N,6.0
NS6,67.0,74.0,34.0,21.0,49.0,74,3796.0,square1,r,0.3429,0,N,6.0
NS6,68.0,81.0,37.0,27.0,50.0,81,3877.0,square1,r,0.3573,0,N,6.0
NS6,69.0,80.0,31.0,25.0,49.0,80,3957.0,square1,r,0.0009,0,N,6.0
NS6,70.0,83.0,33.0,31.0,46.0,83,4040.0,square1,r,0.3248,0,N,6.0
NS6,71.0,75.0,33.0,34.0,53.0,75,4115.0,square1,r,0.2227,0,N,6.0
NS6,72.0,73.0,39.0,32.0,55.0,73,4188.0,square1,r,0.0765,0,N,6.0
NS6,73.0,74.0,40.0,33.0,53.0,74,4262.0,square1,r,0.4178,0,N,6.0
NS6,74.0,73.0,46.0,32.0,50.0,73,4335.0,square1,r,0.1014,0,N,6.0
NS6,75.0,71.0,40.0,32.0,49.0,40,4375.0,square2,i,0.3417,1,N,6.0
NS6,76.0,65.0,43.0,31.0,56.0,31,4406.0,square3,j,0.1017,2,N,6.0
NS6,77.0,66.0,41.0,33.0,56.0,56,4462.0,square4,f,0.3179,3,N,6.0
NS6,78.0,71.0,40.0,38.0,64.0,71,4533.0,square1,r,0.3051,0,N,6.0
NS6,79.0,69.0,36.0,35.0,62.0,69,4602.0,square1,r,0.1745,0,N,6.0
NS6,80.0,69.0,34.0,37.0,69.0,69,4671.0,square1,r,0.5224,0,N,6.0
NS6,81.0,70.0,37.0,37.0,71.0,70,4741.0,square1,r,0.3917,0,N,6.0
NS6,82.0,68.0,38.0,39.0,66.0,68,4809.0,square1,r,0.4668,0,N,6.0
NS6,83.0,69.0,42.0,41.0,73.0,69,4878.0,square1,r,0.6187,0,N,6.0
NS6,84.0,62.0,42.0,42.0,70.0,62,4940.0,square1,r,1.8506,0,N,6.0
NS6,85.0,57.0,45.0,42.0,77.0,57,4997.0,square1,r,0.694,0,N,6.0
NS6,86.0,58.0,47.0,44.0,70.0,58,5055.0,square1,r,0.4347,0,N,6.0
NS6,87.0,62.0,44.0,52.0,73.0,44,5099.0,square2,i,1.084,1,N,6.0
NS6,88.0,62.0,45.0,47.0,72.0,47,5146.0,square3,j,1.119,2,N,6.0
NS6,89.0,59.0,50.0,47.0,73.0,73,5219.0,square4,f,0.2357,3,N,6.0
NS6,90.0,55.0,45.0,44.0,68.0,68,5287.0,square4,f,0.3077,3,N,6.0
NS6,91.0,55.0,51.0,47.0,67.0,67,5354.0,square4,f,0.1911,3,N,6.0
NS6,92.0,62.0,52.0,35.0,69.0,69,5423.0,square4,f,0.2502,3,N,6.0
NS6,93.0,59.0,47.0,32.0,68.0,68,5491.0,square4,f,0.1183,3,N,6.0
NS6,94.0,67.0,53.0,44.0,66.0,66,5557.0,square4,f,0.6746,3,N,6.0
NS6,95.0,71.0,44.0,47.0,66.0,66,5623.0,square4,f,0.2405,3,N,6.0
NS6,96.0,68.0,53.0,47.0,66.0,66,5689.0,square4,f,0.8353,3,N,6.0
NS6,97.0,65.0,49.0,44.0,64.0,64,5753.0,square4,f,0.5511,3,N,6.0
NS6,98.0,66.0,54.0,55.0,57.0,57,5810.0,square4,f,0.375,3,N,6.0
NS6,99.0,69.0,57.0,51.0,56.0,56,5866.0,square4,f,1.9168,3,N,6.0
V6,0.0,43.0,59.0,68.0,49.0,43,43.0,square1,i,0.8708,0,V,6.0
V6,1.0,43.0,62.0,71.0,50.0,62,105.0,square2,j,0.0749,1,V,6.0
V6,2.0,48.0,61.0,72.0,51.0,61,166.0,square2,j,0.1181,1,V,6.0
V6,3.0,46.0,55.0,71.0,51.0,55,221.0,square2,j,0.118,1,V,6.0
V6,4.0,44.0,61.0,74.0,48.0,74,295.0,square3,f,0.3242,2,V,6.0
V6,5.0,45.0,62.0,70.0,51.0,70,365.0,square3,f,0.0235,2,V,6.0
V6,6.0,42.0,67.0,73.0,46.0,73,438.0,square3,f,0.0512,2,V,6.0
V6,7.0,44.0,63.0,71.0,53.0,71,509.0,square3,f,0.2165,2,V,6.0
V6,8.0,41.0,62.0,73.0,52.0,73,582.0,square3,f,0.0265,2,V,6.0
V6,9.0,46.0,59.0,72.0,54.0,72,654.0,square3,f,0.1687,2,V,6.0
V6,10.0,45.0,59.0,70.0,53.0,70,724.0,square3,f,0.0501,2,V,6.0
V6,11.0,45.0,60.0,70.0,49.0,70,794.0,square3,f,0.0695,2,V,6.0
V6,12.0,45.0,66.0,64.0,48.0,64,858.0,square3,f,0.0847,2,V,6.0
V6,13.0,45.0,61.0,69.0,47.0,69,927.0,square3,f,0.0934,2,V,6.0
V6,14.0,47.0,60.0,71.0,56.0,71,998.0,square3,f,0.257,2,V,6.0
V6,15.0,46.0,64.0,67.0,52.0,67,1065.0,square3,f,0.1415,2,V,6.0
V6,16.0,50.0,60.0,69.0,54.0,54,1119.0,square4,r,0.0955,3,V,6.0
V6,17.0,43.0,60.0,70.0,53.0,43,1162.0,square1,i,0.3405,0,V,6.0
V6,18.0,46.0,63.0,72.0,55.0,63,1225.0,square2,j,0.1521,1,V,6.0
V6,19.0,46.0,65.0,73.0,51.0,73,1298.0,square3,f,0.2592,2,V,6.0
V6,20.0,44.0,63.0,66.0,51.0,66,1364.0,square3,f,0.0837,2,V,6.0
V6,21.0,43.0,63.0,70.0,49.0,63,1427.0,square2,j,0.292,1,V,6.0
V6,22.0,45.0,63.0,71.0,50.0,71,1498.0,square3,f,0.1225,2,V,6.0
V6,23.0,45.0,38.0,28.0,60.0,28,1526.0,square3,f,0.0731,2,V,6.0
V6,24.0,46.0,33.0,33.0,53.0,33,1559.0,square2,j,0.075,1,V,6.0
V6,25.0,45.0,36.0,32.0,63.0,63,1622.0,square4,r,0.2393,3,V,6.0
V6,26.0,52.0,37.0,28.0,57.0,57,1679.0,square4,r,0.0362,3,V,6.0
V6,27.0,45.0,33.0,30.0,62.0,45,1724.0,square1,i,0.1528,0,V,6.0
V6,28.0,43.0,37.0,24.0,51.0,51,1775.0,square4,r,0.2831,3,V,6.0
V6,29.0,48.0,39.0,34.0,61.0,48,1823.0,square1,i,0.0592,0,V,6.0
V6,30.0,48.0,44.0,35.0,59.0,44,1867.0,square2,j,0.0692,1,V,6.0
V6,31.0,50.0,39.0,34.0,53.0,34,1901.0,square3,f,0.3163,2,V,6.0
V6,32.0,44.0,33.0,33.0,54.0,54,1955.0,square4,r,0.2499,3,V,6.0
V6,33.0,48.0,37.0,30.0,56.0,56,2011.0,square4,r,0.2758,3,V,6.0
V6,34.0,52.0,37.0,27.0,59.0,59,2070.0,square4,r,0.0395,3,V,6.0
V6,35.0,47.0,32.0,29.0,59.0,59,2129.0,square4,r,0.3006,3,V,6.0
V6,36.0,45.0,37.0,27.0,56.0,56,2185.0,square4,r,0.6333,3,V,6.0
V6,37.0,39.0,37.0,31.0,57.0,57,2242.0,square4,r,0.2346,3,V,6.0
V6,38.0,50.0,38.0,29.0,56.0,56,2298.0,square4,r,0.1341,3,V,6.0
V6,39.0,48.0,37.0,27.0,57.0,57,2355.0,square4,r,0.0606,3,V,6.0
V6,40.0,53.0,37.0,29.0,57.0,57,2412.0,square4,r,0.0527,3,V,6.0
V6,41.0,41.0,34.0,33.0,58.0,58,2470.0,square4,r,0.0364,3,V,6.0
V6,42.0,50.0,37.0,31.0,57.0,57,2527.0,square4,r,0.0915,3,V,6.0
V6,43.0,48.0,34.0,30.0,58.0,58,2585.0,square4,r,0.7171,3,V,6.0
V6,44.0,44.0,37.0,33.0,60.0,60,2645.0,square4,r,0.0339,3,V,6.0
V6,45.0,44.0,32.0,33.0,55.0,55,2700.0,square4,r,0.0231,3,V,6.0
V6,46.0,44.0,36.0,33.0,59.0,59,2759.0,square4,r,0.2667,3,V,6.0
V6,47.0,42.0,34.0,29.0,52.0,52,2811.0,square4,r,0.2657,3,V,6.0
V6,48.0,46.0,41.0,28.0,60.0,60,2871.0,square4,r,0.0336,3,V,6.0
V6,49.0,46.0,40.0,27.0,55.0,55,2926.0,square4,r,0.5354,3,V,6.0
V6,50.0,46.0,41.0,32.0,55.0,55,2981.0,square4,r,0.1422,3,V,6.0
V6,51.0,41.0,39.0,30.0,55.0,55,3036.0,square4,r,0.1895,3,V,6.0
V6,52.0,47.0,37.0,31.0,55.0,55,3091.0,square4,r,0.0601,3,V,6.0
V6,53.0,57.0,36.0,30.0,58.0,58,3149.0,square4,r,0.1013,3,V,6.0
V6,54.0,42.0,38.0,28.0,50.0,50,3199.0,square4,r,0.1225,3,V,6.0
V6,55.0,56.0,42.0,67.0,46.0,56,3255.0,square1,i,0.1409,0,V,6.0
V6,56.0,54.0,37.0,68.0,46.0,54,3309.0,square1,i,0.1837,0,V,6.0
V6,57.0,57.0,40.0,64.0,52.0,57,3366.0,square1,i,0.2846,0,V,6.0
V6,58.0,53.0,45.0,68.0,45.0,53,3419.0,square1,i,0.1352,0,V,6.0
V6,59.0,59.0,41.0,69.0,49.0,41,3460.0,square2,j,0.1168,1,V,6.0
V6,60.0,62.0,41.0,71.0,51.0,41,3501.0,square2,j,0.1832,1,V,6.0
V6,61.0,58.0,50.0,72.0,51.0,72,3573.0,square3,f,0.135,2,V,6.0
V6,62.0,61.0,43.0,65.0,47.0,65,3638.0,square3,f,0.076,2,V,6.0
V6,63.0,55.0,40.0,67.0,51.0,67,3705.0,square3,f,0.6011,2,V,6.0
V6,64.0,56.0,43.0,67.0,47.0,67,3772.0,square3,f,0.0431,2,V,6.0
V6,65.0,62.0,46.0,67.0,48.0,67,3839.0,square3,f,0.2725,2,V,6.0
V6,66.0,55.0,44.0,67.0,48.0,67,3906.0,square3,f,0.0145,2,V,6.0
V6,67.0,61.0,46.0,70.0,49.0,70,3976.0,square3,f,0.6174,2,V,6.0
V6,68.0,63.0,41.0,72.0,46.0,72,4048.0,square3,f,0.2761,2,V,6.0
V6,69.0,59.0,41.0,68.0,48.0,68,4116.0,square3,f,0.3254,2,V,6.0
V6,70.0,59.0,37.0,70.0,45.0,70,4186.0,square3,f,0.24,2,V,6.0
V6,71.0,83.0,64.0,56.0,70.0,56,4242.0,square3,f,0.2916,2,V,6.0
V6,72.0,82.0,59.0,53.0,75.0,75,4317.0,square4,r,0.0403,3,V,6.0
V6,73.0,85.0,67.0,58.0,73.0,73,4390.0,square4,r,0.5883,3,V,6.0
V6,74.0,79.0,67.0,61.0,73.0,73,4463.0,square4,r,0.0424,3,V,6.0
V6,75.0,84.0,62.0,53.0,69.0,69,4532.0,square4,r,0.2508,3,V,6.0
V6,76.0,81.0,60.0,55.0,76.0,76,4608.0,square4,r,0.0009,3,V,6.0
V6,77.0,84.0,61.0,60.0,72.0,72,4680.0,square4,r,0.5014,3,V,6.0
V6,78.0,90.0,61.0,54.0,74.0,74,4754.0,square4,r,0.0008,3,V,6.0
V6,79.0,80.0,64.0,51.0,75.0,75,4829.0,square4,r,0.2258,3,V,6.0
V6,80.0,85.0,62.0,56.0,78.0,78,4907.0,square4,r,0.2503,3,V,6.0
V6,81.0,86.0,65.0,58.0,69.0,69,4976.0,square4,r,0.6081,3,V,6.0
V6,82.0,83.0,62.0,58.0,77.0,77,5053.0,square4,r,0.2072,3,V,6.0
V6,83.0,87.0,61.0,59.0,70.0,70,5123.0,square4,r,0.2352,3,V,6.0
V6,84.0,89.0,65.0,54.0,78.0,78,5201.0,square4,r,0.5427,3,V,6.0
V6,85.0,78.0,63.0,55.0,75.0,55,5256.0,square3,f,0.3675,2,V,6.0
V6,86.0,87.0,67.0,52.0,75.0,75,5331.0,square4,r,0.1253,3,V,6.0
V6,87.0,86.0,62.0,60.0,75.0,75,5406.0,square4,r,0.3021,3,V,6.0
V6,88.0,79.0,67.0,56.0,76.0,76,5482.0,square4,r,0.2592,3,V,6.0
V6,89.0,83.0,61.0,57.0,75.0,75,5557.0,square4,r,0.1225,3,V,6.0
V6,90.0,83.0,67.0,51.0,76.0,76,5633.0,square4,r,0.2001,3,V,6.0
V6,91.0,83.0,63.0,55.0,69.0,69,5702.0,square4,r,0.2743,3,V,6.0
V6,92.0,89.0,56.0,53.0,68.0,68,5770.0,square4,r,0.0733,3,V,6.0
V6,93.0,84.0,61.0,59.0,74.0,74,5844.0,square4,r,0.2702,3,V,6.0
V6,94.0,77.0,58.0,58.0,76.0,76,5920.0,square4,r,0.0414,3,V,6.0
V6,95.0,82.0,60.0,53.0,74.0,74,5994.0,square4,r,0.4515,3,V,6.0
V6,96.0,87.0,61.0,56.0,71.0,71,6065.0,square4,r,0.3341,3,V,6.0
V6,97.0,83.0,66.0,55.0,75.0,75,6140.0,square4,r,0.0571,3,V,6.0
V6,98.0,81.0,63.0,55.0,76.0,76,6216.0,square4,r,0.3505,3,V,6.0
V6,99.0,92.0,63.0,61.0,78.0,78,6294.0,square4,r,0.1247,3,V,6.0
V3,0.0,62.0,45.0,70.0,53.0,62,62.0,square1,r,0.9869,0,V,3.0
V3,1.0,63.0,47.0,76.0,60.0,63,125.0,square1,r,0.0009,0,V,3.0
V3,2.0,65.0,54.0,73.0,57.0,73,198.0,square3,i,0.0564,2,V,3.0
V3,3.0,68.0,51.0,71.0,51.0,71,269.0,square3,i,0.1013,2,V,3.0
V3,4.0,61.0,49.0,75.0,53.0,53,322.0,square4,j,0.683,3,V,3.0
V3,5.0,65.0,47.0,74.0,50.0,47,369.0,square2,f,0.11,1,V,3.0
V3,6.0,61.0,51.0,72.0,57.0,72,441.0,square3,i,0.1577,2,V,3.0
V3,7.0,67.0,49.0,75.0,55.0,75,516.0,square3,i,0.3215,2,V,3.0
V3,8.0,64.0,48.0,76.0,56.0,76,592.0,square3,i,0.2753,2,V,3.0
V3,9.0,67.0,49.0,71.0,56.0,71,663.0,square3,i,0.0694,2,V,3.0
V3,10.0,65.0,50.0,71.0,56.0,71,734.0,square3,i,0.7039,2,V,3.0
V3,11.0,63.0,43.0,78.0,58.0,78,812.0,square3,i,0.2357,2,V,3.0
V3,12.0,66.0,53.0,73.0,54.0,73,885.0,square3,i,0.15,2,V,3.0
V3,13.0,64.0,46.0,78.0,51.0,78,963.0,square3,i,0.2075,2,V,3.0
V3,14.0,67.0,51.0,71.0,58.0,71,1034.0,square3,i,0.1537,2,V,3.0
V3,15.0,61.0,50.0,73.0,54.0,73,1107.0,square3,i,0.3576,2,V,3.0
V3,16.0,64.0,52.0,74.0,54.0,74,1181.0,square3,i,0.0399,2,V,3.0
V3,17.0,61.0,48.0,74.0,55.0,74,1255.0,square3,i,0.2411,2,V,3.0
V3,18.0,65.0,50.0,70.0,59.0,70,1325.0,square3,i,0.0684,2,V,3.0
V3,19.0,64.0,52.0,76.0,56.0,76,1401.0,square3,i,0.2681,2,V,3.0
V3,20.0,64.0,50.0,69.0,58.0,69,1470.0,square3,i,0.2682,2,V,3.0
V3,21.0,66.0,50.0,72.0,56.0,72,1542.0,square3,i,0.2671,2,V,3.0
V3,22.0,43.0,48.0,40.0,62.0,40,1582.0,square3,i,0.5008,2,V,3.0
V3,23.0,41.0,51.0,35.0,59.0,41,1623.0,square1,r,0.4907,0,V,3.0
V3,24.0,51.0,51.0,37.0,60.0,51,1674.0,square2,f,0.1896,1,V,3.0
V3,25.0,45.0,53.0,36.0,57.0,57,1731.0,square4,j,0.1404,3,V,3.0
V3,26.0,44.0,51.0,38.0,59.0,59,1790.0,square4,j,0.2077,3,V,3.0
V3,27.0,43.0,51.0,34.0,66.0,66,1856.0,square4,j,0.3571,3,V,3.0
V3,28.0,47.0,51.0,40.0,67.0,67,1923.0,square4,j,0.3513,3,V,3.0
V3,29.0,42.0,55.0,35.0,65.0,65,1988.0,square4,j,0.2059,3,V,3.0
V3,30.0,49.0,54.0,36.0,62.0,62,2050.0,square4,j,0.2242,3,V,3.0
V3,31.0,50.0,53.0,42.0,66.0,66,2116.0,square4,j,0.1197,3,V,3.0
V3,32.0,47.0,53.0,34.0,58.0,58,2174.0,square4,j,0.1269,3,V,3.0
V3,33.0,45.0,56.0,34.0,62.0,62,2236.0,square4,j,0.6313,3,V,3.0
V3,34.0,48.0,54.0,38.0,64.0,64,2300.0,square4,j,0.2385,3,V,3.0
V3,35.0,39.0,55.0,42.0,65.0,65,2365.0,square4,j,0.0742,3,V,3.0
V3,36.0,46.0,57.0,41.0,63.0,63,2428.0,square4,j,0.0858,3,V,3.0
V3,37.0,43.0,54.0,41.0,65.0,65,2493.0,square4,j,0.0999,3,V,3.0
V3,38.0,47.0,52.0,37.0,63.0,63,2556.0,square4,j,0.2439,3,V,3.0
V3,39.0,47.0,53.0,38.0,55.0,55,2611.0,square4,j,0.3609,3,V,3.0
V3,40.0,41.0,54.0,39.0,64.0,54,2665.0,square2,f,0.102,1,V,3.0
V3,41.0,48.0,52.0,38.0,64.0,64,2729.0,square4,j,0.2888,3,V,3.0
V3,42.0,45.0,50.0,34.0,63.0,63,2792.0,square4,j,0.185,3,V,3.0
V3,43.0,44.0,50.0,34.0,62.0,62,2854.0,square4,j,0.2588,3,V,3.0
V3,44.0,47.0,55.0,39.0,65.0,65,2919.0,square4,j,0.151,3,V,3.0
V3,45.0,45.0,55.0,31.0,63.0,63,2982.0,square4,j,0.1353,3,V,3.0
V3,46.0,42.0,52.0,38.0,64.0,64,3046.0,square4,j,0.0008,3,V,3.0
V3,47.0,44.0,53.0,37.0,55.0,55,3101.0,square4,j,0.0264,3,V,3.0
V3,48.0,44.0,49.0,37.0,58.0,49,3150.0,square2,f,0.052,1,V,3.0
V3,49.0,48.0,58.0,35.0,54.0,48,3198.0,square1,r,0.1255,0,V,3.0
V3,50.0,42.0,28.0,30.0,52.0,30,3228.0,square3,i,0.1185,2,V,3.0
V3,51.0,46.0,29.0,32.0,51.0,51,3279.0,square4,j,0.2168,3,V,3.0
V3,52.0,37.0,20.0,36.0,50.0,50,3329.0,square4,j,0.1244,3,V,3.0
V3,53.0,44.0,22.0,34.0,55.0,55,3384.0,square4,j,0.2517,3,V,3.0
V3,54.0,37.0,27.0,26.0,50.0,50,3434.0,square4,j,0.2491,3,V,3.0
V3,55.0,41.0,21.0,39.0,53.0,53,3487.0,square4,j,0.2008,3,V,3.0
V3,56.0,40.0,20.0,38.0,51.0,51,3538.0,square4,j,0.2178,3,V,3.0
V3,57.0,44.0,28.0,31.0,57.0,57,3595.0,square4,j,0.2683,3,V,3.0
V3,58.0,46.0,20.0,28.0,49.0,49,3644.0,square4,j,0.2347,3,V,3.0
V3,59.0,44.0,24.0,30.0,55.0,55,3699.0,square4,j,0.3926,3,V,3.0
V3,60.0,42.0,29.0,29.0,51.0,29,3728.0,square2,f,0.2753,1,V,3.0
V3,61.0,41.0,21.0,30.0,46.0,41,3769.0,square1,r,0.102,0,V,3.0
V3,62.0,41.0,27.0,31.0,49.0,49,3818.0,square4,j,0.2523,3,V,3.0
V3,63.0,42.0,27.0,34.0,51.0,51,3869.0,square4,j,0.2261,3,V,3.0
V3,64.0,41.0,24.0,30.0,47.0,47,3916.0,square4,j,0.3003,3,V,3.0
V3,65.0,36.0,18.0,34.0,48.0,34,3950.0,square3,i,0.1347,2,V,3.0
V3,66.0,39.0,28.0,35.0,45.0,45,3995.0,square4,j,0.5581,3,V,3.0
V3,67.0,42.0,21.0,32.0,46.0,42,4037.0,square1,r,0.2842,0,V,3.0
V3,68.0,40.0,24.0,35.0,53.0,24,4061.0,square2,f,0.6585,1,V,3.0
V3,69.0,48.0,23.0,34.0,50.0,48,4109.0,square1,r,0.0255,0,V,3.0
V3,70.0,40.0,27.0,31.0,49.0,49,4158.0,square4,j,0.0734,3,V,3.0
V3,71.0,41.0,23.0,28.0,51.0,51,4209.0,square4,j,0.2351,3,V,3.0
V3,72.0,42.0,25.0,33.0,55.0,55,4264.0,square4,j,0.2508,3,V,3.0
V3,73.0,41.0,24.0,35.0,55.0,55,4319.0,square4,j,0.2062,3,V,3.0
V3,74.0,38.0,26.0,28.0,53.0,53,4372.0,square4,j,0.2227,3,V,3.0
V3,75.0,54.0,39.0,69.0,50.0,50,4422.0,square4,j,0.2352,3,V,3.0
V3,76.0,55.0,42.0,64.0,53.0,64,4486.0,square3,i,0.2234,2,V,3.0
V3,77.0,59.0,37.0,66.0,44.0,66,4552.0,square3,i,0.4602,2,V,3.0
V3,78.0,58.0,38.0,60.0,46.0,60,4612.0,square3,i,0.2734,2,V,3.0
V3,79.0,54.0,35.0,66.0,49.0,66,4678.0,square3,i,0.1733,2,V,3.0
V3,80.0,60.0,36.0,68.0,44.0,68,4746.0,square3,i,0.2506,2,V,3.0
V3,81.0,55.0,38.0,66.0,51.0,66,4812.0,square3,i,0.2844,2,V,3.0
V3,82.0,57.0,47.0,64.0,50.0,64,4876.0,square3,i,0.8012,2,V,3.0
V3,83.0,57.0,37.0,63.0,45.0,63,4939.0,square3,i,0.1109,2,V,3.0
V3,84.0,54.0,40.0,65.0,53.0,65,5004.0,square3,i,0.2754,2,V,3.0
V3,85.0,58.0,41.0,63.0,48.0,63,5067.0,square3,i,0.6066,2,V,3.0
V3,86.0,53.0,38.0,57.0,49.0,57,5124.0,square3,i,0.5685,2,V,3.0
V3,87.0,49.0,42.0,60.0,43.0,60,5184.0,square3,i,0.3737,2,V,3.0
V3,88.0,56.0,35.0,70.0,46.0,70,5254.0,square3,i,0.4168,2,V,3.0
V3,89.0,58.0,39.0,63.0,52.0,63,5317.0,square3,i,0.5829,2,V,3.0
V3,90.0,59.0,43.0,63.0,45.0,63,5380.0,square3,i,0.7236,2,V,3.0
V3,91.0,54.0,37.0,69.0,49.0,69,5449.0,square3,i,0.6174,2,V,3.0
V3,92.0,56.0,41.0,61.0,47.0,61,5510.0,square3,i,0.551,2,V,3.0
V3,93.0,58.0,35.0,68.0,47.0,68,5578.0,square3,i,0.3345,2,V,3.0
V3,94.0,61.0,37.0,67.0,51.0,67,5645.0,square3,i,0.5427,2,V,3.0
V3,95.0,57.0,32.0,64.0,47.0,64,5709.0,square3,i,0.0071,2,V,3.0
V3,96.0,53.0,38.0,63.0,48.0,63,5772.0,square3,i,0.6255,2,V,3.0
V3,97.0,57.0,44.0,71.0,50.0,71,5843.0,square3,i,0.693,2,V,3.0
V3,98.0,56.0,39.0,70.0,47.0,70,5913.0,square3,i,0.0748,2,V,3.0
V3,99.0,62.0,40.0,67.0,49.0,67,5980.0,square3,i,0.2179,2,V,3.0
V12,0.0,47.0,30.0,38.0,55.0,30,30.0,square2,i,0.5166,1,V,12.0
V12,1.0,46.0,33.0,39.0,57.0,46,76.0,square1,j,0.2665,0,V,12.0
V12,2.0,51.0,29.0,42.0,52.0,52,128.0,square4,f,0.1844,3,V,12.0
V12,3.0,52.0,30.0,38.0,62.0,38,166.0,square3,r,0.2055,2,V,12.0
V12,4.0,48.0,30.0,39.0,62.0,62,228.0,square4,f,0.2666,3,V,12.0
V12,5.0,55.0,34.0,43.0,61.0,61,289.0,square4,f,0.1684,3,V,12.0
V12,6.0,45.0,35.0,42.0,56.0,56,345.0,square4,f,0.1011,3,V,12.0
V12,7.0,48.0,29.0,35.0,57.0,57,402.0,square4,f,0.2332,3,V,12.0
V12,8.0,46.0,33.0,38.0,59.0,59,461.0,square4,f,0.0009,3,V,12.0
V12,9.0,44.0,31.0,42.0,56.0,56,517.0,square4,f,0.7922,3,V,12.0
V12,10.0,48.0,34.0,45.0,55.0,55,572.0,square4,f,0.5056,3,V,12.0
V12,11.0,45.0,32.0,41.0,55.0,45,617.0,square1,j,0.1257,0,V,12.0
V12,12.0,52.0,26.0,42.0,57.0,26,643.0,square2,i,0.2083,1,V,12.0
V12,13.0,56.0,31.0,41.0,54.0,41,684.0,square3,r,0.0064,2,V,12.0
V12,14.0,44.0,34.0,40.0,64.0,64,748.0,square4,f,0.2002,3,V,12.0
V12,15.0,48.0,32.0,39.0,61.0,61,809.0,square4,f,0.2409,3,V,12.0
V12,16.0,49.0,33.0,37.0,58.0,58,867.0,square4,f,0.1683,3,V,12.0
V12,17.0,45.0,33.0,43.0,57.0,57,924.0,square4,f,0.6593,3,V,12.0
V12,18.0,45.0,28.0,40.0,58.0,58,982.0,square4,f,1.815,3,V,12.0
V12,19.0,42.0,33.0,43.0,59.0,59,1041.0,square4,f,0.368,3,V,12.0
V12,20.0,46.0,30.0,38.0,62.0,62,1103.0,square4,f,0.3337,3,V,12.0
V12,21.0,46.0,35.0,40.0,55.0,55,1158.0,square4,f,0.3084,3,V,12.0
V12,22.0,46.0,34.0,36.0,63.0,63,1221.0,square4,f,0.2684,3,V,12.0
V12,23.0,54.0,34.0,42.0,56.0,56,1277.0,square4,f,0.0395,3,V,12.0
V12,24.0,44.0,30.0,41.0,59.0,59,1336.0,square4,f,0.391,3,V,12.0
V12,25.0,49.0,33.0,37.0,64.0,64,1400.0,square4,f,0.2893,3,V,12.0
V12,26.0,52.0,34.0,39.0,57.0,57,1457.0,square4,f,0.0009,3,V,12.0
V12,27.0,50.0,26.0,37.0,55.0,55,1512.0,square4,f,0.2077,3,V,12.0
V12,28.0,41.0,29.0,46.0,21.0,46,1558.0,square3,r,0.0158,2,V,12.0
V12,29.0,41.0,28.0,51.0,20.0,28,1586.0,square2,i,0.242,1,V,12.0
V12,30.0,32.0,31.0,46.0,22.0,32,1618.0,square1,j,0.0405,0,V,12.0
V12,31.0,38.0,28.0,45.0,22.0,22,1640.0,square4,f,0.2667,3,V,12.0
V12,32.0,35.0,27.0,44.0,16.0,44,1684.0,square3,r,0.2755,2,V,12.0
V12,33.0,39.0,29.0,49.0,21.0,49,1733.0,square3,r,0.4339,2,V,12.0
V12,34.0,39.0,28.0,49.0,15.0,49,1782.0,square3,r,0.1509,2,V,12.0
V12,35.0,36.0,29.0,50.0,17.0,29,1811.0,square2,i,0.2015,1,V,12.0
V12,36.0,41.0,28.0,48.0,12.0,41,1852.0,square1,j,0.0253,0,V,12.0
V12,37.0,34.0,29.0,46.0,25.0,25,1877.0,square4,f,0.5929,3,V,12.0
V12,38.0,38.0,28.0,51.0,19.0,51,1928.0,square3,r,0.1578,2,V,12.0
V12,39.0,39.0,31.0,45.0,13.0,45,1973.0,square3,r,0.2749,2,V,12.0
V12,40.0,35.0,28.0,46.0,26.0,46,2019.0,square3,r,0.1918,2,V,12.0
V12,41.0,38.0,27.0,46.0,20.0,46,2065.0,square3,r,0.3842,2,V,12.0
V12,42.0,40.0,26.0,50.0,23.0,50,2115.0,square3,r,0.2832,2,V,12.0
V12,43.0,33.0,30.0,45.0,18.0,45,2160.0,square3,r,0.2081,2,V,12.0
V12,44.0,39.0,31.0,46.0,22.0,46,2206.0,square3,r,0.2916,2,V,12.0
V12,45.0,32.0,26.0,42.0,20.0,42,2248.0,square3,r,0.1678,2,V,12.0
V12,46.0,36.0,29.0,43.0,24.0,43,2291.0,square3,r,0.2008,2,V,12.0
V12,47.0,37.0,30.0,46.0,21.0,46,2337.0,square3,r,0.1668,2,V,12.0
V12,48.0,37.0,27.0,44.0,19.0,44,2381.0,square3,r,0.342,2,V,12.0
V12,49.0,36.0,33.0,55.0,16.0,33,2414.0,square2,i,0.4724,1,V,12.0
V12,50.0,45.0,28.0,44.0,18.0,45,2459.0,square1,j,0.1335,0,V,12.0
V12,51.0,35.0,32.0,49.0,19.0,35,2494.0,square1,j,0.2914,0,V,12.0
V12,52.0,36.0,56.0,31.0,52.0,52,2546.0,square4,f,0.0835,3,V,12.0
V12,53.0,36.0,57.0,29.0,45.0,45,2591.0,square4,f,0.2501,3,V,12.0
V12,54.0,38.0,61.0,28.0,51.0,51,2642.0,square4,f,0.5557,3,V,12.0
V12,55.0,35.0,60.0,29.0,47.0,47,2689.0,square4,f,0.3413,3,V,12.0
V12,56.0,34.0,62.0,29.0,46.0,29,2718.0,square3,r,0.3561,2,V,12.0
V12,57.0,43.0,57.0,32.0,46.0,57,2775.0,square2,i,0.301,1,V,12.0
V12,58.0,40.0,59.0,32.0,50.0,59,2834.0,square2,i,0.5018,1,V,12.0
V12,59.0,41.0,62.0,33.0,48.0,62,2896.0,square2,i,0.3993,1,V,12.0
V12,60.0,36.0,61.0,32.0,49.0,61,2957.0,square2,i,0.2749,1,V,12.0
V12,61.0,39.0,56.0,32.0,44.0,56,3013.0,square2,i,0.3153,1,V,12.0
V12,62.0,39.0,57.0,30.0,46.0,57,3070.0,square2,i,0.2571,1,V,12.0
V12,63.0,42.0,53.0,29.0,46.0,53,3123.0,square2,i,0.2851,1,V,12.0
V12,64.0,35.0,57.0,32.0,50.0,57,3180.0,square2,i,0.2422,1,V,12.0
V12,65.0,44.0,58.0,32.0,49.0,58,3238.0,square2,i,0.2909,1,V,12.0
V12,66.0,44.0,56.0,29.0,52.0,56,3294.0,square2,i,0.2557,1,V,12.0
V12,67.0,41.0,60.0,30.0,49.0,60,3354.0,square2,i,0.5247,1,V,12.0
V12,68.0,42.0,58.0,32.0,45.0,58,3412.0,square2,i,0.2016,1,V,12.0
V12,69.0,36.0,60.0,33.0,50.0,60,3472.0,square2,i,0.2738,1,V,12.0
V12,70.0,36.0,57.0,27.0,46.0,57,3529.0,square2,i,0.2907,1,V,12.0
V12,71.0,41.0,59.0,32.0,48.0,59,3588.0,square2,i,0.5412,1,V,12.0
V12,72.0,34.0,59.0,31.0,49.0,59,3647.0,square2,i,0.2583,1,V,12.0
V12,73.0,71.0,53.0,65.0,49.0,53,3700.0,square2,i,0.6321,1,V,12.0
V12,74.0,69.0,49.0,63.0,45.0,69,3769.0,square1,j,0.284,0,V,12.0
V12,75.0,72.0,51.0,56.0,46.0,72,3841.0,square1,j,0.2998,0,V,12.0
V12,76.0,72.0,48.0,58.0,43.0,72,3913.0,square1,j,0.2182,0,V,12.0
V12,77.0,74.0,57.0,59.0,44.0,74,3987.0,square1,j,0.1911,0,V,12.0
V12,78.0,69.0,55.0,63.0,50.0,69,4056.0,square1,j,0.0921,0,V,12.0
V12,79.0,73.0,53.0,58.0,43.0,73,4129.0,square1,j,0.0008,0,V,12.0
V12,80.0,71.0,47.0,65.0,40.0,71,4200.0,square1,j,0.1015,0,V,12.0
V12,81.0,66.0,49.0,57.0,40.0,66,4266.0,square1,j,0.3172,0,V,12.0
V12,82.0,71.0,53.0,57.0,48.0,71,4337.0,square1,j,0.0358,0,V,12.0
V12,83.0,70.0,50.0,56.0,49.0,70,4407.0,square1,j,0.0348,0,V,12.0
V12,84.0,69.0,45.0,64.0,43.0,69,4476.0,square1,j,0.0837,0,V,12.0
V12,85.0,64.0,48.0,54.0,42.0,64,4540.0,square1,j,0.1506,0,V,12.0
V12,86.0,71.0,49.0,63.0,44.0,71,4611.0,square1,j,0.2018,0,V,12.0
V12,87.0,72.0,52.0,55.0,42.0,72,4683.0,square1,j,0.3833,0,V,12.0
V12,88.0,64.0,48.0,59.0,44.0,64,4747.0,square1,j,0.1095,0,V,12.0
V12,89.0,69.0,48.0,62.0,45.0,69,4816.0,square1,j,0.1091,0,V,12.0
V12,90.0,68.0,56.0,60.0,42.0,68,4884.0,square1,j,0.3348,0,V,12.0
V12,91.0,69.0,52.0,62.0,45.0,69,4953.0,square1,j,0.0913,0,V,12.0
V12,92.0,65.0,50.0,64.0,47.0,65,5018.0,square1,j,0.2016,0,V,12.0
V12,93.0,68.0,51.0,62.0,43.0,68,5086.0,square1,j,0.1347,0,V,12.0
V12,94.0,68.0,52.0,60.0,38.0,68,5154.0,square1,j,1.2175,0,V,12.0
V12,95.0,71.0,52.0,58.0,47.0,71,5225.0,square1,j,0.2069,0,V,12.0
V12,96.0,66.0,49.0,59.0,44.0,66,5291.0,square1,j,0.3254,0,V,12.0
V12,97.0,74.0,47.0,54.0,47.0,74,5365.0,square1,j,0.391,0,V,12.0
V12,98.0,68.0,43.0,64.0,41.0,68,5433.0,square1,j,0.2244,0,V,12.0
V12,99.0,71.0,53.0,62.0,44.0,71,5504.0,square1,j,0.2908,0,V,12.0
