block,Trial,square1,square2,square3,square4,currPoints,totalPoints,square,choiceKey.keys,choiceKey.rt,armNum,blockType,blockNum
prac,0.0,100.0,0.0,0.0,0.0,0.0,0.0,square3,,,2,p,0.0
prac,1.0,100.0,0.0,0.0,0.0,0.0,0.0,square4,,,3,p,0.0
prac,2.0,100.0,0.0,0.0,0.0,0.0,0.0,square2,,,1,p,0.0
prac,3.0,100.0,0.0,0.0,0.0,100.0,100.0,square1,,,0,p,0.0
prac,4.0,100.0,0.0,0.0,0.0,100.0,200.0,square1,,,0,p,0.0
prac,5.0,100.0,0.0,0.0,0.0,100.0,300.0,square1,,,0,p,0.0
prac,6.0,100.0,0.0,0.0,0.0,100.0,400.0,square1,,,0,p,0.0
prac,7.0,100.0,0.0,0.0,0.0,0.0,400.0,square4,,,3,p,0.0
prac,8.0,100.0,0.0,0.0,0.0,0.0,400.0,square2,,,1,p,0.0
prac,9.0,100.0,0.0,0.0,0.0,100.0,500.0,square1,,,0,p,0.0
V6,0.0,43.0,59.0,68.0,49.0,43.0,43.0,square1,r,0.5627,0,V,6.0
V6,1.0,43.0,62.0,71.0,50.0,62.0,105.0,square2,f,0.3923,1,V,6.0
V6,2.0,48.0,61.0,72.0,51.0,72.0,177.0,square3,j,0.0007,2,V,6.0
V6,3.0,46.0,55.0,71.0,51.0,51.0,228.0,square4,i,0.3431,3,V,6.0
V6,4.0,44.0,61.0,74.0,48.0,74.0,302.0,square3,j,0.2757,2,V,6.0
V6,5.0,45.0,62.0,70.0,51.0,70.0,372.0,square3,j,0.249,2,V,6.0
V6,6.0,42.0,67.0,73.0,46.0,42.0,414.0,square1,r,0.0343,0,V,6.0
V6,7.0,44.0,63.0,71.0,53.0,71.0,485.0,square3,j,0.0089,2,V,6.0
V6,8.0,41.0,62.0,73.0,52.0,73.0,558.0,square3,j,0.0092,2,V,6.0
V6,9.0,46.0,59.0,72.0,54.0,72.0,630.0,square3,j,0.2723,2,V,6.0
V6,10.0,45.0,59.0,70.0,53.0,70.0,700.0,square3,j,0.1889,2,V,6.0
V6,11.0,45.0,60.0,70.0,49.0,70.0,770.0,square3,j,0.3384,2,V,6.0
V6,12.0,45.0,66.0,64.0,48.0,66.0,836.0,square2,f,0.1184,1,V,6.0
V6,13.0,45.0,61.0,69.0,47.0,69.0,905.0,square3,j,0.0006,2,V,6.0
V6,14.0,47.0,60.0,71.0,56.0,56.0,961.0,square4,i,0.0993,3,V,6.0
V6,15.0,46.0,64.0,67.0,52.0,46.0,1007.0,square1,r,0.239,0,V,6.0
V6,16.0,50.0,60.0,69.0,54.0,60.0,1067.0,square2,f,0.405,1,V,6.0
V6,17.0,43.0,60.0,70.0,53.0,70.0,1137.0,square3,j,0.1494,2,V,6.0
V6,18.0,46.0,63.0,72.0,55.0,72.0,1209.0,square3,j,0.168,2,V,6.0
V6,19.0,46.0,65.0,73.0,51.0,73.0,1282.0,square3,j,0.417,2,V,6.0
V6,20.0,44.0,63.0,66.0,51.0,66.0,1348.0,square3,j,0.0009,2,V,6.0
V6,21.0,43.0,63.0,70.0,49.0,70.0,1418.0,square3,j,0.0389,2,V,6.0
V6,22.0,45.0,63.0,71.0,50.0,63.0,1481.0,square2,f,0.3758,1,V,6.0
V6,23.0,45.0,38.0,28.0,60.0,28.0,1509.0,square3,j,0.016,2,V,6.0
V6,24.0,46.0,33.0,33.0,53.0,33.0,1542.0,square3,j,0.0725,2,V,6.0
V6,25.0,45.0,36.0,32.0,63.0,36.0,1578.0,square2,f,0.089,1,V,6.0
V6,26.0,52.0,37.0,28.0,57.0,52.0,1630.0,square1,r,0.0681,0,V,6.0
V6,27.0,45.0,33.0,30.0,62.0,62.0,1692.0,square4,i,0.2935,3,V,6.0
V6,28.0,43.0,37.0,24.0,51.0,24.0,1716.0,square3,j,0.7679,2,V,6.0
V6,29.0,48.0,39.0,34.0,61.0,61.0,1777.0,square4,i,0.0007,3,V,6.0
V6,30.0,48.0,44.0,35.0,59.0,59.0,1836.0,square4,i,0.0195,3,V,6.0
V6,31.0,50.0,39.0,34.0,53.0,53.0,1889.0,square4,i,0.2949,3,V,6.0
V6,32.0,44.0,33.0,33.0,54.0,54.0,1943.0,square4,i,0.0178,3,V,6.0
V6,33.0,48.0,37.0,30.0,56.0,56.0,1999.0,square4,i,0.1386,3,V,6.0
V6,34.0,52.0,37.0,27.0,59.0,52.0,2051.0,square1,r,0.1587,0,V,6.0
V6,35.0,47.0,32.0,29.0,59.0,32.0,2083.0,square2,f,0.4864,1,V,6.0
V6,36.0,45.0,37.0,27.0,56.0,56.0,2139.0,square4,i,0.5561,3,V,6.0
V6,37.0,39.0,37.0,31.0,57.0,57.0,2196.0,square4,i,0.1492,3,V,6.0
V6,38.0,50.0,38.0,29.0,56.0,56.0,2252.0,square4,i,0.1105,3,V,6.0
V6,39.0,48.0,37.0,27.0,57.0,57.0,2309.0,square4,i,0.0415,3,V,6.0
V6,40.0,53.0,37.0,29.0,57.0,57.0,2366.0,square4,i,0.0926,3,V,6.0
V6,41.0,41.0,34.0,33.0,58.0,33.0,2399.0,square3,j,0.0007,2,V,6.0
V6,42.0,50.0,37.0,31.0,57.0,57.0,2456.0,square4,i,0.0434,3,V,6.0
V6,43.0,48.0,34.0,30.0,58.0,58.0,2514.0,square4,i,0.1263,3,V,6.0
V6,44.0,44.0,37.0,33.0,60.0,60.0,2574.0,square4,i,0.0253,3,V,6.0
V6,45.0,44.0,32.0,33.0,55.0,55.0,2629.0,square4,i,0.0145,3,V,6.0
V6,46.0,44.0,36.0,33.0,59.0,44.0,2673.0,square1,r,0.1572,0,V,6.0
V6,47.0,42.0,34.0,29.0,52.0,34.0,2707.0,square2,f,0.1426,1,V,6.0
V6,48.0,46.0,41.0,28.0,60.0,28.0,2735.0,square3,j,0.0164,2,V,6.0
V6,49.0,46.0,40.0,27.0,55.0,55.0,2790.0,square4,i,0.0633,3,V,6.0
V6,50.0,46.0,41.0,32.0,55.0,55.0,2845.0,square4,i,0.0776,3,V,6.0
V6,51.0,41.0,39.0,30.0,55.0,55.0,2900.0,square4,i,0.0031,3,V,6.0
V6,52.0,47.0,37.0,31.0,55.0,55.0,2955.0,square4,i,0.1798,3,V,6.0
V6,53.0,57.0,36.0,30.0,58.0,58.0,3013.0,square4,i,0.2129,3,V,6.0
V6,54.0,42.0,38.0,28.0,50.0,50.0,3063.0,square4,i,0.0712,3,V,6.0
V6,55.0,56.0,42.0,67.0,46.0,46.0,3109.0,square4,i,0.0008,3,V,6.0
V6,56.0,54.0,37.0,68.0,46.0,54.0,3163.0,square1,r,0.0594,0,V,6.0
V6,57.0,57.0,40.0,64.0,52.0,57.0,3220.0,square1,r,0.136,0,V,6.0
V6,58.0,53.0,45.0,68.0,45.0,53.0,3273.0,square1,r,0.06,0,V,6.0
V6,59.0,59.0,41.0,69.0,49.0,59.0,3332.0,square1,r,0.0374,0,V,6.0
V6,60.0,62.0,41.0,71.0,51.0,62.0,3394.0,square1,r,0.1399,0,V,6.0
V6,61.0,58.0,50.0,72.0,51.0,58.0,3452.0,square1,r,0.0222,0,V,6.0
V6,62.0,61.0,43.0,65.0,47.0,61.0,3513.0,square1,r,0.0008,0,V,6.0
V6,63.0,55.0,40.0,67.0,51.0,55.0,3568.0,square1,r,0.0724,0,V,6.0
V6,64.0,56.0,43.0,67.0,47.0,56.0,3624.0,square1,r,0.0886,0,V,6.0
V6,65.0,62.0,46.0,67.0,48.0,48.0,3672.0,square4,i,0.084,3,V,6.0
V6,66.0,55.0,44.0,67.0,48.0,55.0,3727.0,square1,r,0.1286,0,V,6.0
V6,67.0,61.0,46.0,70.0,49.0,46.0,3773.0,square2,f,0.0591,1,V,6.0
V6,68.0,63.0,41.0,72.0,46.0,63.0,3836.0,square1,r,0.143,0,V,6.0
V6,69.0,59.0,41.0,68.0,48.0,59.0,3895.0,square1,r,0.1562,0,V,6.0
V6,70.0,59.0,37.0,70.0,45.0,59.0,3954.0,square1,r,0.0147,0,V,6.0
V6,71.0,83.0,64.0,56.0,70.0,83.0,4037.0,square1,r,0.0643,0,V,6.0
V6,72.0,82.0,59.0,53.0,75.0,82.0,4119.0,square1,r,0.1714,0,V,6.0
V6,73.0,85.0,67.0,58.0,73.0,85.0,4204.0,square1,r,0.172,0,V,6.0
V6,74.0,79.0,67.0,61.0,73.0,79.0,4283.0,square1,r,0.0815,0,V,6.0
V6,75.0,84.0,62.0,53.0,69.0,53.0,4336.0,square3,j,0.1324,2,V,6.0
V6,76.0,81.0,60.0,55.0,76.0,81.0,4417.0,square1,r,0.0423,0,V,6.0
V6,77.0,84.0,61.0,60.0,72.0,61.0,4478.0,square2,f,0.0007,1,V,6.0
V6,78.0,90.0,61.0,54.0,74.0,90.0,4568.0,square1,r,0.1739,0,V,6.0
V6,79.0,80.0,64.0,51.0,75.0,80.0,4648.0,square1,r,0.0554,0,V,6.0
V6,80.0,85.0,62.0,56.0,78.0,85.0,4733.0,square1,r,0.0888,0,V,6.0
V6,81.0,86.0,65.0,58.0,69.0,69.0,4802.0,square4,i,0.1499,3,V,6.0
V6,82.0,83.0,62.0,58.0,77.0,83.0,4885.0,square1,r,0.1279,0,V,6.0
V6,83.0,87.0,61.0,59.0,70.0,87.0,4972.0,square1,r,0.0218,0,V,6.0
V6,84.0,89.0,65.0,54.0,78.0,65.0,5037.0,square2,f,0.1345,1,V,6.0
V6,85.0,78.0,63.0,55.0,75.0,78.0,5115.0,square1,r,0.1095,0,V,6.0
V6,86.0,87.0,67.0,52.0,75.0,87.0,5202.0,square1,r,0.175,0,V,6.0
V6,87.0,86.0,62.0,60.0,75.0,86.0,5288.0,square1,r,0.1284,0,V,6.0
V6,88.0,79.0,67.0,56.0,76.0,79.0,5367.0,square1,r,0.1221,0,V,6.0
V6,89.0,83.0,61.0,57.0,75.0,83.0,5450.0,square1,r,0.0519,0,V,6.0
V6,90.0,83.0,67.0,51.0,76.0,83.0,5533.0,square1,r,0.1557,0,V,6.0
V6,91.0,83.0,63.0,55.0,69.0,83.0,5616.0,square1,r,0.1436,0,V,6.0
V6,92.0,89.0,56.0,53.0,68.0,89.0,5705.0,square1,r,0.1423,0,V,6.0
V6,93.0,84.0,61.0,59.0,74.0,59.0,5764.0,square3,j,0.0547,2,V,6.0
V6,94.0,77.0,58.0,58.0,76.0,77.0,5841.0,square1,r,0.0008,0,V,6.0
V6,95.0,82.0,60.0,53.0,74.0,82.0,5923.0,square1,r,0.0792,0,V,6.0
V6,96.0,87.0,61.0,56.0,71.0,87.0,6010.0,square1,r,0.5882,0,V,6.0
V6,97.0,83.0,66.0,55.0,75.0,83.0,6093.0,square1,r,0.15,0,V,6.0
V6,98.0,81.0,63.0,55.0,76.0,81.0,6174.0,square1,r,0.1386,0,V,6.0
V6,99.0,92.0,63.0,61.0,78.0,92.0,6266.0,square1,r,0.0887,0,V,6.0
V2,0.0,33.0,24.0,43.0,18.0,18.0,18.0,square4,r,0.9017,3,V,2.0
V2,1.0,33.0,29.0,42.0,21.0,33.0,51.0,square1,f,0.2722,0,V,2.0
V2,2.0,37.0,26.0,45.0,22.0,26.0,77.0,square2,j,0.2159,1,V,2.0
V2,3.0,39.0,26.0,41.0,20.0,41.0,118.0,square3,i,0.0518,2,V,2.0
V2,4.0,29.0,32.0,45.0,19.0,19.0,137.0,square4,r,0.0494,3,V,2.0
V2,5.0,33.0,28.0,44.0,17.0,33.0,170.0,square1,f,0.0153,0,V,2.0
V2,6.0,32.0,24.0,49.0,20.0,24.0,194.0,square2,j,0.1053,1,V,2.0
V2,7.0,32.0,21.0,42.0,13.0,42.0,236.0,square3,i,0.1435,2,V,2.0
V2,8.0,35.0,23.0,45.0,19.0,45.0,281.0,square3,i,0.1431,2,V,2.0
V2,9.0,33.0,28.0,46.0,17.0,46.0,327.0,square3,i,0.1546,2,V,2.0
V2,10.0,39.0,27.0,45.0,21.0,45.0,372.0,square3,i,0.0494,2,V,2.0
V2,11.0,30.0,23.0,44.0,22.0,30.0,402.0,square1,f,0.1008,0,V,2.0
V2,12.0,31.0,26.0,43.0,16.0,26.0,428.0,square2,j,0.059,1,V,2.0
V2,13.0,35.0,26.0,43.0,22.0,22.0,450.0,square4,r,0.1439,3,V,2.0
V2,14.0,35.0,29.0,46.0,19.0,46.0,496.0,square3,i,0.1037,2,V,2.0
V2,15.0,36.0,22.0,44.0,20.0,44.0,540.0,square3,i,0.1677,2,V,2.0
V2,16.0,33.0,27.0,45.0,19.0,45.0,585.0,square3,i,0.0679,2,V,2.0
V2,17.0,35.0,25.0,41.0,15.0,41.0,626.0,square3,i,0.1367,2,V,2.0
V2,18.0,37.0,27.0,51.0,21.0,51.0,677.0,square3,i,0.1729,2,V,2.0
V2,19.0,33.0,25.0,43.0,18.0,43.0,720.0,square3,i,0.0008,2,V,2.0
V2,20.0,39.0,25.0,43.0,20.0,39.0,759.0,square1,f,0.0533,0,V,2.0
V2,21.0,27.0,32.0,43.0,24.0,24.0,783.0,square4,r,0.0351,3,V,2.0
V2,22.0,35.0,27.0,50.0,13.0,27.0,810.0,square2,j,0.0733,1,V,2.0
V2,23.0,36.0,25.0,39.0,17.0,39.0,849.0,square3,i,0.1385,2,V,2.0
V2,24.0,32.0,45.0,39.0,59.0,39.0,888.0,square3,i,0.11,2,V,2.0
V2,25.0,26.0,43.0,37.0,55.0,37.0,925.0,square3,i,0.1099,2,V,2.0
V2,26.0,23.0,45.0,39.0,58.0,39.0,964.0,square3,i,0.0423,2,V,2.0
V2,27.0,30.0,44.0,40.0,56.0,40.0,1004.0,square3,i,0.0704,2,V,2.0
V2,28.0,34.0,48.0,41.0,54.0,41.0,1045.0,square3,i,0.0389,2,V,2.0
V2,29.0,29.0,42.0,35.0,54.0,35.0,1080.0,square3,i,0.1761,2,V,2.0
V2,30.0,22.0,39.0,39.0,55.0,55.0,1135.0,square4,r,0.1217,3,V,2.0
V2,31.0,32.0,48.0,35.0,50.0,50.0,1185.0,square4,r,0.0931,3,V,2.0
V2,32.0,27.0,47.0,40.0,58.0,27.0,1212.0,square1,f,0.1352,0,V,2.0
V2,33.0,28.0,46.0,31.0,54.0,46.0,1258.0,square2,j,0.1515,1,V,2.0
V2,34.0,28.0,44.0,41.0,49.0,49.0,1307.0,square4,r,0.0708,3,V,2.0
V2,35.0,31.0,44.0,33.0,59.0,59.0,1366.0,square4,r,0.0808,3,V,2.0
V2,36.0,29.0,48.0,30.0,55.0,55.0,1421.0,square4,r,0.1029,3,V,2.0
V2,37.0,25.0,45.0,32.0,51.0,51.0,1472.0,square4,r,0.0991,3,V,2.0
V2,38.0,29.0,48.0,33.0,54.0,54.0,1526.0,square4,r,0.1429,3,V,2.0
V2,39.0,29.0,44.0,33.0,54.0,54.0,1580.0,square4,r,0.1189,3,V,2.0
V2,40.0,33.0,42.0,37.0,61.0,61.0,1641.0,square4,r,0.1716,3,V,2.0
V2,41.0,28.0,45.0,41.0,57.0,57.0,1698.0,square4,r,0.2873,3,V,2.0
V2,42.0,33.0,46.0,36.0,54.0,33.0,1731.0,square1,f,0.0178,0,V,2.0
V2,43.0,31.0,42.0,40.0,57.0,57.0,1788.0,square4,r,0.1222,3,V,2.0
V2,44.0,27.0,45.0,38.0,56.0,56.0,1844.0,square4,r,0.1557,3,V,2.0
V2,45.0,27.0,44.0,32.0,51.0,51.0,1895.0,square4,r,0.0007,3,V,2.0
V2,46.0,28.0,44.0,39.0,57.0,57.0,1952.0,square4,r,0.0006,3,V,2.0
V2,47.0,30.0,45.0,36.0,56.0,56.0,2008.0,square4,r,0.0556,3,V,2.0
V2,48.0,31.0,47.0,41.0,59.0,59.0,2067.0,square4,r,0.193,3,V,2.0
V2,49.0,32.0,45.0,33.0,57.0,57.0,2124.0,square4,r,0.2059,3,V,2.0
V2,50.0,24.0,38.0,36.0,52.0,52.0,2176.0,square4,r,0.1695,3,V,2.0
V2,51.0,29.0,48.0,34.0,54.0,48.0,2224.0,square2,j,0.0185,1,V,2.0
V2,52.0,30.0,50.0,38.0,56.0,38.0,2262.0,square3,i,0.1018,2,V,2.0
V2,53.0,27.0,47.0,33.0,55.0,27.0,2289.0,square1,f,0.0005,0,V,2.0
V2,54.0,34.0,21.0,45.0,25.0,25.0,2314.0,square4,r,0.2625,3,V,2.0
V2,55.0,36.0,19.0,39.0,24.0,19.0,2333.0,square2,j,0.022,1,V,2.0
V2,56.0,29.0,19.0,45.0,18.0,45.0,2378.0,square3,i,0.0144,2,V,2.0
V2,57.0,29.0,20.0,39.0,20.0,29.0,2407.0,square1,f,0.0214,0,V,2.0
V2,58.0,40.0,18.0,42.0,21.0,42.0,2449.0,square3,i,0.1045,2,V,2.0
V2,59.0,31.0,17.0,44.0,23.0,44.0,2493.0,square3,i,0.1309,2,V,2.0
V2,60.0,31.0,19.0,42.0,20.0,42.0,2535.0,square3,i,0.0176,2,V,2.0
V2,61.0,34.0,16.0,41.0,25.0,41.0,2576.0,square3,i,0.0995,2,V,2.0
V2,62.0,28.0,12.0,41.0,22.0,41.0,2617.0,square3,i,0.1048,2,V,2.0
V2,63.0,32.0,14.0,45.0,26.0,45.0,2662.0,square3,i,0.0892,2,V,2.0
V2,64.0,36.0,21.0,41.0,25.0,41.0,2703.0,square3,i,0.1472,2,V,2.0
V2,65.0,32.0,13.0,39.0,24.0,39.0,2742.0,square3,i,0.173,2,V,2.0
V2,66.0,35.0,15.0,42.0,20.0,42.0,2784.0,square3,i,0.0585,2,V,2.0
V2,67.0,30.0,23.0,47.0,27.0,27.0,2811.0,square4,r,0.0006,3,V,2.0
V2,68.0,31.0,17.0,43.0,24.0,31.0,2842.0,square1,f,0.0491,0,V,2.0
V2,69.0,33.0,20.0,41.0,20.0,20.0,2862.0,square2,j,0.0006,1,V,2.0
V2,70.0,37.0,17.0,43.0,21.0,43.0,2905.0,square3,i,0.0957,2,V,2.0
V2,71.0,45.0,31.0,36.0,58.0,36.0,2941.0,square3,i,0.0411,2,V,2.0
V2,72.0,47.0,31.0,31.0,54.0,31.0,2972.0,square3,i,0.0875,2,V,2.0
V2,73.0,50.0,30.0,33.0,55.0,50.0,3022.0,square1,f,0.0347,0,V,2.0
V2,74.0,45.0,31.0,36.0,51.0,51.0,3073.0,square4,r,0.0418,3,V,2.0
V2,75.0,47.0,28.0,38.0,54.0,28.0,3101.0,square2,j,0.129,1,V,2.0
V2,76.0,52.0,33.0,35.0,60.0,60.0,3161.0,square4,r,0.0719,3,V,2.0
V2,77.0,41.0,29.0,37.0,53.0,41.0,3202.0,square1,f,0.1759,0,V,2.0
V2,78.0,51.0,24.0,34.0,56.0,56.0,3258.0,square4,r,0.118,3,V,2.0
V2,79.0,41.0,34.0,36.0,52.0,52.0,3310.0,square4,r,0.077,3,V,2.0
V2,80.0,48.0,31.0,37.0,51.0,48.0,3358.0,square1,f,0.0428,0,V,2.0
V2,81.0,43.0,32.0,40.0,53.0,32.0,3390.0,square2,j,0.1014,1,V,2.0
V2,82.0,48.0,25.0,37.0,58.0,37.0,3427.0,square3,i,0.0881,2,V,2.0
V2,83.0,45.0,32.0,36.0,61.0,61.0,3488.0,square4,r,0.0715,3,V,2.0
V2,84.0,47.0,29.0,39.0,60.0,60.0,3548.0,square4,r,0.0776,3,V,2.0
V2,85.0,49.0,30.0,39.0,54.0,54.0,3602.0,square4,r,0.0515,3,V,2.0
V2,86.0,46.0,28.0,33.0,51.0,51.0,3653.0,square4,r,0.1518,3,V,2.0
V2,87.0,45.0,24.0,37.0,55.0,55.0,3708.0,square4,r,0.0005,3,V,2.0
V2,88.0,48.0,29.0,42.0,54.0,54.0,3762.0,square4,r,0.0427,3,V,2.0
V2,89.0,43.0,31.0,38.0,52.0,52.0,3814.0,square4,r,0.0422,3,V,2.0
V2,90.0,51.0,33.0,36.0,56.0,51.0,3865.0,square1,f,0.1433,0,V,2.0
V2,91.0,49.0,32.0,37.0,59.0,59.0,3924.0,square4,r,0.0007,3,V,2.0
V2,92.0,47.0,29.0,37.0,56.0,56.0,3980.0,square4,r,0.0847,3,V,2.0
V2,93.0,45.0,27.0,35.0,56.0,56.0,4036.0,square4,r,0.067,3,V,2.0
V2,94.0,45.0,31.0,31.0,49.0,49.0,4085.0,square4,r,0.1774,3,V,2.0
V2,95.0,47.0,33.0,36.0,52.0,36.0,4121.0,square3,i,0.0386,2,V,2.0
V2,96.0,44.0,28.0,37.0,59.0,28.0,4149.0,square2,j,0.093,1,V,2.0
V2,97.0,48.0,28.0,33.0,55.0,48.0,4197.0,square1,f,0.0319,0,V,2.0
V2,98.0,49.0,29.0,39.0,60.0,60.0,4257.0,square4,r,0.1094,3,V,2.0
V2,99.0,44.0,30.0,36.0,50.0,50.0,4307.0,square4,r,0.1391,3,V,2.0
V7,0.0,86.0,61.0,78.0,68.0,78.0,78.0,square3,r,0.9292,2,V,7.0
V7,1.0,95.0,62.0,79.0,70.0,70.0,148.0,square4,f,0.0554,3,V,7.0
V7,2.0,89.0,67.0,81.0,77.0,89.0,237.0,square1,j,0.1886,0,V,7.0
V7,3.0,90.0,56.0,85.0,72.0,56.0,293.0,square2,i,0.1632,1,V,7.0
V7,4.0,91.0,65.0,77.0,71.0,91.0,384.0,square1,j,0.0491,0,V,7.0
V7,5.0,91.0,58.0,84.0,72.0,91.0,475.0,square1,j,0.0554,0,V,7.0
V7,6.0,94.0,65.0,87.0,72.0,94.0,569.0,square1,j,0.0143,0,V,7.0
V7,7.0,89.0,67.0,79.0,67.0,67.0,636.0,square4,f,0.142,3,V,7.0
V7,8.0,91.0,65.0,84.0,68.0,84.0,720.0,square3,r,0.1431,2,V,7.0
V7,9.0,92.0,60.0,87.0,69.0,92.0,812.0,square1,j,0.0008,0,V,7.0
V7,10.0,90.0,67.0,81.0,76.0,90.0,902.0,square1,j,0.0573,0,V,7.0
V7,11.0,86.0,67.0,83.0,73.0,86.0,988.0,square1,j,0.0567,0,V,7.0
V7,12.0,90.0,62.0,80.0,72.0,90.0,1078.0,square1,j,0.0938,0,V,7.0
V7,13.0,84.0,60.0,88.0,71.0,84.0,1162.0,square1,j,0.155,0,V,7.0
V7,14.0,95.0,64.0,80.0,70.0,80.0,1242.0,square3,r,0.1519,2,V,7.0
V7,15.0,86.0,60.0,81.0,70.0,86.0,1328.0,square1,j,0.0454,0,V,7.0
V7,16.0,85.0,65.0,77.0,69.0,85.0,1413.0,square1,j,0.1123,0,V,7.0
V7,17.0,91.0,65.0,81.0,70.0,91.0,1504.0,square1,j,0.0934,0,V,7.0
V7,18.0,95.0,61.0,81.0,76.0,95.0,1599.0,square1,j,0.0822,0,V,7.0
V7,19.0,90.0,58.0,79.0,72.0,90.0,1689.0,square1,j,0.0518,0,V,7.0
V7,20.0,94.0,68.0,80.0,79.0,68.0,1757.0,square2,i,0.0603,1,V,7.0
V7,21.0,92.0,66.0,82.0,70.0,92.0,1849.0,square1,j,0.0007,0,V,7.0
V7,22.0,92.0,64.0,83.0,72.0,92.0,1941.0,square1,j,0.0848,0,V,7.0
V7,23.0,91.0,68.0,82.0,73.0,91.0,2032.0,square1,j,0.0887,0,V,7.0
V7,24.0,87.0,71.0,82.0,72.0,87.0,2119.0,square1,j,0.1664,0,V,7.0
V7,25.0,91.0,68.0,90.0,74.0,90.0,2209.0,square3,r,0.1551,2,V,7.0
V7,26.0,89.0,65.0,83.0,72.0,83.0,2292.0,square3,r,0.1073,2,V,7.0
V7,27.0,91.0,61.0,81.0,73.0,81.0,2373.0,square3,r,0.2017,2,V,7.0
V7,28.0,90.0,66.0,81.0,72.0,90.0,2463.0,square1,j,0.0668,0,V,7.0
V7,29.0,89.0,67.0,77.0,71.0,89.0,2552.0,square1,j,0.1325,0,V,7.0
V7,30.0,95.0,68.0,84.0,71.0,95.0,2647.0,square1,j,0.1455,0,V,7.0
V7,31.0,95.0,61.0,81.0,70.0,95.0,2742.0,square1,j,0.1418,0,V,7.0
V7,32.0,89.0,65.0,82.0,75.0,89.0,2831.0,square1,j,0.0009,0,V,7.0
V7,33.0,77.0,50.0,80.0,61.0,77.0,2908.0,square1,j,0.038,0,V,7.0
V7,34.0,76.0,54.0,78.0,61.0,78.0,2986.0,square3,r,0.2219,2,V,7.0
V7,35.0,71.0,51.0,80.0,64.0,64.0,3050.0,square4,f,0.3267,3,V,7.0
V7,36.0,75.0,51.0,80.0,62.0,51.0,3101.0,square2,i,0.1513,1,V,7.0
V7,37.0,73.0,58.0,86.0,63.0,73.0,3174.0,square1,j,0.1527,0,V,7.0
V7,38.0,73.0,50.0,86.0,61.0,86.0,3260.0,square3,r,0.1227,2,V,7.0
V7,39.0,67.0,53.0,78.0,61.0,67.0,3327.0,square1,j,0.1,0,V,7.0
V7,40.0,71.0,53.0,84.0,58.0,84.0,3411.0,square3,r,0.1105,2,V,7.0
V7,41.0,75.0,51.0,83.0,63.0,83.0,3494.0,square3,r,0.0393,2,V,7.0
V7,42.0,69.0,48.0,87.0,63.0,87.0,3581.0,square3,r,0.0703,2,V,7.0
V7,43.0,70.0,58.0,81.0,60.0,81.0,3662.0,square3,r,0.1439,2,V,7.0
V7,44.0,68.0,56.0,76.0,63.0,76.0,3738.0,square3,r,0.1349,2,V,7.0
V7,45.0,74.0,59.0,76.0,56.0,74.0,3812.0,square1,j,0.0684,0,V,7.0
V7,46.0,72.0,54.0,77.0,61.0,61.0,3873.0,square4,f,0.1087,3,V,7.0
V7,47.0,69.0,47.0,81.0,62.0,47.0,3920.0,square2,i,0.3087,1,V,7.0
V7,48.0,75.0,52.0,81.0,57.0,81.0,4001.0,square3,r,0.0099,2,V,7.0
V7,49.0,74.0,55.0,78.0,60.0,78.0,4079.0,square3,r,0.0576,2,V,7.0
V7,50.0,71.0,51.0,80.0,61.0,80.0,4159.0,square3,r,0.0098,2,V,7.0
V7,51.0,75.0,55.0,85.0,62.0,75.0,4234.0,square1,j,0.0438,0,V,7.0
V7,52.0,75.0,59.0,76.0,59.0,76.0,4310.0,square3,r,0.1499,2,V,7.0
V7,53.0,72.0,53.0,84.0,66.0,84.0,4394.0,square3,r,0.0387,2,V,7.0
V7,54.0,69.0,51.0,81.0,60.0,81.0,4475.0,square3,r,0.1053,2,V,7.0
V7,55.0,74.0,56.0,75.0,54.0,75.0,4550.0,square3,r,0.0005,2,V,7.0
V7,56.0,76.0,51.0,83.0,58.0,76.0,4626.0,square1,j,0.095,0,V,7.0
V7,57.0,71.0,53.0,80.0,64.0,80.0,4706.0,square3,r,0.3852,2,V,7.0
V7,58.0,81.0,56.0,79.0,61.0,81.0,4787.0,square1,j,0.0056,0,V,7.0
V7,59.0,71.0,55.0,83.0,59.0,83.0,4870.0,square3,r,0.1716,2,V,7.0
V7,60.0,73.0,53.0,83.0,64.0,83.0,4953.0,square3,r,0.0374,2,V,7.0
V7,61.0,70.0,53.0,77.0,63.0,70.0,5023.0,square1,j,0.0887,0,V,7.0
V7,62.0,71.0,54.0,76.0,61.0,76.0,5099.0,square3,r,0.1547,2,V,7.0
V7,63.0,68.0,45.0,79.0,65.0,79.0,5178.0,square3,r,0.0809,2,V,7.0
V7,64.0,65.0,55.0,79.0,59.0,79.0,5257.0,square3,r,0.0925,2,V,7.0
V7,65.0,74.0,54.0,81.0,61.0,81.0,5338.0,square3,r,0.099,2,V,7.0
V7,66.0,70.0,56.0,81.0,63.0,81.0,5419.0,square3,r,0.1378,2,V,7.0
V7,67.0,70.0,85.0,64.0,92.0,64.0,5483.0,square3,r,0.1552,2,V,7.0
V7,68.0,73.0,85.0,68.0,92.0,85.0,5568.0,square2,i,0.0911,1,V,7.0
V7,69.0,75.0,83.0,70.0,91.0,91.0,5659.0,square4,f,0.022,3,V,7.0
V7,70.0,75.0,85.0,69.0,91.0,85.0,5744.0,square2,i,0.0608,1,V,7.0
V7,71.0,71.0,86.0,65.0,94.0,65.0,5809.0,square3,r,0.1395,2,V,7.0
V7,72.0,77.0,86.0,65.0,98.0,98.0,5907.0,square4,f,0.0396,3,V,7.0
V7,73.0,77.0,84.0,63.0,94.0,94.0,6001.0,square4,f,0.0395,3,V,7.0
V7,74.0,71.0,86.0,64.0,91.0,91.0,6092.0,square4,f,0.141,3,V,7.0
V7,75.0,73.0,90.0,60.0,90.0,90.0,6182.0,square4,f,0.1846,3,V,7.0
V7,76.0,79.0,84.0,68.0,95.0,79.0,6261.0,square1,j,0.0035,0,V,7.0
V7,77.0,73.0,85.0,66.0,89.0,85.0,6346.0,square2,i,0.1443,1,V,7.0
V7,78.0,75.0,82.0,67.0,91.0,91.0,6437.0,square4,f,0.0036,3,V,7.0
V7,79.0,72.0,85.0,60.0,90.0,90.0,6527.0,square4,f,0.0738,3,V,7.0
V7,80.0,73.0,83.0,66.0,97.0,97.0,6624.0,square4,f,0.0893,3,V,7.0
V7,81.0,73.0,84.0,67.0,92.0,92.0,6716.0,square4,f,0.1196,3,V,7.0
V7,82.0,69.0,84.0,65.0,91.0,91.0,6807.0,square4,f,0.0515,3,V,7.0
V7,83.0,76.0,83.0,72.0,99.0,99.0,6906.0,square4,f,0.1552,3,V,7.0
V7,84.0,72.0,84.0,70.0,94.0,94.0,7000.0,square4,f,0.0354,3,V,7.0
V7,85.0,77.0,83.0,67.0,88.0,88.0,7088.0,square4,f,0.024,3,V,7.0
V7,86.0,76.0,80.0,67.0,90.0,76.0,7164.0,square1,j,0.1754,0,V,7.0
V7,87.0,70.0,86.0,67.0,95.0,86.0,7250.0,square2,i,0.1495,1,V,7.0
V7,88.0,76.0,84.0,67.0,100.0,67.0,7317.0,square3,r,0.0243,2,V,7.0
V7,89.0,71.0,88.0,60.0,97.0,97.0,7414.0,square4,f,0.018,3,V,7.0
V7,90.0,69.0,82.0,71.0,95.0,95.0,7509.0,square4,f,0.0658,3,V,7.0
V7,91.0,80.0,84.0,65.0,92.0,92.0,7601.0,square4,f,0.1222,3,V,7.0
V7,92.0,77.0,85.0,68.0,85.0,85.0,7686.0,square4,f,0.1206,3,V,7.0
V7,93.0,72.0,84.0,66.0,91.0,91.0,7777.0,square4,f,0.1555,3,V,7.0
V7,94.0,69.0,83.0,66.0,95.0,95.0,7872.0,square4,f,0.0067,3,V,7.0
V7,95.0,70.0,86.0,75.0,91.0,91.0,7963.0,square4,f,0.1765,3,V,7.0
V7,96.0,74.0,85.0,66.0,88.0,88.0,8051.0,square4,f,0.1599,3,V,7.0
V7,97.0,77.0,82.0,73.0,91.0,91.0,8142.0,square4,f,0.1343,3,V,7.0
V7,98.0,76.0,91.0,62.0,94.0,94.0,8236.0,square4,f,0.2303,3,V,7.0
V7,99.0,74.0,84.0,67.0,88.0,88.0,8324.0,square4,f,0.1061,3,V,7.0
S12,0.0,38.0,42.0,30.0,42.0,42.0,42.0,square4,r,0.3403,3,S,12.0
S12,1.0,30.0,42.0,28.0,37.0,42.0,84.0,square2,f,0.1725,1,S,12.0
S12,2.0,34.0,41.0,38.0,43.0,38.0,122.0,square3,j,0.0739,2,S,12.0
S12,3.0,38.0,51.0,38.0,38.0,38.0,160.0,square1,i,0.0925,0,S,12.0
S12,4.0,32.0,37.0,33.0,45.0,45.0,205.0,square4,r,0.0428,3,S,12.0
S12,5.0,38.0,52.0,36.0,35.0,52.0,257.0,square2,f,0.0376,1,S,12.0
S12,6.0,30.0,43.0,30.0,38.0,30.0,287.0,square3,j,0.2053,2,S,12.0
S12,7.0,38.0,39.0,30.0,39.0,38.0,325.0,square1,i,0.0515,0,S,12.0
S12,8.0,37.0,49.0,35.0,38.0,38.0,363.0,square4,r,0.0929,3,S,12.0
S12,9.0,37.0,44.0,29.0,38.0,44.0,407.0,square2,f,0.185,1,S,12.0
S12,10.0,35.0,42.0,30.0,45.0,42.0,449.0,square2,f,0.1046,1,S,12.0
S12,11.0,34.0,45.0,36.0,32.0,32.0,481.0,square4,r,0.0886,3,S,12.0
S12,12.0,33.0,45.0,35.0,42.0,45.0,526.0,square2,f,0.1003,1,S,12.0
S12,13.0,36.0,36.0,29.0,40.0,36.0,562.0,square2,f,0.0795,1,S,12.0
S12,14.0,36.0,49.0,32.0,42.0,49.0,611.0,square2,f,0.3287,1,S,12.0
S12,15.0,35.0,43.0,35.0,46.0,35.0,646.0,square3,j,0.2852,2,S,12.0
S12,16.0,39.0,48.0,41.0,43.0,48.0,694.0,square2,f,0.0518,1,S,12.0
S12,17.0,35.0,47.0,27.0,38.0,47.0,741.0,square2,f,0.0756,1,S,12.0
S12,18.0,37.0,51.0,33.0,33.0,51.0,792.0,square2,f,0.1268,1,S,12.0
S12,19.0,41.0,42.0,33.0,36.0,42.0,834.0,square2,f,0.1053,1,S,12.0
S12,20.0,34.0,44.0,26.0,41.0,44.0,878.0,square2,f,0.1675,1,S,12.0
S12,21.0,35.0,37.0,29.0,35.0,37.0,915.0,square2,f,0.143,1,S,12.0
S12,22.0,37.0,48.0,31.0,41.0,41.0,956.0,square4,r,0.1184,3,S,12.0
S12,23.0,36.0,43.0,27.0,45.0,43.0,999.0,square2,f,0.0051,1,S,12.0
S12,24.0,39.0,48.0,38.0,38.0,48.0,1047.0,square2,f,0.0853,1,S,12.0
S12,25.0,31.0,43.0,30.0,40.0,40.0,1087.0,square4,r,0.7079,3,S,12.0
S12,26.0,35.0,48.0,34.0,33.0,48.0,1135.0,square2,f,0.3921,1,S,12.0
S12,27.0,46.0,46.0,28.0,38.0,46.0,1181.0,square2,f,0.0406,1,S,12.0
S12,28.0,32.0,37.0,32.0,40.0,37.0,1218.0,square2,f,0.0504,1,S,12.0
S12,29.0,38.0,41.0,32.0,44.0,41.0,1259.0,square2,f,0.0251,1,S,12.0
S12,30.0,32.0,48.0,29.0,42.0,48.0,1307.0,square2,f,0.2014,1,S,12.0
S12,31.0,34.0,46.0,30.0,42.0,46.0,1353.0,square2,f,0.0005,1,S,12.0
S12,32.0,39.0,43.0,41.0,40.0,43.0,1396.0,square2,f,0.1652,1,S,12.0
S12,33.0,36.0,47.0,33.0,46.0,47.0,1443.0,square2,f,0.0512,1,S,12.0
S12,34.0,36.0,41.0,34.0,41.0,41.0,1484.0,square2,f,0.2332,1,S,12.0
S12,35.0,34.0,42.0,31.0,43.0,42.0,1526.0,square2,f,0.3498,1,S,12.0
S12,36.0,39.0,43.0,26.0,33.0,43.0,1569.0,square2,f,0.0208,1,S,12.0
S12,37.0,39.0,49.0,30.0,42.0,49.0,1618.0,square2,f,0.0959,1,S,12.0
S12,38.0,33.0,47.0,36.0,41.0,47.0,1665.0,square2,f,0.0824,1,S,12.0
S12,39.0,29.0,46.0,35.0,36.0,46.0,1711.0,square2,f,0.1099,1,S,12.0
S12,40.0,39.0,39.0,29.0,36.0,39.0,1750.0,square2,f,0.1436,1,S,12.0
S12,41.0,33.0,44.0,31.0,40.0,44.0,1794.0,square2,f,0.1228,1,S,12.0
S12,42.0,34.0,46.0,25.0,37.0,46.0,1840.0,square2,f,0.1219,1,S,12.0
S12,43.0,37.0,42.0,30.0,42.0,42.0,1882.0,square2,f,0.0493,1,S,12.0
S12,44.0,33.0,49.0,36.0,39.0,49.0,1931.0,square2,f,0.2207,1,S,12.0
S12,45.0,35.0,40.0,30.0,47.0,40.0,1971.0,square2,f,0.1012,1,S,12.0
S12,46.0,40.0,41.0,29.0,35.0,41.0,2012.0,square2,f,0.2382,1,S,12.0
S12,47.0,32.0,42.0,28.0,43.0,42.0,2054.0,square2,f,0.0718,1,S,12.0
S12,48.0,43.0,47.0,31.0,38.0,47.0,2101.0,square2,f,0.1568,1,S,12.0
S12,49.0,37.0,41.0,35.0,40.0,41.0,2142.0,square2,f,0.0555,1,S,12.0
S1,0.0,72.0,58.0,70.0,66.0,72.0,72.0,square1,r,0.3473,0,S,1.0
S1,1.0,75.0,64.0,66.0,69.0,66.0,138.0,square3,f,0.1538,2,S,1.0
S1,2.0,75.0,62.0,62.0,79.0,79.0,217.0,square4,j,0.0711,3,S,1.0
S1,3.0,68.0,62.0,63.0,69.0,62.0,279.0,square2,i,0.1812,1,S,1.0
S1,4.0,82.0,63.0,64.0,73.0,73.0,352.0,square4,j,0.0685,3,S,1.0
S1,5.0,66.0,70.0,65.0,73.0,66.0,418.0,square1,r,0.0886,0,S,1.0
S1,6.0,73.0,65.0,62.0,65.0,65.0,483.0,square4,j,0.0503,3,S,1.0
S1,7.0,70.0,61.0,65.0,66.0,65.0,548.0,square3,f,0.0102,2,S,1.0
S1,8.0,78.0,63.0,67.0,68.0,68.0,616.0,square4,j,0.0908,3,S,1.0
S1,9.0,74.0,67.0,66.0,68.0,66.0,682.0,square3,f,0.0008,2,S,1.0
S1,10.0,73.0,59.0,68.0,68.0,73.0,755.0,square1,r,0.0201,0,S,1.0
S1,11.0,76.0,65.0,62.0,81.0,65.0,820.0,square2,i,0.1013,1,S,1.0
S1,12.0,77.0,66.0,69.0,63.0,63.0,883.0,square4,j,0.1725,3,S,1.0
S1,13.0,75.0,63.0,68.0,73.0,75.0,958.0,square1,r,0.0514,0,S,1.0
S1,14.0,67.0,60.0,67.0,69.0,67.0,1025.0,square1,r,0.12,0,S,1.0
S1,15.0,70.0,63.0,69.0,73.0,73.0,1098.0,square4,j,0.1446,3,S,1.0
S1,16.0,69.0,61.0,69.0,69.0,69.0,1167.0,square1,r,0.0018,0,S,1.0
S1,17.0,73.0,68.0,67.0,73.0,67.0,1234.0,square3,f,0.1349,2,S,1.0
S1,18.0,70.0,58.0,73.0,66.0,66.0,1300.0,square4,j,0.0517,3,S,1.0
S1,19.0,75.0,58.0,62.0,68.0,68.0,1368.0,square4,j,0.1553,3,S,1.0
S1,20.0,76.0,58.0,72.0,67.0,76.0,1444.0,square1,r,0.1393,0,S,1.0
S1,21.0,69.0,66.0,66.0,67.0,67.0,1511.0,square4,j,0.0477,3,S,1.0
S1,22.0,70.0,68.0,65.0,65.0,70.0,1581.0,square1,r,0.0724,0,S,1.0
S1,23.0,71.0,60.0,64.0,64.0,64.0,1645.0,square4,j,0.0257,3,S,1.0
S1,24.0,70.0,72.0,62.0,67.0,70.0,1715.0,square1,r,0.0178,0,S,1.0
S1,25.0,68.0,60.0,70.0,65.0,68.0,1783.0,square1,r,0.0562,0,S,1.0
S1,26.0,76.0,64.0,72.0,69.0,76.0,1859.0,square1,r,0.1661,0,S,1.0
S1,27.0,71.0,56.0,70.0,65.0,71.0,1930.0,square1,r,0.0071,0,S,1.0
S1,28.0,67.0,67.0,71.0,76.0,67.0,1997.0,square1,r,0.1927,0,S,1.0
S1,29.0,78.0,64.0,64.0,74.0,78.0,2075.0,square1,r,0.0514,0,S,1.0
S1,30.0,74.0,63.0,65.0,71.0,74.0,2149.0,square1,r,0.0681,0,S,1.0
S1,31.0,78.0,58.0,69.0,69.0,78.0,2227.0,square1,r,0.0927,0,S,1.0
S1,32.0,71.0,67.0,68.0,60.0,71.0,2298.0,square1,r,0.0683,0,S,1.0
S1,33.0,68.0,63.0,65.0,73.0,68.0,2366.0,square1,r,0.1723,0,S,1.0
S1,34.0,71.0,62.0,74.0,73.0,71.0,2437.0,square1,r,0.0874,0,S,1.0
S1,35.0,75.0,59.0,67.0,77.0,75.0,2512.0,square1,r,0.0003,0,S,1.0
S1,36.0,77.0,60.0,66.0,67.0,77.0,2589.0,square1,r,0.0244,0,S,1.0
S1,37.0,69.0,60.0,69.0,75.0,69.0,2658.0,square1,r,0.0642,0,S,1.0
S1,38.0,77.0,64.0,62.0,70.0,77.0,2735.0,square1,r,0.0717,0,S,1.0
S1,39.0,72.0,66.0,69.0,65.0,72.0,2807.0,square1,r,0.0556,0,S,1.0
S1,40.0,69.0,63.0,66.0,69.0,69.0,2876.0,square1,r,0.0007,0,S,1.0
S1,41.0,72.0,62.0,70.0,70.0,72.0,2948.0,square1,r,0.059,0,S,1.0
S1,42.0,78.0,60.0,63.0,62.0,78.0,3026.0,square1,r,0.1403,0,S,1.0
S1,43.0,71.0,62.0,67.0,73.0,71.0,3097.0,square1,r,0.0289,0,S,1.0
S1,44.0,75.0,63.0,69.0,73.0,75.0,3172.0,square1,r,0.0713,0,S,1.0
S1,45.0,66.0,60.0,68.0,73.0,66.0,3238.0,square1,r,0.1696,0,S,1.0
S1,46.0,74.0,67.0,69.0,71.0,74.0,3312.0,square1,r,0.0174,0,S,1.0
S1,47.0,71.0,66.0,68.0,70.0,71.0,3383.0,square1,r,0.0377,0,S,1.0
S1,48.0,72.0,75.0,71.0,77.0,72.0,3455.0,square1,r,0.0995,0,S,1.0
S1,49.0,65.0,57.0,66.0,75.0,65.0,3520.0,square1,r,0.2117,0,S,1.0
S8,0.0,58.0,60.0,52.0,45.0,45.0,45.0,square4,r,0.333,3,S,8.0
S8,1.0,55.0,57.0,56.0,52.0,55.0,100.0,square1,f,0.0749,0,S,8.0
S8,2.0,54.0,58.0,58.0,49.0,58.0,158.0,square2,j,0.0851,1,S,8.0
S8,3.0,55.0,62.0,52.0,53.0,52.0,210.0,square3,i,0.198,2,S,8.0
S8,4.0,55.0,60.0,49.0,51.0,60.0,270.0,square2,j,0.0008,1,S,8.0
S8,5.0,48.0,63.0,61.0,49.0,48.0,318.0,square1,f,0.1631,0,S,8.0
S8,6.0,58.0,63.0,59.0,55.0,63.0,381.0,square2,j,0.0729,1,S,8.0
S8,7.0,56.0,53.0,49.0,51.0,51.0,432.0,square4,r,0.1393,3,S,8.0
S8,8.0,61.0,63.0,66.0,49.0,66.0,498.0,square3,i,0.0006,2,S,8.0
S8,9.0,60.0,59.0,53.0,47.0,59.0,557.0,square2,j,0.0879,1,S,8.0
S8,10.0,55.0,63.0,52.0,55.0,52.0,609.0,square3,i,0.2018,2,S,8.0
S8,11.0,62.0,60.0,54.0,50.0,60.0,669.0,square2,j,0.0007,1,S,8.0
S8,12.0,58.0,64.0,51.0,52.0,51.0,720.0,square3,i,0.1053,2,S,8.0
S8,13.0,62.0,59.0,53.0,53.0,59.0,779.0,square2,j,0.0174,1,S,8.0
S8,14.0,51.0,62.0,61.0,54.0,62.0,841.0,square2,j,0.101,1,S,8.0
S8,15.0,56.0,68.0,56.0,50.0,68.0,909.0,square2,j,0.072,1,S,8.0
S8,16.0,58.0,64.0,56.0,50.0,56.0,965.0,square3,i,0.2307,2,S,8.0
S8,17.0,64.0,63.0,60.0,42.0,63.0,1028.0,square2,j,0.0257,1,S,8.0
S8,18.0,54.0,64.0,57.0,55.0,64.0,1092.0,square2,j,0.168,1,S,8.0
S8,19.0,56.0,53.0,57.0,53.0,53.0,1145.0,square2,j,0.0223,1,S,8.0
S8,20.0,59.0,64.0,56.0,49.0,64.0,1209.0,square2,j,0.0006,1,S,8.0
S8,21.0,54.0,59.0,55.0,48.0,59.0,1268.0,square2,j,0.068,1,S,8.0
S8,22.0,63.0,63.0,59.0,49.0,63.0,1331.0,square2,j,0.105,1,S,8.0
S8,23.0,59.0,60.0,48.0,52.0,60.0,1391.0,square2,j,0.0212,1,S,8.0
S8,24.0,55.0,53.0,60.0,50.0,53.0,1444.0,square2,j,0.0316,1,S,8.0
S8,25.0,57.0,60.0,55.0,54.0,60.0,1504.0,square2,j,0.1271,1,S,8.0
S8,26.0,62.0,66.0,57.0,58.0,66.0,1570.0,square2,j,0.148,1,S,8.0
S8,27.0,58.0,55.0,52.0,48.0,55.0,1625.0,square2,j,0.0208,1,S,8.0
S8,28.0,53.0,59.0,53.0,55.0,59.0,1684.0,square2,j,0.026,1,S,8.0
S8,29.0,60.0,58.0,57.0,53.0,58.0,1742.0,square2,j,0.0008,1,S,8.0
S8,30.0,57.0,67.0,52.0,56.0,67.0,1809.0,square2,j,0.2685,1,S,8.0
S8,31.0,60.0,58.0,52.0,50.0,58.0,1867.0,square2,j,0.0849,1,S,8.0
S8,32.0,54.0,61.0,56.0,57.0,61.0,1928.0,square2,j,0.2388,1,S,8.0
S8,33.0,66.0,64.0,63.0,52.0,64.0,1992.0,square2,j,0.0009,1,S,8.0
S8,34.0,54.0,65.0,66.0,56.0,65.0,2057.0,square2,j,0.1721,1,S,8.0
S8,35.0,54.0,62.0,61.0,48.0,62.0,2119.0,square2,j,0.2218,1,S,8.0
S8,36.0,53.0,63.0,54.0,55.0,63.0,2182.0,square2,j,0.1093,1,S,8.0
S8,37.0,64.0,58.0,57.0,51.0,58.0,2240.0,square2,j,0.1676,1,S,8.0
S8,38.0,68.0,65.0,59.0,57.0,65.0,2305.0,square2,j,0.2014,1,S,8.0
S8,39.0,64.0,65.0,51.0,55.0,65.0,2370.0,square2,j,0.1718,1,S,8.0
S8,40.0,63.0,61.0,57.0,47.0,61.0,2431.0,square2,j,0.0559,1,S,8.0
S8,41.0,65.0,58.0,55.0,49.0,58.0,2489.0,square2,j,0.0007,1,S,8.0
S8,42.0,52.0,60.0,51.0,56.0,60.0,2549.0,square2,j,0.132,1,S,8.0
S8,43.0,63.0,57.0,48.0,50.0,57.0,2606.0,square2,j,0.1279,1,S,8.0
S8,44.0,59.0,63.0,53.0,53.0,63.0,2669.0,square2,j,0.1555,1,S,8.0
S8,45.0,62.0,62.0,60.0,53.0,62.0,2731.0,square2,j,0.1393,1,S,8.0
S8,46.0,56.0,62.0,57.0,60.0,62.0,2793.0,square2,j,0.0225,1,S,8.0
S8,47.0,60.0,63.0,58.0,56.0,63.0,2856.0,square2,j,0.0005,1,S,8.0
S8,48.0,59.0,63.0,49.0,53.0,63.0,2919.0,square2,j,0.1609,1,S,8.0
S8,49.0,67.0,67.0,59.0,55.0,67.0,2986.0,square2,j,0.0271,1,S,8.0
S6,0.0,40.0,29.0,39.0,26.0,39.0,39.0,square3,r,0.3599,2,S,6.0
S6,1.0,34.0,40.0,31.0,25.0,25.0,64.0,square4,f,0.1568,3,S,6.0
S6,2.0,37.0,31.0,25.0,30.0,37.0,101.0,square1,j,0.1476,0,S,6.0
S6,3.0,39.0,37.0,30.0,27.0,37.0,138.0,square2,i,0.0246,1,S,6.0
S6,4.0,42.0,40.0,28.0,32.0,42.0,180.0,square1,j,0.0349,0,S,6.0
S6,5.0,35.0,35.0,39.0,29.0,35.0,215.0,square2,i,0.084,1,S,6.0
S6,6.0,48.0,30.0,37.0,33.0,37.0,252.0,square3,r,0.109,2,S,6.0
S6,7.0,47.0,34.0,31.0,29.0,47.0,299.0,square1,j,0.0397,0,S,6.0
S6,8.0,43.0,35.0,30.0,25.0,35.0,334.0,square2,i,0.0218,1,S,6.0
S6,9.0,36.0,38.0,35.0,35.0,36.0,370.0,square1,j,0.1433,0,S,6.0
S6,10.0,38.0,35.0,31.0,21.0,38.0,408.0,square1,j,0.143,0,S,6.0
S6,11.0,30.0,36.0,31.0,20.0,36.0,444.0,square2,i,0.0541,1,S,6.0
S6,12.0,37.0,40.0,33.0,22.0,37.0,481.0,square1,j,0.1898,0,S,6.0
S6,13.0,32.0,41.0,35.0,29.0,32.0,513.0,square1,j,0.0313,0,S,6.0
S6,14.0,41.0,29.0,30.0,32.0,41.0,554.0,square1,j,0.0057,0,S,6.0
S6,15.0,43.0,37.0,31.0,27.0,31.0,585.0,square3,r,0.1073,2,S,6.0
S6,16.0,34.0,34.0,35.0,31.0,34.0,619.0,square2,i,0.1531,1,S,6.0
S6,17.0,47.0,40.0,29.0,28.0,47.0,666.0,square1,j,0.0598,0,S,6.0
S6,18.0,37.0,38.0,34.0,35.0,37.0,703.0,square1,j,0.0048,0,S,6.0
S6,19.0,36.0,39.0,31.0,26.0,36.0,739.0,square1,j,0.1189,0,S,6.0
S6,20.0,44.0,40.0,31.0,25.0,44.0,783.0,square1,j,0.0063,0,S,6.0
S6,21.0,39.0,41.0,35.0,24.0,39.0,822.0,square1,j,0.0438,0,S,6.0
S6,22.0,41.0,38.0,41.0,31.0,41.0,863.0,square1,j,0.1976,0,S,6.0
S6,23.0,37.0,31.0,30.0,32.0,37.0,900.0,square1,j,0.143,0,S,6.0
S6,24.0,48.0,34.0,34.0,21.0,48.0,948.0,square1,j,0.0078,0,S,6.0
S6,25.0,42.0,45.0,26.0,29.0,42.0,990.0,square1,j,0.0239,0,S,6.0
S6,26.0,40.0,39.0,36.0,28.0,40.0,1030.0,square1,j,0.0588,0,S,6.0
S6,27.0,42.0,33.0,29.0,29.0,42.0,1072.0,square1,j,0.0545,0,S,6.0
S6,28.0,41.0,30.0,29.0,29.0,41.0,1113.0,square1,j,0.0152,0,S,6.0
S6,29.0,42.0,40.0,32.0,27.0,42.0,1155.0,square1,j,0.0418,0,S,6.0
S6,30.0,42.0,36.0,30.0,26.0,42.0,1197.0,square1,j,0.1029,0,S,6.0
S6,31.0,42.0,34.0,35.0,29.0,42.0,1239.0,square1,j,0.226,0,S,6.0
S6,32.0,35.0,36.0,31.0,23.0,35.0,1274.0,square1,j,0.0889,0,S,6.0
S6,33.0,35.0,31.0,35.0,30.0,35.0,1309.0,square1,j,0.1221,0,S,6.0
S6,34.0,40.0,38.0,31.0,27.0,40.0,1349.0,square1,j,0.1224,0,S,6.0
S6,35.0,42.0,37.0,34.0,34.0,42.0,1391.0,square1,j,0.1394,0,S,6.0
S6,36.0,37.0,46.0,31.0,34.0,37.0,1428.0,square1,j,0.1582,0,S,6.0
S6,37.0,38.0,40.0,30.0,26.0,38.0,1466.0,square1,j,0.0131,0,S,6.0
S6,38.0,36.0,34.0,31.0,33.0,36.0,1502.0,square1,j,0.0044,0,S,6.0
S6,39.0,44.0,37.0,33.0,31.0,44.0,1546.0,square1,j,0.1845,0,S,6.0
S6,40.0,40.0,38.0,31.0,25.0,40.0,1586.0,square1,j,0.0013,0,S,6.0
S6,41.0,49.0,35.0,35.0,28.0,49.0,1635.0,square1,j,0.0009,0,S,6.0
S6,42.0,44.0,40.0,32.0,28.0,44.0,1679.0,square1,j,0.189,0,S,6.0
S6,43.0,43.0,36.0,33.0,26.0,43.0,1722.0,square1,j,0.0049,0,S,6.0
S6,44.0,38.0,33.0,34.0,26.0,38.0,1760.0,square1,j,0.0024,0,S,6.0
S6,45.0,32.0,35.0,30.0,28.0,32.0,1792.0,square1,j,0.4517,0,S,6.0
S6,46.0,38.0,36.0,34.0,30.0,38.0,1830.0,square1,j,0.0829,0,S,6.0
S6,47.0,44.0,35.0,32.0,31.0,44.0,1874.0,square1,j,0.0008,0,S,6.0
S6,48.0,40.0,40.0,31.0,33.0,40.0,1914.0,square1,j,0.1741,0,S,6.0
S6,49.0,41.0,29.0,29.0,29.0,41.0,1955.0,square1,j,0.0553,0,S,6.0
S3,0.0,38.0,48.0,42.0,57.0,57.0,57.0,square4,r,0.2726,3,S,3.0
S3,1.0,29.0,43.0,51.0,57.0,43.0,100.0,square2,f,0.0383,1,S,3.0
S3,2.0,41.0,49.0,46.0,49.0,46.0,146.0,square3,j,0.1388,2,S,3.0
S3,3.0,44.0,50.0,45.0,52.0,44.0,190.0,square1,i,0.0887,0,S,3.0
S3,4.0,37.0,51.0,45.0,58.0,58.0,248.0,square4,r,0.1054,3,S,3.0
S3,5.0,47.0,43.0,42.0,49.0,49.0,297.0,square4,r,0.0032,3,S,3.0
S3,6.0,44.0,53.0,51.0,58.0,58.0,355.0,square4,r,0.0006,3,S,3.0
S3,7.0,39.0,47.0,46.0,54.0,54.0,409.0,square4,r,0.0177,3,S,3.0
S3,8.0,43.0,53.0,41.0,52.0,52.0,461.0,square4,r,0.123,3,S,3.0
S3,9.0,42.0,46.0,41.0,53.0,53.0,514.0,square4,r,0.1365,3,S,3.0
S3,10.0,37.0,49.0,49.0,55.0,55.0,569.0,square4,r,0.1347,3,S,3.0
S3,11.0,40.0,47.0,36.0,59.0,59.0,628.0,square4,r,0.2016,3,S,3.0
S3,12.0,46.0,51.0,39.0,56.0,56.0,684.0,square4,r,0.1167,3,S,3.0
S3,13.0,39.0,48.0,45.0,57.0,57.0,741.0,square4,r,0.0008,3,S,3.0
S3,14.0,39.0,55.0,43.0,47.0,47.0,788.0,square4,r,0.1118,3,S,3.0
S3,15.0,46.0,46.0,47.0,52.0,52.0,840.0,square4,r,0.0939,3,S,3.0
S3,16.0,42.0,49.0,50.0,55.0,55.0,895.0,square4,r,0.0753,3,S,3.0
S3,17.0,45.0,45.0,56.0,47.0,47.0,942.0,square4,r,0.1968,3,S,3.0
S3,18.0,46.0,43.0,45.0,50.0,50.0,992.0,square4,r,0.0223,3,S,3.0
S3,19.0,41.0,47.0,50.0,55.0,55.0,1047.0,square4,r,0.1153,3,S,3.0
S3,20.0,45.0,52.0,49.0,52.0,52.0,1099.0,square4,r,0.0364,3,S,3.0
S3,21.0,40.0,43.0,47.0,46.0,46.0,1145.0,square4,r,0.1182,3,S,3.0
S3,22.0,45.0,46.0,44.0,47.0,47.0,1192.0,square4,r,0.0345,3,S,3.0
S3,23.0,36.0,50.0,42.0,46.0,46.0,1238.0,square4,r,0.1588,3,S,3.0
S3,24.0,42.0,54.0,49.0,55.0,55.0,1293.0,square4,r,0.0008,3,S,3.0
S3,25.0,43.0,51.0,44.0,54.0,54.0,1347.0,square4,r,0.109,3,S,3.0
S3,26.0,49.0,50.0,52.0,52.0,52.0,1399.0,square4,r,0.3926,3,S,3.0
S3,27.0,47.0,52.0,44.0,50.0,50.0,1449.0,square4,r,0.1181,3,S,3.0
S3,28.0,37.0,48.0,40.0,47.0,47.0,1496.0,square4,r,0.1583,3,S,3.0
S3,29.0,50.0,43.0,50.0,57.0,57.0,1553.0,square4,r,0.3089,3,S,3.0
S3,30.0,50.0,50.0,46.0,47.0,47.0,1600.0,square4,r,0.0006,3,S,3.0
S3,31.0,37.0,53.0,49.0,56.0,56.0,1656.0,square4,r,0.2158,3,S,3.0
S3,32.0,42.0,50.0,43.0,58.0,58.0,1714.0,square4,r,0.0681,3,S,3.0
S3,33.0,44.0,49.0,46.0,59.0,59.0,1773.0,square4,r,0.2658,3,S,3.0
S3,34.0,42.0,50.0,50.0,58.0,58.0,1831.0,square4,r,0.0751,3,S,3.0
S3,35.0,43.0,46.0,45.0,50.0,50.0,1881.0,square4,r,0.119,3,S,3.0
S3,36.0,46.0,52.0,50.0,48.0,48.0,1929.0,square4,r,0.2062,3,S,3.0
S3,37.0,48.0,50.0,49.0,52.0,52.0,1981.0,square4,r,0.1733,3,S,3.0
S3,38.0,39.0,43.0,50.0,55.0,55.0,2036.0,square4,r,0.2166,3,S,3.0
S3,39.0,50.0,53.0,46.0,57.0,57.0,2093.0,square4,r,0.1058,3,S,3.0
S3,40.0,41.0,46.0,48.0,55.0,55.0,2148.0,square4,r,0.0262,3,S,3.0
S3,41.0,49.0,49.0,40.0,56.0,56.0,2204.0,square4,r,0.0945,3,S,3.0
S3,42.0,47.0,49.0,43.0,48.0,48.0,2252.0,square4,r,0.4825,3,S,3.0
S3,43.0,46.0,43.0,41.0,58.0,58.0,2310.0,square4,r,0.0005,3,S,3.0
S3,44.0,46.0,52.0,51.0,55.0,55.0,2365.0,square4,r,0.1891,3,S,3.0
S3,45.0,46.0,41.0,46.0,49.0,49.0,2414.0,square4,r,0.0549,3,S,3.0
S3,46.0,32.0,56.0,40.0,50.0,50.0,2464.0,square4,r,0.3261,3,S,3.0
S3,47.0,42.0,49.0,44.0,51.0,51.0,2515.0,square4,r,0.1493,3,S,3.0
S3,48.0,36.0,45.0,38.0,50.0,50.0,2565.0,square4,r,0.0006,3,S,3.0
S3,49.0,45.0,48.0,47.0,52.0,52.0,2617.0,square4,r,0.1343,3,S,3.0
S7,0.0,68.0,73.0,62.0,57.0,73.0,73.0,square2,r,0.7368,1,S,7.0
S7,1.0,74.0,67.0,66.0,59.0,74.0,147.0,square1,f,0.1183,0,S,7.0
S7,2.0,68.0,69.0,65.0,60.0,60.0,207.0,square4,j,0.0969,3,S,7.0
S7,3.0,74.0,68.0,65.0,63.0,65.0,272.0,square3,i,0.1714,2,S,7.0
S7,4.0,68.0,74.0,67.0,63.0,74.0,346.0,square2,r,0.0718,1,S,7.0
S7,5.0,68.0,67.0,61.0,57.0,68.0,414.0,square1,f,0.07,0,S,7.0
S7,6.0,72.0,64.0,65.0,51.0,72.0,486.0,square1,f,0.1436,0,S,7.0
S7,7.0,69.0,63.0,69.0,63.0,63.0,549.0,square2,r,0.0491,1,S,7.0
S7,8.0,71.0,68.0,63.0,54.0,71.0,620.0,square1,f,0.1236,0,S,7.0
S7,9.0,81.0,66.0,68.0,62.0,81.0,701.0,square1,f,0.1386,0,S,7.0
S7,10.0,72.0,73.0,68.0,61.0,72.0,773.0,square1,f,0.1243,0,S,7.0
S7,11.0,72.0,72.0,62.0,58.0,72.0,845.0,square2,r,0.0897,1,S,7.0
S7,12.0,66.0,66.0,62.0,61.0,66.0,911.0,square2,r,0.1511,1,S,7.0
S7,13.0,73.0,75.0,75.0,68.0,73.0,984.0,square1,f,0.0335,0,S,7.0
S7,14.0,71.0,73.0,72.0,66.0,71.0,1055.0,square1,f,0.0006,0,S,7.0
S7,15.0,75.0,68.0,68.0,65.0,75.0,1130.0,square1,f,0.0005,0,S,7.0
S7,16.0,67.0,65.0,62.0,56.0,67.0,1197.0,square1,f,0.1055,0,S,7.0
S7,17.0,72.0,67.0,63.0,64.0,67.0,1264.0,square2,r,0.1346,1,S,7.0
S7,18.0,73.0,69.0,66.0,65.0,69.0,1333.0,square2,r,0.1596,1,S,7.0
S7,19.0,75.0,70.0,62.0,58.0,70.0,1403.0,square2,r,0.0379,1,S,7.0
S7,20.0,76.0,63.0,67.0,62.0,63.0,1466.0,square2,r,0.0435,1,S,7.0
S7,21.0,79.0,76.0,63.0,64.0,76.0,1542.0,square2,r,0.001,1,S,7.0
S7,22.0,67.0,72.0,63.0,62.0,62.0,1604.0,square4,j,0.0769,3,S,7.0
S7,23.0,69.0,71.0,70.0,62.0,69.0,1673.0,square1,f,0.0375,0,S,7.0
S7,24.0,74.0,67.0,70.0,62.0,74.0,1747.0,square1,f,0.1175,0,S,7.0
S7,25.0,70.0,67.0,72.0,62.0,70.0,1817.0,square1,f,0.0089,0,S,7.0
S7,26.0,72.0,62.0,74.0,65.0,72.0,1889.0,square1,f,0.1719,0,S,7.0
S7,27.0,69.0,70.0,68.0,62.0,69.0,1958.0,square1,f,0.1158,0,S,7.0
S7,28.0,65.0,66.0,60.0,62.0,65.0,2023.0,square1,f,0.1888,0,S,7.0
S7,29.0,70.0,64.0,60.0,68.0,70.0,2093.0,square1,f,0.1285,0,S,7.0
S7,30.0,69.0,69.0,64.0,57.0,69.0,2162.0,square1,f,0.0387,0,S,7.0
S7,31.0,77.0,67.0,65.0,60.0,67.0,2229.0,square2,r,0.2055,1,S,7.0
S7,32.0,67.0,75.0,65.0,58.0,67.0,2296.0,square1,f,0.0099,0,S,7.0
S7,33.0,74.0,66.0,66.0,60.0,74.0,2370.0,square1,f,0.0591,0,S,7.0
S7,34.0,72.0,72.0,66.0,61.0,72.0,2442.0,square2,r,0.1221,1,S,7.0
S7,35.0,67.0,68.0,64.0,62.0,67.0,2509.0,square1,f,0.0345,0,S,7.0
S7,36.0,64.0,63.0,70.0,58.0,63.0,2572.0,square2,r,0.0006,1,S,7.0
S7,37.0,80.0,72.0,64.0,53.0,80.0,2652.0,square1,f,0.1218,0,S,7.0
S7,38.0,78.0,69.0,76.0,67.0,78.0,2730.0,square1,f,0.1515,0,S,7.0
S7,39.0,69.0,66.0,60.0,67.0,69.0,2799.0,square1,f,0.0006,0,S,7.0
S7,40.0,72.0,71.0,63.0,66.0,71.0,2870.0,square2,r,0.0073,1,S,7.0
S7,41.0,80.0,73.0,65.0,63.0,80.0,2950.0,square1,f,0.0886,0,S,7.0
S7,42.0,77.0,60.0,65.0,59.0,77.0,3027.0,square1,f,0.0006,0,S,7.0
S7,43.0,70.0,72.0,70.0,63.0,70.0,3097.0,square1,f,0.0891,0,S,7.0
S7,44.0,77.0,70.0,66.0,58.0,77.0,3174.0,square1,f,0.0814,0,S,7.0
S7,45.0,75.0,69.0,73.0,58.0,75.0,3249.0,square1,f,0.1727,0,S,7.0
S7,46.0,74.0,71.0,63.0,63.0,74.0,3323.0,square1,f,0.1735,0,S,7.0
S7,47.0,73.0,75.0,71.0,64.0,73.0,3396.0,square1,f,0.168,0,S,7.0
S7,48.0,78.0,79.0,64.0,58.0,78.0,3474.0,square1,f,0.0005,0,S,7.0
S7,49.0,75.0,72.0,66.0,72.0,75.0,3549.0,square1,f,0.1217,0,S,7.0
