block,Trial,square1,square2,square3,square4,currPoints,totalPoints,square,choiceKey.keys,choiceKey.rt,armNum,blockType,blockNum
prac,0.0,100.0,0.0,0.0,0.0,99999,0.0,invalid,,,-1,p,0.0
prac,1.0,100.0,0.0,0.0,0.0,99999,0.0,invalid,,,-1,p,0.0
prac,2.0,100.0,0.0,0.0,0.0,99999,0.0,invalid,,,-1,p,0.0
prac,3.0,100.0,0.0,0.0,0.0,99999,0.0,invalid,,,-1,p,0.0
prac,4.0,100.0,0.0,0.0,0.0,99999,0.0,invalid,,,-1,p,0.0
prac,5.0,100.0,0.0,0.0,0.0,99999,0.0,invalid,,,-1,p,0.0
prac,6.0,100.0,0.0,0.0,0.0,99999,0.0,invalid,,,-1,p,0.0
prac,7.0,100.0,0.0,0.0,0.0,99999,0.0,invalid,,,-1,p,0.0
prac,8.0,100.0,0.0,0.0,0.0,99999,0.0,invalid,,,-1,p,0.0
prac,9.0,100.0,0.0,0.0,0.0,99999,0.0,invalid,,,-1,p,0.0
V7,0.0,86.0,61.0,78.0,68.0,99999,0.0,invalid,,,-1,V,7.0
V7,1.0,95.0,62.0,79.0,70.0,99999,0.0,invalid,,,-1,V,7.0
V7,2.0,89.0,67.0,81.0,77.0,99999,0.0,invalid,,,-1,V,7.0
V7,3.0,90.0,56.0,85.0,72.0,99999,0.0,invalid,,,-1,V,7.0
V7,4.0,91.0,65.0,77.0,71.0,99999,0.0,invalid,,,-1,V,7.0
V7,5.0,91.0,58.0,84.0,72.0,99999,0.0,invalid,,,-1,V,7.0
V7,6.0,94.0,65.0,87.0,72.0,99999,0.0,invalid,,,-1,V,7.0
V7,7.0,89.0,67.0,79.0,67.0,99999,0.0,invalid,,,-1,V,7.0
V7,8.0,91.0,65.0,84.0,68.0,99999,0.0,invalid,,,-1,V,7.0
V7,9.0,92.0,60.0,87.0,69.0,99999,0.0,invalid,,,-1,V,7.0
V7,10.0,90.0,67.0,81.0,76.0,99999,0.0,invalid,,,-1,V,7.0
V7,11.0,86.0,67.0,83.0,73.0,99999,0.0,invalid,,,-1,V,7.0
V7,12.0,90.0,62.0,80.0,72.0,99999,0.0,invalid,,,-1,V,7.0
V7,13.0,84.0,60.0,88.0,71.0,99999,0.0,invalid,,,-1,V,7.0
V7,14.0,95.0,64.0,80.0,70.0,99999,0.0,invalid,,,-1,V,7.0
V7,15.0,86.0,60.0,81.0,70.0,99999,0.0,invalid,,,-1,V,7.0
V7,16.0,85.0,65.0,77.0,69.0,99999,0.0,invalid,,,-1,V,7.0
V7,17.0,91.0,65.0,81.0,70.0,99999,0.0,invalid,,,-1,V,7.0
V7,18.0,95.0,61.0,81.0,76.0,99999,0.0,invalid,,,-1,V,7.0
V7,19.0,90.0,58.0,79.0,72.0,99999,0.0,invalid,,,-1,V,7.0
V7,20.0,94.0,68.0,80.0,79.0,99999,0.0,invalid,,,-1,V,7.0
V7,21.0,92.0,66.0,82.0,70.0,99999,0.0,invalid,,,-1,V,7.0
V7,22.0,92.0,64.0,83.0,72.0,99999,0.0,invalid,,,-1,V,7.0
V7,23.0,91.0,68.0,82.0,73.0,99999,0.0,invalid,,,-1,V,7.0
V7,24.0,87.0,71.0,82.0,72.0,99999,0.0,invalid,,,-1,V,7.0
V7,25.0,91.0,68.0,90.0,74.0,99999,0.0,invalid,,,-1,V,7.0
V7,26.0,89.0,65.0,83.0,72.0,99999,0.0,invalid,,,-1,V,7.0
V7,27.0,91.0,61.0,81.0,73.0,99999,0.0,invalid,,,-1,V,7.0
V7,28.0,90.0,66.0,81.0,72.0,99999,0.0,invalid,,,-1,V,7.0
V7,29.0,89.0,67.0,77.0,71.0,99999,0.0,invalid,,,-1,V,7.0
V7,30.0,95.0,68.0,84.0,71.0,99999,0.0,invalid,,,-1,V,7.0
V7,31.0,95.0,61.0,81.0,70.0,99999,0.0,invalid,,,-1,V,7.0
V7,32.0,89.0,65.0,82.0,75.0,99999,0.0,invalid,,,-1,V,7.0
V7,33.0,77.0,50.0,80.0,61.0,99999,0.0,invalid,,,-1,V,7.0
V7,34.0,76.0,54.0,78.0,61.0,99999,0.0,invalid,,,-1,V,7.0
V7,35.0,71.0,51.0,80.0,64.0,99999,0.0,invalid,,,-1,V,7.0
V7,36.0,75.0,51.0,80.0,62.0,99999,0.0,invalid,,,-1,V,7.0
V7,37.0,73.0,58.0,86.0,63.0,99999,0.0,invalid,,,-1,V,7.0
V7,38.0,73.0,50.0,86.0,61.0,99999,0.0,invalid,,,-1,V,7.0
V7,39.0,67.0,53.0,78.0,61.0,61,61.0,square4,r,0.5751,3,V,7.0
V7,40.0,71.0,53.0,84.0,58.0,58,119.0,square4,r,0.3715,3,V,7.0
V7,41.0,75.0,51.0,83.0,63.0,63,182.0,square4,r,0.2995,3,V,7.0
V7,42.0,69.0,48.0,87.0,63.0,87,269.0,square3,j,0.3636,2,V,7.0
V7,43.0,70.0,58.0,81.0,60.0,81,350.0,square3,j,0.8973,2,V,7.0
V7,44.0,68.0,56.0,76.0,63.0,63,413.0,square4,r,0.4104,3,V,7.0
V7,45.0,74.0,59.0,76.0,56.0,56,469.0,square4,r,0.1003,3,V,7.0
V7,46.0,72.0,54.0,77.0,61.0,61,530.0,square4,r,0.056,3,V,7.0
V7,47.0,69.0,47.0,81.0,62.0,81,611.0,square3,j,0.0897,2,V,7.0
V7,48.0,75.0,52.0,81.0,57.0,81,692.0,square3,j,0.2904,2,V,7.0
V7,49.0,74.0,55.0,78.0,60.0,60,752.0,square4,r,1.0557,3,V,7.0
V7,50.0,71.0,51.0,80.0,61.0,80,832.0,square3,j,0.3243,2,V,7.0
V7,51.0,75.0,55.0,85.0,62.0,85,917.0,square3,j,0.9131,2,V,7.0
V7,52.0,75.0,59.0,76.0,59.0,59,976.0,square4,r,0.2492,3,V,7.0
V7,53.0,72.0,53.0,84.0,66.0,99999,976.0,invalid,,,-1,V,7.0
V7,54.0,69.0,51.0,81.0,60.0,81,1057.0,square3,j,0.045,2,V,7.0
V7,55.0,74.0,56.0,75.0,54.0,54,1111.0,square4,r,0.6699,3,V,7.0
V7,56.0,76.0,51.0,83.0,58.0,58,1169.0,square4,r,0.8047,3,V,7.0
V7,57.0,71.0,53.0,80.0,64.0,80,1249.0,square3,j,0.6716,2,V,7.0
V7,58.0,81.0,56.0,79.0,61.0,61,1310.0,square4,r,0.227,3,V,7.0
V7,59.0,71.0,55.0,83.0,59.0,83,1393.0,square3,j,0.3883,2,V,7.0
V7,60.0,73.0,53.0,83.0,64.0,83,1476.0,square3,j,0.2774,2,V,7.0
V7,61.0,70.0,53.0,77.0,63.0,77,1553.0,square3,j,0.2606,2,V,7.0
V7,62.0,71.0,54.0,76.0,61.0,76,1629.0,square3,j,0.1819,2,V,7.0
V7,63.0,68.0,45.0,79.0,65.0,79,1708.0,square3,j,0.0129,2,V,7.0
V7,64.0,65.0,55.0,79.0,59.0,59,1767.0,square4,r,0.2046,3,V,7.0
V7,65.0,74.0,54.0,81.0,61.0,81,1848.0,square3,j,0.2648,2,V,7.0
V7,66.0,70.0,56.0,81.0,63.0,81,1929.0,square3,j,0.1064,2,V,7.0
V7,67.0,70.0,85.0,64.0,92.0,92,2021.0,square4,r,0.7889,3,V,7.0
V7,68.0,73.0,85.0,68.0,92.0,68,2089.0,square3,j,0.2269,2,V,7.0
V7,69.0,75.0,83.0,70.0,91.0,70,2159.0,square3,j,0.5635,2,V,7.0
V7,70.0,75.0,85.0,69.0,91.0,91,2250.0,square4,r,0.888,3,V,7.0
V7,71.0,71.0,86.0,65.0,94.0,99999,2250.0,invalid,,,-1,V,7.0
V7,72.0,77.0,86.0,65.0,98.0,65,2315.0,square3,j,0.2353,2,V,7.0
V7,73.0,77.0,84.0,63.0,94.0,99999,2315.0,invalid,,,-1,V,7.0
V7,74.0,71.0,86.0,64.0,91.0,64,2379.0,square3,j,1.9623,2,V,7.0
V7,75.0,73.0,90.0,60.0,90.0,90,2469.0,square4,r,0.0007,3,V,7.0
V7,76.0,79.0,84.0,68.0,95.0,68,2537.0,square3,j,0.0779,2,V,7.0
V7,77.0,73.0,85.0,66.0,89.0,73,2610.0,square1,i,0.8542,0,V,7.0
V7,78.0,75.0,82.0,67.0,91.0,75,2685.0,square1,i,0.3218,0,V,7.0
V7,79.0,72.0,85.0,60.0,90.0,60,2745.0,square3,j,0.2554,2,V,7.0
V7,80.0,73.0,83.0,66.0,97.0,97,2842.0,square4,r,0.4217,3,V,7.0
V7,81.0,73.0,84.0,67.0,92.0,84,2926.0,square2,f,1.6217,1,V,7.0
V7,82.0,69.0,84.0,65.0,91.0,84,3010.0,square2,f,0.0271,1,V,7.0
V7,83.0,76.0,83.0,72.0,99.0,83,3093.0,square2,f,0.0896,1,V,7.0
V7,84.0,72.0,84.0,70.0,94.0,72,3165.0,square1,i,0.0653,0,V,7.0
V7,85.0,77.0,83.0,67.0,88.0,67,3232.0,square3,j,0.0438,2,V,7.0
V7,86.0,76.0,80.0,67.0,90.0,76,3308.0,square1,i,0.0888,0,V,7.0
V7,87.0,70.0,86.0,67.0,95.0,67,3375.0,square3,j,0.3274,2,V,7.0
V7,88.0,76.0,84.0,67.0,100.0,84,3459.0,square2,f,0.0272,1,V,7.0
V7,89.0,71.0,88.0,60.0,97.0,97,3556.0,square4,r,0.0561,3,V,7.0
V7,90.0,69.0,82.0,71.0,95.0,95,3651.0,square4,r,0.228,3,V,7.0
V7,91.0,80.0,84.0,65.0,92.0,84,3735.0,square2,f,0.181,1,V,7.0
V7,92.0,77.0,85.0,68.0,85.0,68,3803.0,square3,j,0.1223,2,V,7.0
V7,93.0,72.0,84.0,66.0,91.0,72,3875.0,square1,i,0.0379,0,V,7.0
V7,94.0,69.0,83.0,66.0,95.0,83,3958.0,square2,f,0.0982,1,V,7.0
V7,95.0,70.0,86.0,75.0,91.0,91,4049.0,square4,r,0.1286,3,V,7.0
V7,96.0,74.0,85.0,66.0,88.0,66,4115.0,square3,j,0.1602,2,V,7.0
V7,97.0,77.0,82.0,73.0,91.0,77,4192.0,square1,i,0.0457,0,V,7.0
V7,98.0,76.0,91.0,62.0,94.0,91,4283.0,square2,f,0.1775,1,V,7.0
V7,99.0,74.0,84.0,67.0,88.0,88,4371.0,square4,r,0.0439,3,V,7.0
V4,0.0,63.0,38.0,47.0,55.0,47,47.0,square3,r,0.8805,2,V,4.0
V4,1.0,66.0,42.0,43.0,59.0,42,89.0,square2,i,0.3112,1,V,4.0
V4,2.0,66.0,39.0,57.0,59.0,66,155.0,square1,j,0.0935,0,V,4.0
V4,3.0,66.0,37.0,51.0,59.0,59,214.0,square4,f,0.0388,3,V,4.0
V4,4.0,69.0,37.0,50.0,55.0,50,264.0,square3,r,0.1965,2,V,4.0
V4,5.0,64.0,44.0,46.0,62.0,64,328.0,square1,j,0.0237,0,V,4.0
V4,6.0,75.0,43.0,49.0,57.0,43,371.0,square2,i,0.1402,1,V,4.0
V4,7.0,62.0,41.0,52.0,59.0,59,430.0,square4,f,0.1905,3,V,4.0
V4,8.0,65.0,41.0,44.0,60.0,44,474.0,square3,r,0.1439,2,V,4.0
V4,9.0,68.0,35.0,44.0,64.0,68,542.0,square1,j,0.1237,0,V,4.0
V4,10.0,67.0,44.0,48.0,61.0,44,586.0,square2,i,0.0826,1,V,4.0
V4,11.0,61.0,40.0,48.0,56.0,61,647.0,square1,j,0.0549,0,V,4.0
V4,12.0,68.0,41.0,49.0,55.0,68,715.0,square1,j,0.1766,0,V,4.0
V4,13.0,63.0,42.0,47.0,60.0,60,775.0,square4,f,0.1891,3,V,4.0
V4,14.0,63.0,40.0,51.0,55.0,63,838.0,square1,j,0.0835,0,V,4.0
V4,15.0,62.0,41.0,52.0,62.0,62,900.0,square1,j,0.1279,0,V,4.0
V4,16.0,69.0,37.0,47.0,60.0,69,969.0,square1,j,0.0267,0,V,4.0
V4,17.0,66.0,40.0,48.0,56.0,66,1035.0,square1,j,0.0268,0,V,4.0
V4,18.0,67.0,43.0,47.0,59.0,67,1102.0,square1,j,0.1599,0,V,4.0
V4,19.0,64.0,42.0,51.0,59.0,59,1161.0,square4,f,0.0107,3,V,4.0
V4,20.0,67.0,40.0,47.0,58.0,67,1228.0,square1,j,0.1052,0,V,4.0
V4,21.0,60.0,41.0,50.0,59.0,41,1269.0,square2,i,0.0894,1,V,4.0
V4,22.0,66.0,43.0,54.0,55.0,54,1323.0,square3,r,0.0064,2,V,4.0
V4,23.0,67.0,37.0,50.0,62.0,67,1390.0,square1,j,0.0793,0,V,4.0
V4,24.0,67.0,37.0,49.0,60.0,67,1457.0,square1,j,0.1606,0,V,4.0
V4,25.0,67.0,39.0,55.0,52.0,67,1524.0,square1,j,0.0143,0,V,4.0
V4,26.0,64.0,39.0,51.0,63.0,64,1588.0,square1,j,0.0214,0,V,4.0
V4,27.0,68.0,36.0,55.0,60.0,68,1656.0,square1,j,0.0106,0,V,4.0
V4,28.0,67.0,40.0,46.0,54.0,67,1723.0,square1,j,0.1606,0,V,4.0
V4,29.0,67.0,41.0,50.0,57.0,67,1790.0,square1,j,0.0233,0,V,4.0
V4,30.0,66.0,39.0,49.0,53.0,66,1856.0,square1,j,0.0265,0,V,4.0
V4,31.0,70.0,38.0,48.0,58.0,70,1926.0,square1,j,0.0666,0,V,4.0
V4,32.0,63.0,40.0,53.0,61.0,63,1989.0,square1,j,0.1215,0,V,4.0
V4,33.0,66.0,41.0,51.0,56.0,66,2055.0,square1,j,0.0785,0,V,4.0
V4,34.0,64.0,39.0,46.0,57.0,64,2119.0,square1,j,0.1557,0,V,4.0
V4,35.0,69.0,36.0,50.0,58.0,69,2188.0,square1,j,0.1276,0,V,4.0
V4,36.0,60.0,43.0,53.0,54.0,60,2248.0,square1,j,0.1033,0,V,4.0
V4,37.0,52.0,78.0,68.0,66.0,52,2300.0,square1,j,0.0007,0,V,4.0
V4,38.0,44.0,81.0,68.0,62.0,44,2344.0,square1,j,0.116,0,V,4.0
V4,39.0,59.0,71.0,70.0,63.0,59,2403.0,square1,j,0.1287,0,V,4.0
V4,40.0,53.0,77.0,73.0,59.0,53,2456.0,square1,j,0.1712,0,V,4.0
V4,41.0,53.0,76.0,74.0,66.0,53,2509.0,square1,j,0.0372,0,V,4.0
V4,42.0,51.0,79.0,73.0,59.0,51,2560.0,square1,j,0.1275,0,V,4.0
V4,43.0,48.0,76.0,68.0,65.0,76,2636.0,square2,i,0.0006,1,V,4.0
V4,44.0,57.0,83.0,78.0,63.0,63,2699.0,square4,f,0.0728,3,V,4.0
V4,45.0,54.0,74.0,69.0,61.0,74,2773.0,square2,i,0.027,1,V,4.0
V4,46.0,53.0,85.0,66.0,62.0,66,2839.0,square3,r,0.0003,2,V,4.0
V4,47.0,56.0,83.0,68.0,57.0,83,2922.0,square2,i,0.0295,1,V,4.0
V4,48.0,49.0,74.0,73.0,59.0,74,2996.0,square2,i,0.0104,1,V,4.0
V4,49.0,54.0,74.0,70.0,60.0,74,3070.0,square2,i,0.006,1,V,4.0
V4,50.0,47.0,83.0,69.0,60.0,83,3153.0,square2,i,0.0411,1,V,4.0
V4,51.0,54.0,78.0,73.0,56.0,78,3231.0,square2,i,0.0777,1,V,4.0
V4,52.0,52.0,76.0,71.0,58.0,76,3307.0,square2,i,0.0149,1,V,4.0
V4,53.0,51.0,82.0,76.0,63.0,82,3389.0,square2,i,0.0897,1,V,4.0
V4,54.0,57.0,76.0,69.0,64.0,76,3465.0,square2,i,0.05,1,V,4.0
V4,55.0,49.0,75.0,68.0,59.0,75,3540.0,square2,i,0.0727,1,V,4.0
V4,56.0,55.0,81.0,66.0,65.0,81,3621.0,square2,i,0.2057,1,V,4.0
V4,57.0,58.0,80.0,72.0,63.0,80,3701.0,square2,i,0.095,1,V,4.0
V4,58.0,49.0,81.0,66.0,62.0,81,3782.0,square2,i,0.0565,1,V,4.0
V4,59.0,57.0,78.0,73.0,59.0,78,3860.0,square2,i,0.1951,1,V,4.0
V4,60.0,48.0,79.0,66.0,59.0,48,3908.0,square1,j,0.0887,0,V,4.0
V4,61.0,53.0,80.0,72.0,60.0,80,3988.0,square2,i,0.1403,1,V,4.0
V4,62.0,53.0,79.0,70.0,61.0,53,4041.0,square1,j,0.1306,0,V,4.0
V4,63.0,81.0,66.0,90.0,66.0,66,4107.0,square2,i,0.0808,1,V,4.0
V4,64.0,80.0,64.0,85.0,76.0,76,4183.0,square4,f,0.0113,3,V,4.0
V4,65.0,77.0,61.0,92.0,74.0,92,4275.0,square3,r,0.0951,2,V,4.0
V4,66.0,89.0,65.0,91.0,73.0,91,4366.0,square3,r,0.0612,2,V,4.0
V4,67.0,86.0,64.0,92.0,70.0,92,4458.0,square3,r,0.1736,2,V,4.0
V4,68.0,82.0,60.0,91.0,77.0,91,4549.0,square3,r,0.044,2,V,4.0
V4,69.0,78.0,69.0,90.0,70.0,90,4639.0,square3,r,0.0103,2,V,4.0
V4,70.0,85.0,64.0,95.0,73.0,95,4734.0,square3,r,0.0221,2,V,4.0
V4,71.0,85.0,61.0,88.0,69.0,88,4822.0,square3,r,0.0399,2,V,4.0
V4,72.0,86.0,63.0,87.0,75.0,87,4909.0,square3,r,0.1315,2,V,4.0
V4,73.0,86.0,69.0,92.0,70.0,92,5001.0,square3,r,0.0499,2,V,4.0
V4,74.0,81.0,62.0,90.0,69.0,90,5091.0,square3,r,0.1058,2,V,4.0
V4,75.0,83.0,66.0,88.0,74.0,88,5179.0,square3,r,0.106,2,V,4.0
V4,76.0,80.0,64.0,92.0,75.0,92,5271.0,square3,r,0.1113,2,V,4.0
V4,77.0,81.0,65.0,91.0,74.0,74,5345.0,square4,f,0.1904,3,V,4.0
V4,78.0,78.0,70.0,89.0,73.0,89,5434.0,square3,r,0.1043,2,V,4.0
V4,79.0,84.0,66.0,85.0,75.0,85,5519.0,square3,r,0.1454,2,V,4.0
V4,80.0,83.0,65.0,93.0,74.0,93,5612.0,square3,r,0.146,2,V,4.0
V4,81.0,86.0,59.0,91.0,74.0,91,5703.0,square3,r,0.228,2,V,4.0
V4,82.0,87.0,64.0,92.0,73.0,92,5795.0,square3,r,0.2613,2,V,4.0
V4,83.0,83.0,68.0,86.0,70.0,86,5881.0,square3,r,0.2105,2,V,4.0
V4,84.0,82.0,62.0,87.0,73.0,87,5968.0,square3,r,0.2839,2,V,4.0
V4,85.0,85.0,61.0,90.0,70.0,90,6058.0,square3,r,0.0479,2,V,4.0
V4,86.0,84.0,66.0,97.0,71.0,97,6155.0,square3,r,0.0007,2,V,4.0
V4,87.0,82.0,64.0,87.0,71.0,87,6242.0,square3,r,0.027,2,V,4.0
V4,88.0,80.0,67.0,93.0,72.0,93,6335.0,square3,r,0.2284,2,V,4.0
V4,89.0,78.0,64.0,92.0,75.0,92,6427.0,square3,r,0.2115,2,V,4.0
V4,90.0,75.0,66.0,88.0,72.0,88,6515.0,square3,r,0.2143,2,V,4.0
V4,91.0,82.0,59.0,91.0,76.0,91,6606.0,square3,r,0.4443,2,V,4.0
V4,92.0,84.0,62.0,91.0,70.0,91,6697.0,square3,r,0.2207,2,V,4.0
V4,93.0,80.0,61.0,94.0,76.0,94,6791.0,square3,r,0.0378,2,V,4.0
V4,94.0,83.0,64.0,88.0,72.0,88,6879.0,square3,r,0.0993,2,V,4.0
V4,95.0,82.0,60.0,94.0,69.0,94,6973.0,square3,r,0.078,2,V,4.0
V4,96.0,84.0,63.0,92.0,72.0,92,7065.0,square3,r,0.0889,2,V,4.0
V4,97.0,84.0,62.0,85.0,70.0,85,7150.0,square3,r,0.022,2,V,4.0
V4,98.0,81.0,64.0,93.0,72.0,93,7243.0,square3,r,0.1134,2,V,4.0
V4,99.0,80.0,61.0,92.0,75.0,92,7335.0,square3,r,0.1157,2,V,4.0
V8,0.0,49.0,55.0,64.0,74.0,74,74.0,square4,i,0.8732,3,V,8.0
V8,1.0,51.0,54.0,70.0,81.0,81,155.0,square4,i,0.1122,3,V,8.0
V8,2.0,46.0,62.0,70.0,77.0,77,232.0,square4,i,0.1039,3,V,8.0
V8,3.0,46.0,56.0,67.0,75.0,46,278.0,square1,r,1.4625,0,V,8.0
V8,4.0,50.0,59.0,67.0,83.0,59,337.0,square2,j,0.1615,1,V,8.0
V8,5.0,51.0,54.0,65.0,78.0,78,415.0,square4,i,0.0144,3,V,8.0
V8,6.0,45.0,57.0,66.0,80.0,66,481.0,square3,f,0.0762,2,V,8.0
V8,7.0,46.0,64.0,68.0,77.0,77,558.0,square4,i,0.0642,3,V,8.0
V8,8.0,50.0,57.0,66.0,73.0,73,631.0,square4,i,0.0677,3,V,8.0
V8,9.0,46.0,56.0,71.0,72.0,72,703.0,square4,i,0.0719,3,V,8.0
V8,10.0,56.0,58.0,67.0,75.0,75,778.0,square4,i,0.1159,3,V,8.0
V8,11.0,50.0,61.0,69.0,74.0,74,852.0,square4,i,0.1554,3,V,8.0
V8,12.0,59.0,59.0,69.0,77.0,77,929.0,square4,i,0.0229,3,V,8.0
V8,13.0,50.0,56.0,72.0,77.0,77,1006.0,square4,i,0.0887,3,V,8.0
V8,14.0,48.0,55.0,65.0,80.0,80,1086.0,square4,i,0.0003,3,V,8.0
V8,15.0,48.0,58.0,65.0,76.0,76,1162.0,square4,i,0.0894,3,V,8.0
V8,16.0,49.0,58.0,67.0,75.0,75,1237.0,square4,i,0.0614,3,V,8.0
V8,17.0,51.0,56.0,68.0,76.0,51,1288.0,square1,r,0.0006,0,V,8.0
V8,18.0,52.0,63.0,69.0,80.0,80,1368.0,square4,i,0.1053,3,V,8.0
V8,19.0,54.0,54.0,71.0,79.0,79,1447.0,square4,i,0.0895,3,V,8.0
V8,20.0,48.0,53.0,62.0,77.0,77,1524.0,square4,i,0.0007,3,V,8.0
V8,21.0,44.0,61.0,66.0,77.0,77,1601.0,square4,i,0.1235,3,V,8.0
V8,22.0,52.0,58.0,64.0,78.0,64,1665.0,square3,f,0.0132,2,V,8.0
V8,23.0,50.0,49.0,67.0,79.0,79,1744.0,square4,i,0.1439,3,V,8.0
V8,24.0,49.0,59.0,69.0,74.0,74,1818.0,square4,i,0.127,3,V,8.0
V8,25.0,46.0,61.0,65.0,81.0,46,1864.0,square1,r,0.0504,0,V,8.0
V8,26.0,49.0,58.0,63.0,35.0,35,1899.0,square4,i,0.173,3,V,8.0
V8,27.0,48.0,51.0,66.0,41.0,51,1950.0,square2,j,0.0217,1,V,8.0
V8,28.0,46.0,55.0,65.0,38.0,38,1988.0,square4,i,0.1111,3,V,8.0
V8,29.0,47.0,58.0,69.0,40.0,69,2057.0,square3,f,0.1785,2,V,8.0
V8,30.0,42.0,55.0,67.0,43.0,42,2099.0,square1,r,0.0905,0,V,8.0
V8,31.0,49.0,56.0,64.0,36.0,64,2163.0,square3,f,0.1179,2,V,8.0
V8,32.0,49.0,55.0,69.0,38.0,69,2232.0,square3,f,0.0353,2,V,8.0
V8,33.0,44.0,52.0,65.0,48.0,52,2284.0,square2,j,0.0008,1,V,8.0
V8,34.0,44.0,57.0,70.0,45.0,70,2354.0,square3,f,0.0636,2,V,8.0
V8,35.0,44.0,54.0,68.0,38.0,68,2422.0,square3,f,0.0731,2,V,8.0
V8,36.0,45.0,56.0,64.0,40.0,64,2486.0,square3,f,0.4131,2,V,8.0
V8,37.0,47.0,57.0,66.0,37.0,66,2552.0,square3,f,0.1448,2,V,8.0
V8,38.0,49.0,50.0,66.0,37.0,37,2589.0,square4,i,0.0219,3,V,8.0
V8,39.0,51.0,56.0,61.0,39.0,51,2640.0,square1,r,0.1066,0,V,8.0
V8,40.0,47.0,59.0,66.0,41.0,59,2699.0,square2,j,0.0104,1,V,8.0
V8,41.0,42.0,56.0,69.0,42.0,69,2768.0,square3,f,0.0607,2,V,8.0
V8,42.0,47.0,57.0,72.0,35.0,72,2840.0,square3,f,0.2235,2,V,8.0
V8,43.0,47.0,57.0,63.0,44.0,63,2903.0,square3,f,0.0728,2,V,8.0
V8,44.0,45.0,58.0,67.0,42.0,67,2970.0,square3,f,0.1536,2,V,8.0
V8,45.0,44.0,56.0,66.0,43.0,66,3036.0,square3,f,0.0949,2,V,8.0
V8,46.0,46.0,53.0,70.0,37.0,70,3106.0,square3,f,0.0941,2,V,8.0
V8,47.0,54.0,53.0,71.0,41.0,71,3177.0,square3,f,0.1447,2,V,8.0
V8,48.0,49.0,53.0,69.0,37.0,49,3226.0,square1,r,0.0005,0,V,8.0
V8,49.0,39.0,57.0,65.0,47.0,47,3273.0,square4,i,0.0006,3,V,8.0
V8,50.0,48.0,55.0,65.0,41.0,55,3328.0,square2,j,0.0102,1,V,8.0
V8,51.0,45.0,61.0,68.0,43.0,68,3396.0,square3,f,0.0938,2,V,8.0
V8,52.0,53.0,52.0,68.0,37.0,68,3464.0,square3,f,0.0268,2,V,8.0
V8,53.0,47.0,55.0,66.0,46.0,66,3530.0,square3,f,0.1384,2,V,8.0
V8,54.0,49.0,53.0,61.0,39.0,61,3591.0,square3,f,0.2301,2,V,8.0
V8,55.0,53.0,70.0,55.0,72.0,55,3646.0,square3,f,0.0435,2,V,8.0
V8,56.0,57.0,63.0,48.0,73.0,48,3694.0,square3,f,0.0222,2,V,8.0
V8,57.0,53.0,71.0,45.0,80.0,53,3747.0,square1,r,0.0734,0,V,8.0
V8,58.0,57.0,69.0,52.0,73.0,73,3820.0,square4,i,0.0776,3,V,8.0
V8,59.0,58.0,67.0,54.0,73.0,67,3887.0,square2,j,0.0278,1,V,8.0
V8,60.0,55.0,66.0,47.0,76.0,76,3963.0,square4,i,0.1452,3,V,8.0
V8,61.0,56.0,65.0,54.0,72.0,72,4035.0,square4,i,0.1266,3,V,8.0
V8,62.0,56.0,65.0,49.0,75.0,75,4110.0,square4,i,0.1365,3,V,8.0
V8,63.0,61.0,65.0,44.0,78.0,78,4188.0,square4,i,0.3216,3,V,8.0
V8,64.0,54.0,66.0,48.0,75.0,66,4254.0,square2,j,0.0007,1,V,8.0
V8,65.0,59.0,65.0,46.0,79.0,79,4333.0,square4,i,0.1618,3,V,8.0
V8,66.0,51.0,62.0,46.0,73.0,73,4406.0,square4,i,0.161,3,V,8.0
V8,67.0,60.0,70.0,45.0,76.0,76,4482.0,square4,i,0.1227,3,V,8.0
V8,68.0,63.0,64.0,47.0,73.0,73,4555.0,square4,i,0.2374,3,V,8.0
V8,69.0,58.0,66.0,43.0,77.0,77,4632.0,square4,i,0.1056,3,V,8.0
V8,70.0,59.0,65.0,49.0,73.0,73,4705.0,square4,i,0.1719,3,V,8.0
V8,71.0,60.0,64.0,49.0,79.0,79,4784.0,square4,i,0.1716,3,V,8.0
V8,72.0,96.0,68.0,78.0,67.0,67,4851.0,square4,i,0.0002,3,V,8.0
V8,73.0,96.0,68.0,79.0,64.0,64,4915.0,square4,i,0.2545,3,V,8.0
V8,74.0,92.0,67.0,81.0,62.0,62,4977.0,square4,i,0.1616,3,V,8.0
V8,75.0,96.0,72.0,83.0,62.0,62,5039.0,square4,i,0.2397,3,V,8.0
V8,76.0,94.0,70.0,77.0,57.0,70,5109.0,square2,j,0.0728,1,V,8.0
V8,77.0,91.0,68.0,81.0,59.0,68,5177.0,square2,j,0.1208,1,V,8.0
V8,78.0,90.0,73.0,80.0,63.0,73,5250.0,square2,j,0.0575,1,V,8.0
V8,79.0,90.0,73.0,83.0,61.0,83,5333.0,square3,f,0.0204,2,V,8.0
V8,80.0,95.0,75.0,81.0,66.0,81,5414.0,square3,f,0.1983,2,V,8.0
V8,81.0,92.0,72.0,81.0,57.0,81,5495.0,square3,f,0.4108,2,V,8.0
V8,82.0,91.0,71.0,80.0,61.0,80,5575.0,square3,f,0.1774,2,V,8.0
V8,83.0,90.0,66.0,83.0,62.0,83,5658.0,square3,f,0.1666,2,V,8.0
V8,84.0,93.0,67.0,87.0,65.0,87,5745.0,square3,f,0.1885,2,V,8.0
V8,85.0,85.0,70.0,80.0,62.0,80,5825.0,square3,f,0.0115,2,V,8.0
V8,86.0,84.0,72.0,85.0,62.0,85,5910.0,square3,f,0.0542,2,V,8.0
V8,87.0,91.0,68.0,82.0,65.0,91,6001.0,square1,r,0.0615,0,V,8.0
V8,88.0,93.0,67.0,83.0,61.0,93,6094.0,square1,r,0.0936,0,V,8.0
V8,89.0,95.0,68.0,78.0,66.0,95,6189.0,square1,r,0.1043,0,V,8.0
V8,90.0,91.0,73.0,80.0,60.0,91,6280.0,square1,r,0.1776,0,V,8.0
V8,91.0,93.0,68.0,81.0,64.0,93,6373.0,square1,r,0.1605,0,V,8.0
V8,92.0,90.0,75.0,82.0,67.0,90,6463.0,square1,r,0.2051,0,V,8.0
V8,93.0,92.0,70.0,82.0,66.0,92,6555.0,square1,r,0.2047,0,V,8.0
V8,94.0,90.0,71.0,78.0,63.0,90,6645.0,square1,r,0.2274,0,V,8.0
V8,95.0,88.0,65.0,78.0,63.0,88,6733.0,square1,r,0.0006,0,V,8.0
V8,96.0,89.0,72.0,85.0,62.0,89,6822.0,square1,r,0.0038,0,V,8.0
V8,97.0,92.0,72.0,77.0,67.0,92,6914.0,square1,r,0.0398,0,V,8.0
V8,98.0,86.0,63.0,82.0,62.0,86,7000.0,square1,r,0.073,0,V,8.0
V8,99.0,90.0,66.0,75.0,61.0,90,7090.0,square1,r,0.0784,0,V,8.0
S1,0.0,72.0,58.0,70.0,66.0,58,58.0,square2,f,0.0825,1,S,1.0
S1,1.0,75.0,64.0,66.0,69.0,64,122.0,square2,f,0.1532,1,S,1.0
S1,2.0,75.0,62.0,62.0,79.0,62,184.0,square2,f,0.0038,1,S,1.0
S1,3.0,68.0,62.0,63.0,69.0,62,246.0,square2,f,0.1722,1,S,1.0
S1,4.0,82.0,63.0,64.0,73.0,63,309.0,square2,f,0.1793,1,S,1.0
S1,5.0,66.0,70.0,65.0,73.0,65,374.0,square3,r,0.829,2,S,1.0
S1,6.0,73.0,65.0,62.0,65.0,62,436.0,square3,r,0.0796,2,S,1.0
S1,7.0,70.0,61.0,65.0,66.0,70,506.0,square1,i,0.9887,0,S,1.0
S1,8.0,78.0,63.0,67.0,68.0,78,584.0,square1,i,0.0716,0,S,1.0
S1,9.0,74.0,67.0,66.0,68.0,74,658.0,square1,i,0.028,0,S,1.0
S1,10.0,73.0,59.0,68.0,68.0,73,731.0,square1,i,0.0455,0,S,1.0
S1,11.0,76.0,65.0,62.0,81.0,76,807.0,square1,i,0.0882,0,S,1.0
S1,12.0,77.0,66.0,69.0,63.0,77,884.0,square1,i,0.1165,0,S,1.0
S1,13.0,75.0,63.0,68.0,73.0,75,959.0,square1,i,0.1053,0,S,1.0
S1,14.0,67.0,60.0,67.0,69.0,67,1026.0,square1,i,0.0894,0,S,1.0
S1,15.0,70.0,63.0,69.0,73.0,70,1096.0,square1,i,0.1224,0,S,1.0
S1,16.0,69.0,61.0,69.0,69.0,61,1157.0,square2,f,0.0234,1,S,1.0
S1,17.0,73.0,68.0,67.0,73.0,73,1230.0,square1,i,0.0719,0,S,1.0
S1,18.0,70.0,58.0,73.0,66.0,70,1300.0,square1,i,0.103,0,S,1.0
S1,19.0,75.0,58.0,62.0,68.0,68,1368.0,square4,j,0.0792,3,S,1.0
S1,20.0,76.0,58.0,72.0,67.0,76,1444.0,square1,i,0.0777,0,S,1.0
S1,21.0,69.0,66.0,66.0,67.0,69,1513.0,square1,i,0.0223,0,S,1.0
S1,22.0,70.0,68.0,65.0,65.0,70,1583.0,square1,i,0.0614,0,S,1.0
S1,23.0,71.0,60.0,64.0,64.0,71,1654.0,square1,i,0.0381,0,S,1.0
S1,24.0,70.0,72.0,62.0,67.0,70,1724.0,square1,i,0.0367,0,S,1.0
S1,25.0,68.0,60.0,70.0,65.0,68,1792.0,square1,i,0.0886,0,S,1.0
S1,26.0,76.0,64.0,72.0,69.0,76,1868.0,square1,i,0.1055,0,S,1.0
S1,27.0,71.0,56.0,70.0,65.0,71,1939.0,square1,i,0.0389,0,S,1.0
S1,28.0,67.0,67.0,71.0,76.0,67,2006.0,square1,i,0.0727,0,S,1.0
S1,29.0,78.0,64.0,64.0,74.0,78,2084.0,square1,i,0.0917,0,S,1.0
S1,30.0,74.0,63.0,65.0,71.0,74,2158.0,square1,i,0.0558,0,S,1.0
S1,31.0,78.0,58.0,69.0,69.0,78,2236.0,square1,i,0.0576,0,S,1.0
S1,32.0,71.0,67.0,68.0,60.0,71,2307.0,square1,i,0.0774,0,S,1.0
S1,33.0,68.0,63.0,65.0,73.0,65,2372.0,square3,r,0.057,2,S,1.0
S1,34.0,71.0,62.0,74.0,73.0,74,2446.0,square3,r,0.2221,2,S,1.0
S1,35.0,75.0,59.0,67.0,77.0,67,2513.0,square3,r,0.0474,2,S,1.0
S1,36.0,77.0,60.0,66.0,67.0,66,2579.0,square3,r,0.1604,2,S,1.0
S1,37.0,69.0,60.0,69.0,75.0,75,2654.0,square4,j,0.0437,3,S,1.0
S1,38.0,77.0,64.0,62.0,70.0,70,2724.0,square4,j,0.0901,3,S,1.0
S1,39.0,72.0,66.0,69.0,65.0,65,2789.0,square4,j,0.1563,3,S,1.0
S1,40.0,69.0,63.0,66.0,69.0,69,2858.0,square4,j,0.04,3,S,1.0
S1,41.0,72.0,62.0,70.0,70.0,70,2928.0,square4,j,0.0394,3,S,1.0
S1,42.0,78.0,60.0,63.0,62.0,62,2990.0,square4,j,0.0427,3,S,1.0
S1,43.0,71.0,62.0,67.0,73.0,62,3052.0,square2,f,0.1272,1,S,1.0
S1,44.0,75.0,63.0,69.0,73.0,75,3127.0,square1,i,0.0948,0,S,1.0
S1,45.0,66.0,60.0,68.0,73.0,66,3193.0,square1,i,0.1396,0,S,1.0
S1,46.0,74.0,67.0,69.0,71.0,74,3267.0,square1,i,0.0469,0,S,1.0
S1,47.0,71.0,66.0,68.0,70.0,71,3338.0,square1,i,0.0284,0,S,1.0
S1,48.0,72.0,75.0,71.0,77.0,72,3410.0,square1,i,0.038,0,S,1.0
S1,49.0,65.0,57.0,66.0,75.0,65,3475.0,square1,i,0.204,0,S,1.0
S9,0.0,36.0,36.0,32.0,32.0,36,36.0,square2,i,0.9681,1,S,9.0
S9,1.0,40.0,29.0,36.0,24.0,24,60.0,square4,f,0.0323,3,S,9.0
S9,2.0,31.0,43.0,22.0,29.0,22,82.0,square3,j,0.139,2,S,9.0
S9,3.0,41.0,33.0,28.0,27.0,41,123.0,square1,r,0.1105,0,S,9.0
S9,4.0,34.0,29.0,32.0,31.0,34,157.0,square1,r,0.1631,0,S,9.0
S9,5.0,41.0,32.0,22.0,29.0,41,198.0,square1,r,0.0213,0,S,9.0
S9,6.0,44.0,30.0,21.0,28.0,44,242.0,square1,r,0.0285,0,S,9.0
S9,7.0,39.0,37.0,26.0,24.0,39,281.0,square1,r,0.0555,0,S,9.0
S9,8.0,41.0,33.0,23.0,20.0,41,322.0,square1,r,0.1048,0,S,9.0
S9,9.0,30.0,35.0,24.0,27.0,30,352.0,square1,r,0.1032,0,S,9.0
S9,10.0,41.0,29.0,23.0,28.0,29,381.0,square2,i,0.1443,1,S,9.0
S9,11.0,37.0,38.0,22.0,33.0,22,403.0,square3,j,0.0006,2,S,9.0
S9,12.0,35.0,31.0,27.0,32.0,32,435.0,square4,f,0.1643,3,S,9.0
S9,13.0,38.0,37.0,30.0,29.0,30,465.0,square3,j,0.0938,2,S,9.0
S9,14.0,36.0,38.0,30.0,37.0,37,502.0,square4,f,0.0947,3,S,9.0
S9,15.0,40.0,29.0,27.0,24.0,24,526.0,square4,f,0.0608,3,S,9.0
S9,16.0,33.0,37.0,29.0,28.0,28,554.0,square4,f,0.0006,3,S,9.0
S9,17.0,41.0,32.0,36.0,31.0,31,585.0,square4,f,0.224,3,S,9.0
S9,18.0,39.0,26.0,16.0,35.0,26,611.0,square2,i,0.0801,1,S,9.0
S9,19.0,35.0,30.0,23.0,27.0,35,646.0,square1,r,0.1441,0,S,9.0
S9,20.0,39.0,34.0,23.0,29.0,39,685.0,square1,r,0.027,0,S,9.0
S9,21.0,35.0,37.0,28.0,31.0,35,720.0,square1,r,0.0612,0,S,9.0
S9,22.0,37.0,30.0,23.0,38.0,37,757.0,square1,r,0.0985,0,S,9.0
S9,23.0,37.0,34.0,27.0,34.0,37,794.0,square1,r,0.1219,0,S,9.0
S9,24.0,31.0,34.0,26.0,27.0,26,820.0,square3,j,0.6547,2,S,9.0
S9,25.0,38.0,40.0,29.0,24.0,29,849.0,square3,j,0.1109,2,S,9.0
S9,26.0,43.0,31.0,21.0,24.0,43,892.0,square1,r,0.0098,0,S,9.0
S9,27.0,30.0,31.0,23.0,28.0,30,922.0,square1,r,0.0054,0,S,9.0
S9,28.0,44.0,32.0,31.0,32.0,44,966.0,square1,r,0.0959,0,S,9.0
S9,29.0,36.0,38.0,22.0,22.0,36,1002.0,square1,r,0.1936,0,S,9.0
S9,30.0,41.0,30.0,26.0,29.0,41,1043.0,square1,r,0.1395,0,S,9.0
S9,31.0,39.0,37.0,30.0,32.0,39,1082.0,square1,r,0.1067,0,S,9.0
S9,32.0,35.0,39.0,28.0,31.0,35,1117.0,square1,r,0.1724,0,S,9.0
S9,33.0,37.0,39.0,29.0,32.0,37,1154.0,square1,r,0.0297,0,S,9.0
S9,34.0,46.0,33.0,21.0,25.0,46,1200.0,square1,r,0.211,0,S,9.0
S9,35.0,38.0,33.0,28.0,28.0,38,1238.0,square1,r,0.1733,0,S,9.0
S9,36.0,40.0,37.0,21.0,32.0,40,1278.0,square1,r,0.038,0,S,9.0
S9,37.0,38.0,43.0,23.0,37.0,43,1321.0,square2,i,0.0951,1,S,9.0
S9,38.0,36.0,31.0,29.0,29.0,31,1352.0,square2,i,0.0395,1,S,9.0
S9,39.0,41.0,29.0,26.0,28.0,29,1381.0,square2,i,0.1108,1,S,9.0
S9,40.0,32.0,36.0,26.0,28.0,32,1413.0,square1,r,0.1382,0,S,9.0
S9,41.0,40.0,37.0,35.0,28.0,28,1441.0,square4,f,0.1655,3,S,9.0
S9,42.0,43.0,32.0,26.0,37.0,26,1467.0,square3,j,0.8561,2,S,9.0
S9,43.0,40.0,31.0,23.0,31.0,40,1507.0,square1,r,0.0882,0,S,9.0
S9,44.0,42.0,38.0,24.0,40.0,38,1545.0,square2,i,0.0886,1,S,9.0
S9,45.0,36.0,35.0,30.0,33.0,36,1581.0,square1,r,0.0215,0,S,9.0
S9,46.0,38.0,30.0,33.0,26.0,33,1614.0,square3,j,0.0318,2,S,9.0
S9,47.0,39.0,37.0,25.0,26.0,39,1653.0,square1,r,0.1125,0,S,9.0
S9,48.0,36.0,35.0,26.0,27.0,36,1689.0,square1,r,0.087,0,S,9.0
S9,49.0,40.0,32.0,24.0,28.0,40,1729.0,square1,r,0.0198,0,S,9.0
S6,0.0,40.0,29.0,39.0,26.0,39,39.0,square3,i,0.9381,2,S,6.0
S6,1.0,34.0,40.0,31.0,25.0,25,64.0,square4,r,0.0646,3,S,6.0
S6,2.0,37.0,31.0,25.0,30.0,25,89.0,square3,i,0.0092,2,S,6.0
S6,3.0,39.0,37.0,30.0,27.0,39,128.0,square1,j,0.6479,0,S,6.0
S6,4.0,42.0,40.0,28.0,32.0,40,168.0,square2,f,0.1238,1,S,6.0
S6,5.0,35.0,35.0,39.0,29.0,35,203.0,square2,f,0.0942,1,S,6.0
S6,6.0,48.0,30.0,37.0,33.0,30,233.0,square2,f,0.0017,1,S,6.0
S6,7.0,47.0,34.0,31.0,29.0,34,267.0,square2,f,0.0007,1,S,6.0
S6,8.0,43.0,35.0,30.0,25.0,35,302.0,square2,f,0.0577,1,S,6.0
S6,9.0,36.0,38.0,35.0,35.0,38,340.0,square2,f,0.1285,1,S,6.0
S6,10.0,38.0,35.0,31.0,21.0,35,375.0,square2,f,0.1806,1,S,6.0
S6,11.0,30.0,36.0,31.0,20.0,36,411.0,square2,f,0.2134,1,S,6.0
S6,12.0,37.0,40.0,33.0,22.0,40,451.0,square2,f,0.185,1,S,6.0
S6,13.0,32.0,41.0,35.0,29.0,41,492.0,square2,f,0.2103,1,S,6.0
S6,14.0,41.0,29.0,30.0,32.0,29,521.0,square2,f,0.0653,1,S,6.0
S6,15.0,43.0,37.0,31.0,27.0,37,558.0,square2,f,0.1213,1,S,6.0
S6,16.0,34.0,34.0,35.0,31.0,34,592.0,square2,f,0.0021,1,S,6.0
S6,17.0,47.0,40.0,29.0,28.0,40,632.0,square2,f,0.1265,1,S,6.0
S6,18.0,37.0,38.0,34.0,35.0,35,667.0,square4,r,0.0618,3,S,6.0
S6,19.0,36.0,39.0,31.0,26.0,36,703.0,square1,j,0.0269,0,S,6.0
S6,20.0,44.0,40.0,31.0,25.0,31,734.0,square3,i,0.3271,2,S,6.0
S6,21.0,39.0,41.0,35.0,24.0,41,775.0,square2,f,0.0943,1,S,6.0
S6,22.0,41.0,38.0,41.0,31.0,38,813.0,square2,f,0.1223,1,S,6.0
S6,23.0,37.0,31.0,30.0,32.0,31,844.0,square2,f,0.113,1,S,6.0
S6,24.0,48.0,34.0,34.0,21.0,34,878.0,square2,f,0.0883,1,S,6.0
S6,25.0,42.0,45.0,26.0,29.0,45,923.0,square2,f,0.0438,1,S,6.0
S6,26.0,40.0,39.0,36.0,28.0,39,962.0,square2,f,0.0477,1,S,6.0
S6,27.0,42.0,33.0,29.0,29.0,33,995.0,square2,f,0.1288,1,S,6.0
S6,28.0,41.0,30.0,29.0,29.0,30,1025.0,square2,f,0.0946,1,S,6.0
S6,29.0,42.0,40.0,32.0,27.0,40,1065.0,square2,f,0.0471,1,S,6.0
S6,30.0,42.0,36.0,30.0,26.0,36,1101.0,square2,f,0.0183,1,S,6.0
S6,31.0,42.0,34.0,35.0,29.0,34,1135.0,square2,f,0.0435,1,S,6.0
S6,32.0,35.0,36.0,31.0,23.0,36,1171.0,square2,f,0.0555,1,S,6.0
S6,33.0,35.0,31.0,35.0,30.0,31,1202.0,square2,f,0.0709,1,S,6.0
S6,34.0,40.0,38.0,31.0,27.0,27,1229.0,square4,r,0.0546,3,S,6.0
S6,35.0,42.0,37.0,34.0,34.0,37,1266.0,square2,f,0.1034,1,S,6.0
S6,36.0,37.0,46.0,31.0,34.0,46,1312.0,square2,f,0.0022,1,S,6.0
S6,37.0,38.0,40.0,30.0,26.0,40,1352.0,square2,f,0.0706,1,S,6.0
S6,38.0,36.0,34.0,31.0,33.0,34,1386.0,square2,f,0.0952,1,S,6.0
S6,39.0,44.0,37.0,33.0,31.0,37,1423.0,square2,f,0.0699,1,S,6.0
S6,40.0,40.0,38.0,31.0,25.0,38,1461.0,square2,f,0.0437,1,S,6.0
S6,41.0,49.0,35.0,35.0,28.0,35,1496.0,square2,f,0.0601,1,S,6.0
S6,42.0,44.0,40.0,32.0,28.0,40,1536.0,square2,f,0.3464,1,S,6.0
S6,43.0,43.0,36.0,33.0,26.0,36,1572.0,square2,f,0.039,1,S,6.0
S6,44.0,38.0,33.0,34.0,26.0,38,1610.0,square1,j,0.1562,0,S,6.0
S6,45.0,32.0,35.0,30.0,28.0,30,1640.0,square3,i,0.1046,2,S,6.0
S6,46.0,38.0,36.0,34.0,30.0,38,1678.0,square1,j,0.1637,0,S,6.0
S6,47.0,44.0,35.0,32.0,31.0,35,1713.0,square2,f,0.0947,1,S,6.0
S6,48.0,40.0,40.0,31.0,33.0,40,1753.0,square1,j,0.0626,0,S,6.0
S6,49.0,41.0,29.0,29.0,29.0,41,1794.0,square1,j,0.0026,0,S,6.0
S12,0.0,38.0,42.0,30.0,42.0,42,42.0,square2,i,1.1336,1,S,12.0
S12,1.0,30.0,42.0,28.0,37.0,42,84.0,square2,i,0.1272,1,S,12.0
S12,2.0,34.0,41.0,38.0,43.0,41,125.0,square2,i,0.1557,1,S,12.0
S12,3.0,38.0,51.0,38.0,38.0,51,176.0,square2,i,0.0437,1,S,12.0
S12,4.0,32.0,37.0,33.0,45.0,45,221.0,square4,f,0.0149,3,S,12.0
S12,5.0,38.0,52.0,36.0,35.0,52,273.0,square2,i,0.0777,1,S,12.0
S12,6.0,30.0,43.0,30.0,38.0,43,316.0,square2,i,0.0028,1,S,12.0
S12,7.0,38.0,39.0,30.0,39.0,38,354.0,square1,r,0.131,0,S,12.0
S12,8.0,37.0,49.0,35.0,38.0,35,389.0,square3,j,0.8385,2,S,12.0
S12,9.0,37.0,44.0,29.0,38.0,44,433.0,square2,i,0.0734,1,S,12.0
S12,10.0,35.0,42.0,30.0,45.0,45,478.0,square4,f,0.0151,3,S,12.0
S12,11.0,34.0,45.0,36.0,32.0,45,523.0,square2,i,0.1131,1,S,12.0
S12,12.0,33.0,45.0,35.0,42.0,45,568.0,square2,i,0.0776,1,S,12.0
S12,13.0,36.0,36.0,29.0,40.0,36,604.0,square2,i,0.0543,1,S,12.0
S12,14.0,36.0,49.0,32.0,42.0,49,653.0,square2,i,0.1219,1,S,12.0
S12,15.0,35.0,43.0,35.0,46.0,43,696.0,square2,i,0.0553,1,S,12.0
S12,16.0,39.0,48.0,41.0,43.0,48,744.0,square2,i,0.0614,1,S,12.0
S12,17.0,35.0,47.0,27.0,38.0,47,791.0,square2,i,0.1845,1,S,12.0
S12,18.0,37.0,51.0,33.0,33.0,51,842.0,square2,i,0.1461,1,S,12.0
S12,19.0,41.0,42.0,33.0,36.0,42,884.0,square2,i,0.2107,1,S,12.0
S12,20.0,34.0,44.0,26.0,41.0,44,928.0,square2,i,0.0594,1,S,12.0
S12,21.0,35.0,37.0,29.0,35.0,37,965.0,square2,i,0.1771,1,S,12.0
S12,22.0,37.0,48.0,31.0,41.0,48,1013.0,square2,i,0.1781,1,S,12.0
S12,23.0,36.0,43.0,27.0,45.0,43,1056.0,square2,i,0.0062,1,S,12.0
S12,24.0,39.0,48.0,38.0,38.0,48,1104.0,square2,i,0.1382,1,S,12.0
S12,25.0,31.0,43.0,30.0,40.0,43,1147.0,square2,i,0.128,1,S,12.0
S12,26.0,35.0,48.0,34.0,33.0,48,1195.0,square2,i,0.0077,1,S,12.0
S12,27.0,46.0,46.0,28.0,38.0,46,1241.0,square2,i,0.0626,1,S,12.0
S12,28.0,32.0,37.0,32.0,40.0,37,1278.0,square2,i,0.0621,1,S,12.0
S12,29.0,38.0,41.0,32.0,44.0,41,1319.0,square2,i,0.0348,1,S,12.0
S12,30.0,32.0,48.0,29.0,42.0,48,1367.0,square2,i,0.0908,1,S,12.0
S12,31.0,34.0,46.0,30.0,42.0,46,1413.0,square2,i,0.0721,1,S,12.0
S12,32.0,39.0,43.0,41.0,40.0,43,1456.0,square2,i,0.1459,1,S,12.0
S12,33.0,36.0,47.0,33.0,46.0,47,1503.0,square2,i,0.105,1,S,12.0
S12,34.0,36.0,41.0,34.0,41.0,41,1544.0,square4,f,0.1728,3,S,12.0
S12,35.0,34.0,42.0,31.0,43.0,42,1586.0,square2,i,0.0731,1,S,12.0
S12,36.0,39.0,43.0,26.0,33.0,43,1629.0,square2,i,0.0894,1,S,12.0
S12,37.0,39.0,49.0,30.0,42.0,49,1678.0,square2,i,0.1548,1,S,12.0
S12,38.0,33.0,47.0,36.0,41.0,47,1725.0,square2,i,1.0785,1,S,12.0
S12,39.0,29.0,46.0,35.0,36.0,29,1754.0,square1,r,0.0946,0,S,12.0
S12,40.0,39.0,39.0,29.0,36.0,39,1793.0,square2,i,0.1112,1,S,12.0
S12,41.0,33.0,44.0,31.0,40.0,31,1824.0,square3,j,0.0831,2,S,12.0
S12,42.0,34.0,46.0,25.0,37.0,46,1870.0,square2,i,0.1342,1,S,12.0
S12,43.0,37.0,42.0,30.0,42.0,42,1912.0,square2,i,0.0726,1,S,12.0
S12,44.0,33.0,49.0,36.0,39.0,49,1961.0,square2,i,0.0602,1,S,12.0
S12,45.0,35.0,40.0,30.0,47.0,40,2001.0,square2,i,0.0945,1,S,12.0
S12,46.0,40.0,41.0,29.0,35.0,41,2042.0,square2,i,0.1054,1,S,12.0
S12,47.0,32.0,42.0,28.0,43.0,42,2084.0,square2,i,0.1275,1,S,12.0
S12,48.0,43.0,47.0,31.0,38.0,47,2131.0,square2,i,0.1453,1,S,12.0
S12,49.0,37.0,41.0,35.0,40.0,41,2172.0,square2,i,0.0096,1,S,12.0
S10,0.0,72.0,76.0,80.0,64.0,80,80.0,square3,i,0.5826,2,S,10.0
S10,1.0,76.0,75.0,74.0,65.0,74,154.0,square3,i,0.0762,2,S,10.0
S10,2.0,70.0,72.0,79.0,74.0,70,224.0,square1,f,0.1553,0,S,10.0
S10,3.0,69.0,77.0,76.0,68.0,76,300.0,square3,i,0.0179,2,S,10.0
S10,4.0,72.0,79.0,77.0,70.0,79,379.0,square2,r,0.0326,1,S,10.0
S10,5.0,68.0,74.0,72.0,64.0,74,453.0,square2,r,0.1435,1,S,10.0
S10,6.0,70.0,77.0,72.0,62.0,62,515.0,square4,j,1.0606,3,S,10.0
S10,7.0,78.0,81.0,80.0,74.0,81,596.0,square2,r,0.1817,1,S,10.0
S10,8.0,78.0,78.0,82.0,66.0,78,674.0,square2,r,0.1728,1,S,10.0
S10,9.0,69.0,76.0,77.0,65.0,76,750.0,square2,r,0.2064,1,S,10.0
S10,10.0,72.0,78.0,72.0,75.0,78,828.0,square2,r,0.0876,1,S,10.0
S10,11.0,71.0,76.0,78.0,66.0,78,906.0,square3,i,0.098,2,S,10.0
S10,12.0,73.0,83.0,79.0,69.0,79,985.0,square3,i,0.0962,2,S,10.0
S10,13.0,68.0,77.0,65.0,65.0,65,1050.0,square3,i,0.0853,2,S,10.0
S10,14.0,69.0,84.0,79.0,65.0,84,1134.0,square2,r,0.0776,1,S,10.0
S10,15.0,72.0,84.0,70.0,71.0,84,1218.0,square2,r,0.1897,1,S,10.0
S10,16.0,79.0,80.0,82.0,67.0,80,1298.0,square2,r,0.0779,1,S,10.0
S10,17.0,69.0,83.0,75.0,70.0,83,1381.0,square2,r,0.102,1,S,10.0
S10,18.0,69.0,75.0,69.0,68.0,75,1456.0,square2,r,0.1468,1,S,10.0
S10,19.0,70.0,83.0,73.0,66.0,83,1539.0,square2,r,0.1106,1,S,10.0
S10,20.0,69.0,83.0,75.0,66.0,83,1622.0,square2,r,0.0964,1,S,10.0
S10,21.0,77.0,70.0,75.0,70.0,70,1692.0,square2,r,0.2263,1,S,10.0
S10,22.0,73.0,77.0,81.0,69.0,77,1769.0,square2,r,0.1055,1,S,10.0
S10,23.0,73.0,78.0,70.0,65.0,78,1847.0,square2,r,0.1029,1,S,10.0
S10,24.0,70.0,80.0,75.0,66.0,80,1927.0,square2,r,0.1899,1,S,10.0
S10,25.0,70.0,80.0,73.0,72.0,80,2007.0,square2,r,0.0944,1,S,10.0
S10,26.0,73.0,75.0,73.0,75.0,75,2082.0,square2,r,0.1324,1,S,10.0
S10,27.0,77.0,81.0,83.0,66.0,81,2163.0,square2,r,0.0615,1,S,10.0
S10,28.0,73.0,79.0,79.0,73.0,79,2242.0,square2,r,0.1105,1,S,10.0
S10,29.0,73.0,79.0,72.0,69.0,79,2321.0,square2,r,0.1629,1,S,10.0
S10,30.0,71.0,85.0,79.0,69.0,85,2406.0,square2,r,0.0072,1,S,10.0
S10,31.0,71.0,85.0,83.0,66.0,85,2491.0,square2,r,0.1127,1,S,10.0
S10,32.0,78.0,79.0,77.0,65.0,79,2570.0,square2,r,0.0973,1,S,10.0
S10,33.0,83.0,79.0,72.0,68.0,79,2649.0,square2,r,0.1659,1,S,10.0
S10,34.0,68.0,74.0,79.0,72.0,74,2723.0,square2,r,0.0722,1,S,10.0
S10,35.0,70.0,83.0,79.0,67.0,83,2806.0,square2,r,0.0437,1,S,10.0
S10,36.0,67.0,76.0,75.0,72.0,67,2873.0,square1,f,0.0884,0,S,10.0
S10,37.0,76.0,82.0,79.0,60.0,82,2955.0,square2,r,0.148,1,S,10.0
S10,38.0,72.0,75.0,69.0,68.0,75,3030.0,square2,r,0.0489,1,S,10.0
S10,39.0,73.0,78.0,76.0,70.0,78,3108.0,square2,r,0.1059,1,S,10.0
S10,40.0,76.0,77.0,66.0,60.0,77,3185.0,square2,r,0.1152,1,S,10.0
S10,41.0,74.0,83.0,73.0,67.0,83,3268.0,square2,r,0.1719,1,S,10.0
S10,42.0,72.0,69.0,80.0,63.0,69,3337.0,square2,r,0.0007,1,S,10.0
S10,43.0,69.0,74.0,72.0,68.0,74,3411.0,square2,r,0.1799,1,S,10.0
S10,44.0,67.0,76.0,70.0,65.0,76,3487.0,square2,r,0.1798,1,S,10.0
S10,45.0,76.0,81.0,74.0,72.0,81,3568.0,square2,r,0.0005,1,S,10.0
S10,46.0,76.0,79.0,76.0,66.0,79,3647.0,square2,r,0.162,1,S,10.0
S10,47.0,67.0,81.0,84.0,60.0,81,3728.0,square2,r,0.1884,1,S,10.0
S10,48.0,73.0,83.0,75.0,66.0,83,3811.0,square2,r,0.0289,1,S,10.0
S10,49.0,66.0,77.0,74.0,71.0,77,3888.0,square2,r,0.1729,1,S,10.0
S4,0.0,18.0,16.0,34.0,20.0,20,20.0,square4,r,0.3383,3,S,4.0
S4,1.0,33.0,26.0,26.0,23.0,33,53.0,square1,i,0.0714,0,S,4.0
S4,2.0,35.0,15.0,33.0,22.0,15,68.0,square2,f,0.1537,1,S,4.0
S4,3.0,28.0,19.0,27.0,27.0,27,95.0,square3,j,0.002,2,S,4.0
S4,4.0,27.0,16.0,25.0,28.0,27,122.0,square1,i,0.0205,0,S,4.0
S4,5.0,23.0,22.0,31.0,24.0,23,145.0,square1,i,0.1218,0,S,4.0
S4,6.0,25.0,20.0,34.0,23.0,25,170.0,square1,i,0.0006,0,S,4.0
S4,7.0,21.0,22.0,30.0,21.0,30,200.0,square3,j,0.3576,2,S,4.0
S4,8.0,33.0,24.0,33.0,17.0,33,233.0,square3,j,0.0604,2,S,4.0
S4,9.0,24.0,18.0,31.0,28.0,31,264.0,square3,j,0.065,2,S,4.0
S4,10.0,31.0,26.0,35.0,20.0,35,299.0,square3,j,0.0607,2,S,4.0
S4,11.0,25.0,15.0,31.0,25.0,31,330.0,square3,j,0.0891,2,S,4.0
S4,12.0,24.0,16.0,29.0,22.0,29,359.0,square3,j,0.1271,2,S,4.0
S4,13.0,28.0,23.0,25.0,17.0,25,384.0,square3,j,0.0867,2,S,4.0
S4,14.0,22.0,23.0,21.0,23.0,21,405.0,square3,j,0.1474,2,S,4.0
S4,15.0,25.0,19.0,28.0,25.0,25,430.0,square4,r,0.2103,3,S,4.0
S4,16.0,26.0,17.0,30.0,21.0,26,456.0,square1,i,0.1387,0,S,4.0
S4,17.0,22.0,21.0,29.0,22.0,21,477.0,square2,f,0.1323,1,S,4.0
S4,18.0,28.0,22.0,32.0,22.0,22,499.0,square4,r,0.0018,3,S,4.0
S4,19.0,26.0,19.0,31.0,26.0,26,525.0,square1,i,0.0074,0,S,4.0
S4,20.0,28.0,18.0,28.0,25.0,28,553.0,square3,j,0.1435,2,S,4.0
S4,21.0,33.0,26.0,21.0,29.0,21,574.0,square3,j,0.0607,2,S,4.0
S4,22.0,31.0,19.0,29.0,20.0,29,603.0,square3,j,0.0095,2,S,4.0
S4,23.0,27.0,21.0,36.0,26.0,36,639.0,square3,j,0.0771,2,S,4.0
S4,24.0,28.0,15.0,32.0,21.0,32,671.0,square3,j,0.1717,2,S,4.0
S4,25.0,27.0,18.0,28.0,25.0,28,699.0,square3,j,0.0005,2,S,4.0
S4,26.0,26.0,20.0,27.0,14.0,27,726.0,square3,j,0.1282,2,S,4.0
S4,27.0,28.0,19.0,36.0,18.0,36,762.0,square3,j,0.0018,2,S,4.0
S4,28.0,28.0,19.0,28.0,23.0,28,790.0,square3,j,0.2131,2,S,4.0
S4,29.0,25.0,22.0,29.0,23.0,29,819.0,square3,j,0.0356,2,S,4.0
S4,30.0,26.0,16.0,30.0,20.0,30,849.0,square3,j,0.0273,2,S,4.0
S4,31.0,23.0,25.0,26.0,30.0,26,875.0,square3,j,0.0453,2,S,4.0
S4,32.0,21.0,26.0,22.0,23.0,22,897.0,square3,j,0.0386,2,S,4.0
S4,33.0,25.0,22.0,24.0,17.0,24,921.0,square3,j,0.0006,2,S,4.0
S4,34.0,30.0,22.0,33.0,24.0,33,954.0,square3,j,0.0621,2,S,4.0
S4,35.0,23.0,21.0,35.0,26.0,35,989.0,square3,j,0.1231,2,S,4.0
S4,36.0,19.0,21.0,33.0,24.0,33,1022.0,square3,j,0.0692,2,S,4.0
S4,37.0,20.0,17.0,26.0,26.0,26,1048.0,square3,j,0.061,2,S,4.0
S4,38.0,28.0,20.0,28.0,26.0,28,1076.0,square3,j,0.0898,2,S,4.0
S4,39.0,28.0,23.0,40.0,27.0,40,1116.0,square3,j,0.0211,2,S,4.0
S4,40.0,25.0,24.0,32.0,22.0,32,1148.0,square3,j,0.0703,2,S,4.0
S4,41.0,23.0,23.0,26.0,17.0,26,1174.0,square3,j,0.044,2,S,4.0
S4,42.0,26.0,18.0,33.0,22.0,33,1207.0,square3,j,0.0902,2,S,4.0
S4,43.0,22.0,21.0,36.0,25.0,36,1243.0,square3,j,0.0991,2,S,4.0
S4,44.0,21.0,18.0,33.0,14.0,33,1276.0,square3,j,0.0726,2,S,4.0
S4,45.0,29.0,19.0,30.0,29.0,30,1306.0,square3,j,0.0548,2,S,4.0
S4,46.0,21.0,16.0,22.0,23.0,21,1327.0,square1,i,0.1707,0,S,4.0
S4,47.0,22.0,18.0,28.0,22.0,28,1355.0,square3,j,0.0388,2,S,4.0
S4,48.0,33.0,21.0,32.0,26.0,32,1387.0,square3,j,0.1718,2,S,4.0
S4,49.0,23.0,17.0,20.0,21.0,20,1407.0,square3,j,0.1716,2,S,4.0
