block,Trial,square1,square2,square3,square4,currPoints,totalPoints,square,choiceKey.keys,choiceKey.rt,armNum,blockType,blockNum
prac,0.0,100.0,0.0,0.0,0.0,99999,0.0,invalid,,,-1,p,0.0
prac,1.0,100.0,0.0,0.0,0.0,99999,0.0,invalid,,,-1,p,0.0
prac,2.0,100.0,0.0,0.0,0.0,99999,0.0,invalid,,,-1,p,0.0
prac,3.0,100.0,0.0,0.0,0.0,99999,0.0,invalid,,,-1,p,0.0
prac,4.0,100.0,0.0,0.0,0.0,99999,0.0,invalid,,,-1,p,0.0
prac,5.0,100.0,0.0,0.0,0.0,99999,0.0,invalid,,,-1,p,0.0
prac,6.0,100.0,0.0,0.0,0.0,99999,0.0,invalid,,,-1,p,0.0
prac,7.0,100.0,0.0,0.0,0.0,99999,0.0,invalid,,,-1,p,0.0
prac,8.0,100.0,0.0,0.0,0.0,99999,0.0,invalid,,,-1,p,0.0
prac,9.0,100.0,0.0,0.0,0.0,99999,0.0,invalid,,,-1,p,0.0
V1,0.0,46.0,61.0,52.0,71.0,52,52.0,square3,r,0.7636,2,V,1.0
V1,1.0,45.0,63.0,54.0,78.0,78,130.0,square4,i,1.3903,3,V,1.0
V1,2.0,51.0,58.0,59.0,77.0,58,188.0,square2,j,0.8724,1,V,1.0
V1,3.0,53.0,65.0,56.0,75.0,53,241.0,square1,f,0.7903,0,V,1.0
V1,4.0,49.0,68.0,53.0,72.0,49,290.0,square1,f,0.5178,0,V,1.0
V1,5.0,47.0,70.0,59.0,76.0,59,349.0,square3,r,0.3895,2,V,1.0
V1,6.0,55.0,63.0,54.0,76.0,63,412.0,square2,j,1.356,1,V,1.0
V1,7.0,47.0,67.0,55.0,74.0,47,459.0,square1,f,1.0061,0,V,1.0
V1,8.0,47.0,65.0,46.0,76.0,65,524.0,square2,j,0.3249,1,V,1.0
V1,9.0,46.0,68.0,59.0,78.0,59,583.0,square3,r,0.5151,2,V,1.0
V1,10.0,58.0,67.0,58.0,79.0,79,662.0,square4,i,1.3328,3,V,1.0
V1,11.0,44.0,61.0,54.0,72.0,72,734.0,square4,i,1.0898,3,V,1.0
V1,12.0,44.0,65.0,56.0,75.0,75,809.0,square4,i,0.6901,3,V,1.0
V1,13.0,47.0,63.0,53.0,73.0,73,882.0,square4,i,0.8102,3,V,1.0
V1,14.0,49.0,66.0,56.0,75.0,75,957.0,square4,i,0.3732,3,V,1.0
V1,15.0,49.0,66.0,52.0,79.0,79,1036.0,square4,i,0.1593,3,V,1.0
V1,16.0,51.0,61.0,48.0,72.0,72,1108.0,square4,i,1.2875,3,V,1.0
V1,17.0,46.0,61.0,59.0,71.0,71,1179.0,square4,i,0.3117,3,V,1.0
V1,18.0,45.0,61.0,53.0,72.0,72,1251.0,square4,i,0.8228,3,V,1.0
V1,19.0,49.0,63.0,54.0,76.0,76,1327.0,square4,i,0.4907,3,V,1.0
V1,20.0,46.0,66.0,52.0,72.0,52,1379.0,square3,r,0.4391,2,V,1.0
V1,21.0,50.0,65.0,51.0,73.0,50,1429.0,square1,f,0.5072,0,V,1.0
V1,22.0,56.0,62.0,56.0,77.0,62,1491.0,square2,j,1.4658,1,V,1.0
V1,23.0,45.0,67.0,54.0,83.0,83,1574.0,square4,i,0.1728,3,V,1.0
V1,24.0,46.0,69.0,57.0,71.0,71,1645.0,square4,i,0.119,3,V,1.0
V1,25.0,41.0,65.0,55.0,76.0,76,1721.0,square4,i,0.3434,3,V,1.0
V1,26.0,51.0,60.0,55.0,74.0,74,1795.0,square4,i,0.1183,3,V,1.0
V1,27.0,52.0,63.0,56.0,73.0,73,1868.0,square4,i,0.1336,3,V,1.0
V1,28.0,50.0,68.0,50.0,76.0,76,1944.0,square4,i,0.1555,3,V,1.0
V1,29.0,51.0,60.0,54.0,74.0,74,2018.0,square4,i,0.1063,3,V,1.0
V1,30.0,35.0,67.0,57.0,40.0,40,2058.0,square4,i,0.0764,3,V,1.0
V1,31.0,38.0,60.0,52.0,35.0,35,2093.0,square4,i,0.2559,3,V,1.0
V1,32.0,37.0,67.0,52.0,41.0,37,2130.0,square1,f,1.3107,0,V,1.0
V1,33.0,37.0,62.0,53.0,42.0,62,2192.0,square2,j,1.7083,1,V,1.0
V1,34.0,35.0,58.0,54.0,43.0,58,2250.0,square2,j,0.1067,1,V,1.0
V1,35.0,40.0,60.0,50.0,44.0,60,2310.0,square2,j,0.1716,1,V,1.0
V1,36.0,39.0,66.0,50.0,39.0,50,2360.0,square3,r,0.3714,2,V,1.0
V1,37.0,32.0,59.0,54.0,38.0,38,2398.0,square4,i,0.5023,3,V,1.0
V1,38.0,32.0,64.0,50.0,39.0,64,2462.0,square2,j,0.6634,1,V,1.0
V1,39.0,37.0,60.0,45.0,40.0,60,2522.0,square2,j,0.0691,1,V,1.0
V1,40.0,35.0,61.0,54.0,43.0,61,2583.0,square2,j,0.0692,1,V,1.0
V1,41.0,33.0,62.0,49.0,42.0,62,2645.0,square2,j,0.2021,1,V,1.0
V1,42.0,31.0,70.0,52.0,42.0,70,2715.0,square2,j,0.2185,1,V,1.0
V1,43.0,37.0,59.0,48.0,41.0,59,2774.0,square2,j,0.1934,1,V,1.0
V1,44.0,39.0,63.0,53.0,44.0,63,2837.0,square2,j,0.0411,1,V,1.0
V1,45.0,37.0,62.0,48.0,41.0,62,2899.0,square2,j,0.2194,1,V,1.0
V1,46.0,34.0,65.0,52.0,39.0,65,2964.0,square2,j,0.161,1,V,1.0
V1,47.0,42.0,59.0,52.0,43.0,59,3023.0,square2,j,0.0072,1,V,1.0
V1,48.0,39.0,62.0,50.0,38.0,62,3085.0,square2,j,0.2361,1,V,1.0
V1,49.0,33.0,63.0,49.0,40.0,63,3148.0,square2,j,0.0008,1,V,1.0
V1,50.0,38.0,66.0,54.0,37.0,66,3214.0,square2,j,0.0557,1,V,1.0
V1,51.0,33.0,66.0,50.0,37.0,66,3280.0,square2,j,0.2414,1,V,1.0
V1,52.0,41.0,65.0,55.0,44.0,65,3345.0,square2,j,0.1098,1,V,1.0
V1,53.0,75.0,50.0,46.0,60.0,50,3395.0,square2,j,0.1515,1,V,1.0
V1,54.0,74.0,53.0,45.0,61.0,53,3448.0,square2,j,0.1737,1,V,1.0
V1,55.0,74.0,54.0,43.0,65.0,54,3502.0,square2,j,0.2133,1,V,1.0
V1,56.0,73.0,54.0,44.0,56.0,54,3556.0,square2,j,0.0009,1,V,1.0
V1,57.0,67.0,58.0,52.0,63.0,58,3614.0,square2,j,0.2759,1,V,1.0
V1,58.0,72.0,51.0,43.0,62.0,51,3665.0,square2,j,0.0576,1,V,1.0
V1,59.0,68.0,47.0,49.0,56.0,47,3712.0,square2,j,0.0576,1,V,1.0
V1,60.0,72.0,55.0,46.0,65.0,55,3767.0,square2,j,0.3431,1,V,1.0
V1,61.0,76.0,50.0,46.0,62.0,46,3813.0,square3,r,1.3044,2,V,1.0
V1,62.0,77.0,58.0,46.0,66.0,46,3859.0,square3,r,0.0582,2,V,1.0
V1,63.0,72.0,53.0,48.0,66.0,66,3925.0,square4,i,0.0225,3,V,1.0
V1,64.0,70.0,49.0,49.0,60.0,49,3974.0,square3,r,0.1404,2,V,1.0
V1,65.0,68.0,49.0,46.0,66.0,66,4040.0,square4,i,0.0223,3,V,1.0
V1,66.0,77.0,52.0,41.0,64.0,64,4104.0,square4,i,0.1233,3,V,1.0
V1,67.0,74.0,56.0,42.0,69.0,74,4178.0,square1,f,0.7249,0,V,1.0
V1,68.0,77.0,50.0,46.0,68.0,77,4255.0,square1,f,0.0059,0,V,1.0
V1,69.0,76.0,48.0,45.0,63.0,76,4331.0,square1,f,0.134,0,V,1.0
V1,70.0,71.0,53.0,50.0,65.0,71,4402.0,square1,f,0.4274,0,V,1.0
V1,71.0,70.0,56.0,44.0,59.0,70,4472.0,square1,f,0.0568,0,V,1.0
V1,72.0,74.0,54.0,55.0,61.0,74,4546.0,square1,f,0.0929,0,V,1.0
V1,73.0,73.0,53.0,47.0,61.0,73,4619.0,square1,f,0.1092,0,V,1.0
V1,74.0,71.0,53.0,51.0,65.0,71,4690.0,square1,f,0.2529,0,V,1.0
V1,75.0,72.0,51.0,48.0,64.0,72,4762.0,square1,f,0.1839,0,V,1.0
V1,76.0,72.0,53.0,49.0,62.0,72,4834.0,square1,f,0.1868,0,V,1.0
V1,77.0,62.0,76.0,64.0,86.0,62,4896.0,square1,f,0.208,0,V,1.0
V1,78.0,61.0,74.0,63.0,87.0,61,4957.0,square1,f,0.2541,0,V,1.0
V1,79.0,56.0,78.0,67.0,89.0,89,5046.0,square4,i,1.5296,3,V,1.0
V1,80.0,59.0,75.0,63.0,84.0,84,5130.0,square4,i,0.1686,3,V,1.0
V1,81.0,63.0,74.0,68.0,82.0,82,5212.0,square4,i,0.0442,3,V,1.0
V1,82.0,59.0,75.0,67.0,80.0,80,5292.0,square4,i,0.0084,3,V,1.0
V1,83.0,58.0,77.0,63.0,82.0,82,5374.0,square4,i,0.0463,3,V,1.0
V1,84.0,57.0,76.0,64.0,87.0,87,5461.0,square4,i,0.0763,3,V,1.0
V1,85.0,61.0,73.0,66.0,83.0,83,5544.0,square4,i,0.1841,3,V,1.0
V1,86.0,60.0,71.0,66.0,85.0,85,5629.0,square4,i,0.0293,3,V,1.0
V1,87.0,61.0,80.0,73.0,84.0,84,5713.0,square4,i,0.0931,3,V,1.0
V1,88.0,67.0,77.0,67.0,85.0,85,5798.0,square4,i,0.0281,3,V,1.0
V1,89.0,60.0,79.0,63.0,86.0,86,5884.0,square4,i,0.0506,3,V,1.0
V1,90.0,60.0,74.0,66.0,88.0,88,5972.0,square4,i,0.1566,3,V,1.0
V1,91.0,57.0,81.0,61.0,79.0,79,6051.0,square4,i,0.04,3,V,1.0
V1,92.0,61.0,78.0,61.0,84.0,84,6135.0,square4,i,0.195,3,V,1.0
V1,93.0,64.0,72.0,69.0,83.0,83,6218.0,square4,i,0.1567,3,V,1.0
V1,94.0,64.0,73.0,68.0,83.0,83,6301.0,square4,i,0.0113,3,V,1.0
V1,95.0,61.0,69.0,68.0,87.0,87,6388.0,square4,i,0.0477,3,V,1.0
V1,96.0,55.0,77.0,65.0,88.0,88,6476.0,square4,i,0.1231,3,V,1.0
V1,97.0,61.0,75.0,63.0,82.0,82,6558.0,square4,i,0.0611,3,V,1.0
V1,98.0,59.0,71.0,66.0,82.0,82,6640.0,square4,i,0.1555,3,V,1.0
V1,99.0,61.0,69.0,67.0,84.0,84,6724.0,square4,i,0.4219,3,V,1.0
V4,0.0,63.0,38.0,47.0,55.0,38,38.0,square2,r,1.5355,1,V,4.0
V4,1.0,66.0,42.0,43.0,59.0,66,104.0,square1,i,0.2102,0,V,4.0
V4,2.0,66.0,39.0,57.0,59.0,59,163.0,square4,j,1.7476,3,V,4.0
V4,3.0,66.0,37.0,51.0,59.0,51,214.0,square3,f,0.3917,2,V,4.0
V4,4.0,69.0,37.0,50.0,55.0,69,283.0,square1,i,0.3235,0,V,4.0
V4,5.0,64.0,44.0,46.0,62.0,64,347.0,square1,i,0.1121,0,V,4.0
V4,6.0,75.0,43.0,49.0,57.0,75,422.0,square1,i,0.2062,0,V,4.0
V4,7.0,62.0,41.0,52.0,59.0,62,484.0,square1,i,0.0052,0,V,4.0
V4,8.0,65.0,41.0,44.0,60.0,65,549.0,square1,i,0.2887,0,V,4.0
V4,9.0,68.0,35.0,44.0,64.0,68,617.0,square1,i,0.0833,0,V,4.0
V4,10.0,67.0,44.0,48.0,61.0,67,684.0,square1,i,0.0927,0,V,4.0
V4,11.0,61.0,40.0,48.0,56.0,61,745.0,square1,i,0.0561,0,V,4.0
V4,12.0,68.0,41.0,49.0,55.0,68,813.0,square1,i,0.0086,0,V,4.0
V4,13.0,63.0,42.0,47.0,60.0,63,876.0,square1,i,0.1869,0,V,4.0
V4,14.0,63.0,40.0,51.0,55.0,63,939.0,square1,i,0.0337,0,V,4.0
V4,15.0,62.0,41.0,52.0,62.0,62,1001.0,square1,i,0.162,0,V,4.0
V4,16.0,69.0,37.0,47.0,60.0,69,1070.0,square1,i,0.0787,0,V,4.0
V4,17.0,66.0,40.0,48.0,56.0,66,1136.0,square1,i,0.0395,0,V,4.0
V4,18.0,67.0,43.0,47.0,59.0,67,1203.0,square1,i,0.0364,0,V,4.0
V4,19.0,64.0,42.0,51.0,59.0,64,1267.0,square1,i,0.1062,0,V,4.0
V4,20.0,67.0,40.0,47.0,58.0,67,1334.0,square1,i,0.0863,0,V,4.0
V4,21.0,60.0,41.0,50.0,59.0,60,1394.0,square1,i,0.1253,0,V,4.0
V4,22.0,66.0,43.0,54.0,55.0,66,1460.0,square1,i,0.036,0,V,4.0
V4,23.0,67.0,37.0,50.0,62.0,67,1527.0,square1,i,1.5274,0,V,4.0
V4,24.0,67.0,37.0,49.0,60.0,67,1594.0,square1,i,0.3392,0,V,4.0
V4,25.0,67.0,39.0,55.0,52.0,52,1646.0,square4,j,0.4371,3,V,4.0
V4,26.0,64.0,39.0,51.0,63.0,51,1697.0,square3,f,0.4179,2,V,4.0
V4,27.0,68.0,36.0,55.0,60.0,36,1733.0,square2,r,0.3568,1,V,4.0
V4,28.0,67.0,40.0,46.0,54.0,67,1800.0,square1,i,0.0263,0,V,4.0
V4,29.0,67.0,41.0,50.0,57.0,67,1867.0,square1,i,0.1585,0,V,4.0
V4,30.0,66.0,39.0,49.0,53.0,66,1933.0,square1,i,0.1217,0,V,4.0
V4,31.0,70.0,38.0,48.0,58.0,70,2003.0,square1,i,0.3279,0,V,4.0
V4,32.0,63.0,40.0,53.0,61.0,63,2066.0,square1,i,0.2012,0,V,4.0
V4,33.0,66.0,41.0,51.0,56.0,66,2132.0,square1,i,0.1259,0,V,4.0
V4,34.0,64.0,39.0,46.0,57.0,64,2196.0,square1,i,0.1176,0,V,4.0
V4,35.0,69.0,36.0,50.0,58.0,69,2265.0,square1,i,0.226,0,V,4.0
V4,36.0,60.0,43.0,53.0,54.0,60,2325.0,square1,i,0.342,0,V,4.0
V4,37.0,52.0,78.0,68.0,66.0,52,2377.0,square1,i,0.3342,0,V,4.0
V4,38.0,44.0,81.0,68.0,62.0,62,2439.0,square4,j,1.4265,3,V,4.0
V4,39.0,59.0,71.0,70.0,63.0,70,2509.0,square3,f,0.906,2,V,4.0
V4,40.0,53.0,77.0,73.0,59.0,77,2586.0,square2,r,0.4903,1,V,4.0
V4,41.0,53.0,76.0,74.0,66.0,76,2662.0,square2,r,0.2007,1,V,4.0
V4,42.0,51.0,79.0,73.0,59.0,79,2741.0,square2,r,0.0341,1,V,4.0
V4,43.0,48.0,76.0,68.0,65.0,76,2817.0,square2,r,0.1862,1,V,4.0
V4,44.0,57.0,83.0,78.0,63.0,83,2900.0,square2,r,0.0009,1,V,4.0
V4,45.0,54.0,74.0,69.0,61.0,74,2974.0,square2,r,0.1809,1,V,4.0
V4,46.0,53.0,85.0,66.0,62.0,85,3059.0,square2,r,0.0934,1,V,4.0
V4,47.0,56.0,83.0,68.0,57.0,83,3142.0,square2,r,0.0532,1,V,4.0
V4,48.0,49.0,74.0,73.0,59.0,74,3216.0,square2,r,0.1613,1,V,4.0
V4,49.0,54.0,74.0,70.0,60.0,74,3290.0,square2,r,0.1454,1,V,4.0
V4,50.0,47.0,83.0,69.0,60.0,83,3373.0,square2,r,0.1522,1,V,4.0
V4,51.0,54.0,78.0,73.0,56.0,78,3451.0,square2,r,0.075,1,V,4.0
V4,52.0,52.0,76.0,71.0,58.0,99999,3451.0,invalid,,,-1,V,4.0
V4,53.0,51.0,82.0,76.0,63.0,82,3533.0,square2,r,0.1123,1,V,4.0
V4,54.0,57.0,76.0,69.0,64.0,99999,3533.0,invalid,,,-1,V,4.0
V4,55.0,49.0,75.0,68.0,59.0,75,3608.0,square2,r,1.3453,1,V,4.0
V4,56.0,55.0,81.0,66.0,65.0,81,3689.0,square2,r,0.0396,1,V,4.0
V4,57.0,58.0,80.0,72.0,63.0,80,3769.0,square2,r,0.1348,1,V,4.0
V4,58.0,49.0,81.0,66.0,62.0,81,3850.0,square2,r,0.1837,1,V,4.0
V4,59.0,57.0,78.0,73.0,59.0,78,3928.0,square2,r,0.1225,1,V,4.0
V4,60.0,48.0,79.0,66.0,59.0,79,4007.0,square2,r,0.0184,1,V,4.0
V4,61.0,53.0,80.0,72.0,60.0,80,4087.0,square2,r,0.053,1,V,4.0
V4,62.0,53.0,79.0,70.0,61.0,79,4166.0,square2,r,0.0085,1,V,4.0
V4,63.0,81.0,66.0,90.0,66.0,66,4232.0,square2,r,0.0779,1,V,4.0
V4,64.0,80.0,64.0,85.0,76.0,64,4296.0,square2,r,0.8001,1,V,4.0
V4,65.0,77.0,61.0,92.0,74.0,92,4388.0,square3,f,0.1816,2,V,4.0
V4,66.0,89.0,65.0,91.0,73.0,91,4479.0,square3,f,0.0213,2,V,4.0
V4,67.0,86.0,64.0,92.0,70.0,92,4571.0,square3,f,0.1401,2,V,4.0
V4,68.0,82.0,60.0,91.0,77.0,91,4662.0,square3,f,0.2196,2,V,4.0
V4,69.0,78.0,69.0,90.0,70.0,90,4752.0,square3,f,0.0158,2,V,4.0
V4,70.0,85.0,64.0,95.0,73.0,95,4847.0,square3,f,0.1602,2,V,4.0
V4,71.0,85.0,61.0,88.0,69.0,88,4935.0,square3,f,0.1009,2,V,4.0
V4,72.0,86.0,63.0,87.0,75.0,87,5022.0,square3,f,0.1346,2,V,4.0
V4,73.0,86.0,69.0,92.0,70.0,92,5114.0,square3,f,0.0759,2,V,4.0
V4,74.0,81.0,62.0,90.0,69.0,90,5204.0,square3,f,0.0216,2,V,4.0
V4,75.0,83.0,66.0,88.0,74.0,88,5292.0,square3,f,0.1867,2,V,4.0
V4,76.0,80.0,64.0,92.0,75.0,92,5384.0,square3,f,0.0695,2,V,4.0
V4,77.0,81.0,65.0,91.0,74.0,91,5475.0,square3,f,0.0465,2,V,4.0
V4,78.0,78.0,70.0,89.0,73.0,89,5564.0,square3,f,0.0184,2,V,4.0
V4,79.0,84.0,66.0,85.0,75.0,85,5649.0,square3,f,0.1647,2,V,4.0
V4,80.0,83.0,65.0,93.0,74.0,93,5742.0,square3,f,0.0088,2,V,4.0
V4,81.0,86.0,59.0,91.0,74.0,91,5833.0,square3,f,0.178,2,V,4.0
V4,82.0,87.0,64.0,92.0,73.0,92,5925.0,square3,f,0.0508,2,V,4.0
V4,83.0,83.0,68.0,86.0,70.0,86,6011.0,square3,f,0.0356,2,V,4.0
V4,84.0,82.0,62.0,87.0,73.0,87,6098.0,square3,f,0.0924,2,V,4.0
V4,85.0,85.0,61.0,90.0,70.0,90,6188.0,square3,f,0.1011,2,V,4.0
V4,86.0,84.0,66.0,97.0,71.0,97,6285.0,square3,f,0.1852,2,V,4.0
V4,87.0,82.0,64.0,87.0,71.0,87,6372.0,square3,f,0.1441,2,V,4.0
V4,88.0,80.0,67.0,93.0,72.0,93,6465.0,square3,f,0.2089,2,V,4.0
V4,89.0,78.0,64.0,92.0,75.0,92,6557.0,square3,f,0.0429,2,V,4.0
V4,90.0,75.0,66.0,88.0,72.0,88,6645.0,square3,f,0.1911,2,V,4.0
V4,91.0,82.0,59.0,91.0,76.0,91,6736.0,square3,f,0.0034,2,V,4.0
V4,92.0,84.0,62.0,91.0,70.0,91,6827.0,square3,f,0.2076,2,V,4.0
V4,93.0,80.0,61.0,94.0,76.0,94,6921.0,square3,f,0.171,2,V,4.0
V4,94.0,83.0,64.0,88.0,72.0,88,7009.0,square3,f,0.1245,2,V,4.0
V4,95.0,82.0,60.0,94.0,69.0,94,7103.0,square3,f,0.1693,2,V,4.0
V4,96.0,84.0,63.0,92.0,72.0,92,7195.0,square3,f,0.1064,2,V,4.0
V4,97.0,84.0,62.0,85.0,70.0,85,7280.0,square3,f,0.1092,2,V,4.0
V4,98.0,81.0,64.0,93.0,72.0,93,7373.0,square3,f,0.1751,2,V,4.0
V4,99.0,80.0,61.0,92.0,75.0,92,7465.0,square3,f,0.4249,2,V,4.0
V3,0.0,62.0,45.0,70.0,53.0,70,70.0,square3,r,0.9112,2,V,3.0
V3,1.0,63.0,47.0,76.0,60.0,47,117.0,square2,i,0.4046,1,V,3.0
V3,2.0,65.0,54.0,73.0,57.0,65,182.0,square1,j,0.1896,0,V,3.0
V3,3.0,68.0,51.0,71.0,51.0,51,233.0,square4,f,0.0399,3,V,3.0
V3,4.0,61.0,49.0,75.0,53.0,61,294.0,square1,j,0.5229,0,V,3.0
V3,5.0,65.0,47.0,74.0,50.0,65,359.0,square1,j,0.001,0,V,3.0
V3,6.0,61.0,51.0,72.0,57.0,61,420.0,square1,j,0.0083,0,V,3.0
V3,7.0,67.0,49.0,75.0,55.0,67,487.0,square1,j,0.0364,0,V,3.0
V3,8.0,64.0,48.0,76.0,56.0,64,551.0,square1,j,0.1382,0,V,3.0
V3,9.0,67.0,49.0,71.0,56.0,56,607.0,square4,f,1.4351,3,V,3.0
V3,10.0,65.0,50.0,71.0,56.0,71,678.0,square3,r,0.0383,2,V,3.0
V3,11.0,63.0,43.0,78.0,58.0,43,721.0,square2,i,0.3255,1,V,3.0
V3,12.0,66.0,53.0,73.0,54.0,73,794.0,square3,r,0.0737,2,V,3.0
V3,13.0,64.0,46.0,78.0,51.0,78,872.0,square3,r,0.0858,2,V,3.0
V3,14.0,67.0,51.0,71.0,58.0,71,943.0,square3,r,0.0531,2,V,3.0
V3,15.0,61.0,50.0,73.0,54.0,73,1016.0,square3,r,0.1838,2,V,3.0
V3,16.0,64.0,52.0,74.0,54.0,74,1090.0,square3,r,0.4497,2,V,3.0
V3,17.0,61.0,48.0,74.0,55.0,74,1164.0,square3,r,0.3456,2,V,3.0
V3,18.0,65.0,50.0,70.0,59.0,70,1234.0,square3,r,0.3402,2,V,3.0
V3,19.0,64.0,52.0,76.0,56.0,52,1286.0,square2,i,0.104,1,V,3.0
V3,20.0,64.0,50.0,69.0,58.0,64,1350.0,square1,j,0.1638,0,V,3.0
V3,21.0,66.0,50.0,72.0,56.0,56,1406.0,square4,f,0.007,3,V,3.0
V3,22.0,43.0,48.0,40.0,62.0,40,1446.0,square3,r,0.0008,2,V,3.0
V3,23.0,41.0,51.0,35.0,59.0,35,1481.0,square3,r,0.1746,2,V,3.0
V3,24.0,51.0,51.0,37.0,60.0,51,1532.0,square2,i,0.5267,1,V,3.0
V3,25.0,45.0,53.0,36.0,57.0,45,1577.0,square1,j,0.0947,0,V,3.0
V3,26.0,44.0,51.0,38.0,59.0,59,1636.0,square4,f,1.3176,3,V,3.0
V3,27.0,43.0,51.0,34.0,66.0,66,1702.0,square4,f,0.1957,3,V,3.0
V3,28.0,47.0,51.0,40.0,67.0,67,1769.0,square4,f,0.0559,3,V,3.0
V3,29.0,42.0,55.0,35.0,65.0,65,1834.0,square4,f,0.1758,3,V,3.0
V3,30.0,49.0,54.0,36.0,62.0,62,1896.0,square4,f,0.0136,3,V,3.0
V3,31.0,50.0,53.0,42.0,66.0,66,1962.0,square4,f,0.1249,3,V,3.0
V3,32.0,47.0,53.0,34.0,58.0,58,2020.0,square4,f,0.109,3,V,3.0
V3,33.0,45.0,56.0,34.0,62.0,34,2054.0,square3,r,1.6891,2,V,3.0
V3,34.0,48.0,54.0,38.0,64.0,54,2108.0,square2,i,1.2725,1,V,3.0
V3,35.0,39.0,55.0,42.0,65.0,39,2147.0,square1,j,0.0592,0,V,3.0
V3,36.0,46.0,57.0,41.0,63.0,63,2210.0,square4,f,1.1243,3,V,3.0
V3,37.0,43.0,54.0,41.0,65.0,65,2275.0,square4,f,0.1446,3,V,3.0
V3,38.0,47.0,52.0,37.0,63.0,63,2338.0,square4,f,0.0008,3,V,3.0
V3,39.0,47.0,53.0,38.0,55.0,55,2393.0,square4,f,0.159,3,V,3.0
V3,40.0,41.0,54.0,39.0,64.0,64,2457.0,square4,f,0.2438,3,V,3.0
V3,41.0,48.0,52.0,38.0,64.0,64,2521.0,square4,f,1.0393,3,V,3.0
V3,42.0,45.0,50.0,34.0,63.0,63,2584.0,square4,f,0.2224,3,V,3.0
V3,43.0,44.0,50.0,34.0,62.0,62,2646.0,square4,f,0.1509,3,V,3.0
V3,44.0,47.0,55.0,39.0,65.0,65,2711.0,square4,f,0.0772,3,V,3.0
V3,45.0,45.0,55.0,31.0,63.0,63,2774.0,square4,f,0.0621,3,V,3.0
V3,46.0,42.0,52.0,38.0,64.0,64,2838.0,square4,f,0.2101,3,V,3.0
V3,47.0,44.0,53.0,37.0,55.0,55,2893.0,square4,f,0.0469,3,V,3.0
V3,48.0,44.0,49.0,37.0,58.0,58,2951.0,square4,f,0.0622,3,V,3.0
V3,49.0,48.0,58.0,35.0,54.0,54,3005.0,square4,f,0.0039,3,V,3.0
V3,50.0,42.0,28.0,30.0,52.0,52,3057.0,square4,f,0.0845,3,V,3.0
V3,51.0,46.0,29.0,32.0,51.0,51,3108.0,square4,f,0.3479,3,V,3.0
V3,52.0,37.0,20.0,36.0,50.0,50,3158.0,square4,f,0.0557,3,V,3.0
V3,53.0,44.0,22.0,34.0,55.0,55,3213.0,square4,f,0.0591,3,V,3.0
V3,54.0,37.0,27.0,26.0,50.0,50,3263.0,square4,f,0.0793,3,V,3.0
V3,55.0,41.0,21.0,39.0,53.0,39,3302.0,square3,r,0.0462,2,V,3.0
V3,56.0,40.0,20.0,38.0,51.0,20,3322.0,square2,i,1.2559,1,V,3.0
V3,57.0,44.0,28.0,31.0,57.0,44,3366.0,square1,j,0.2402,0,V,3.0
V3,58.0,46.0,20.0,28.0,49.0,49,3415.0,square4,f,1.5705,3,V,3.0
V3,59.0,44.0,24.0,30.0,55.0,55,3470.0,square4,f,0.1118,3,V,3.0
V3,60.0,42.0,29.0,29.0,51.0,51,3521.0,square4,f,0.041,3,V,3.0
V3,61.0,41.0,21.0,30.0,46.0,46,3567.0,square4,f,0.1097,3,V,3.0
V3,62.0,41.0,27.0,31.0,49.0,49,3616.0,square4,f,0.1528,3,V,3.0
V3,63.0,42.0,27.0,34.0,51.0,51,3667.0,square4,f,0.3366,3,V,3.0
V3,64.0,41.0,24.0,30.0,47.0,47,3714.0,square4,f,0.1693,3,V,3.0
V3,65.0,36.0,18.0,34.0,48.0,48,3762.0,square4,f,0.2898,3,V,3.0
V3,66.0,39.0,28.0,35.0,45.0,45,3807.0,square4,f,0.1602,3,V,3.0
V3,67.0,42.0,21.0,32.0,46.0,46,3853.0,square4,f,0.0402,3,V,3.0
V3,68.0,40.0,24.0,35.0,53.0,53,3906.0,square4,f,0.236,3,V,3.0
V3,69.0,48.0,23.0,34.0,50.0,34,3940.0,square3,r,0.024,2,V,3.0
V3,70.0,40.0,27.0,31.0,49.0,27,3967.0,square2,i,0.1999,1,V,3.0
V3,71.0,41.0,23.0,28.0,51.0,41,4008.0,square1,j,0.1565,0,V,3.0
V3,72.0,42.0,25.0,33.0,55.0,55,4063.0,square4,f,1.0112,3,V,3.0
V3,73.0,41.0,24.0,35.0,55.0,35,4098.0,square3,r,0.7602,2,V,3.0
V3,74.0,38.0,26.0,28.0,53.0,53,4151.0,square4,f,0.0471,3,V,3.0
V3,75.0,54.0,39.0,69.0,50.0,50,4201.0,square4,f,0.0935,3,V,3.0
V3,76.0,55.0,42.0,64.0,53.0,53,4254.0,square4,f,0.0161,3,V,3.0
V3,77.0,59.0,37.0,66.0,44.0,44,4298.0,square4,f,0.177,3,V,3.0
V3,78.0,58.0,38.0,60.0,46.0,46,4344.0,square4,f,0.0009,3,V,3.0
V3,79.0,54.0,35.0,66.0,49.0,99999,4344.0,invalid,,,-1,V,3.0
V3,80.0,60.0,36.0,68.0,44.0,68,4412.0,square3,r,0.3951,2,V,3.0
V3,81.0,55.0,38.0,66.0,51.0,38,4450.0,square2,i,0.9739,1,V,3.0
V3,82.0,57.0,47.0,64.0,50.0,57,4507.0,square1,j,0.1952,0,V,3.0
V3,83.0,57.0,37.0,63.0,45.0,45,4552.0,square4,f,0.8922,3,V,3.0
V3,84.0,54.0,40.0,65.0,53.0,65,4617.0,square3,r,0.007,2,V,3.0
V3,85.0,58.0,41.0,63.0,48.0,63,4680.0,square3,r,0.1933,2,V,3.0
V3,86.0,53.0,38.0,57.0,49.0,57,4737.0,square3,r,0.0009,2,V,3.0
V3,87.0,49.0,42.0,60.0,43.0,60,4797.0,square3,r,0.0901,2,V,3.0
V3,88.0,56.0,35.0,70.0,46.0,70,4867.0,square3,r,0.0468,2,V,3.0
V3,89.0,58.0,39.0,63.0,52.0,63,4930.0,square3,r,0.0105,2,V,3.0
V3,90.0,59.0,43.0,63.0,45.0,63,4993.0,square3,r,0.0055,2,V,3.0
V3,91.0,54.0,37.0,69.0,49.0,69,5062.0,square3,r,0.1059,2,V,3.0
V3,92.0,56.0,41.0,61.0,47.0,61,5123.0,square3,r,0.1429,2,V,3.0
V3,93.0,58.0,35.0,68.0,47.0,35,5158.0,square2,i,1.2301,1,V,3.0
V3,94.0,61.0,37.0,67.0,51.0,61,5219.0,square1,j,1.0,0,V,3.0
V3,95.0,57.0,32.0,64.0,47.0,47,5266.0,square4,f,0.5187,3,V,3.0
V3,96.0,53.0,38.0,63.0,48.0,63,5329.0,square3,r,0.0305,2,V,3.0
V3,97.0,57.0,44.0,71.0,50.0,71,5400.0,square3,r,0.1585,2,V,3.0
V3,98.0,56.0,39.0,70.0,47.0,70,5470.0,square3,r,0.0226,2,V,3.0
V3,99.0,62.0,40.0,67.0,49.0,67,5537.0,square3,r,0.0008,2,V,3.0
S7,0.0,68.0,73.0,62.0,57.0,99999,0.0,invalid,,,-1,S,7.0
S7,1.0,74.0,67.0,66.0,59.0,67,67.0,square2,r,0.8397,1,S,7.0
S7,2.0,68.0,69.0,65.0,60.0,60,127.0,square4,i,0.0359,3,S,7.0
S7,3.0,74.0,68.0,65.0,63.0,65,192.0,square3,j,0.9998,2,S,7.0
S7,4.0,68.0,74.0,67.0,63.0,68,260.0,square1,f,0.7904,0,S,7.0
S7,5.0,68.0,67.0,61.0,57.0,57,317.0,square4,i,0.4838,3,S,7.0
S7,6.0,72.0,64.0,65.0,51.0,65,382.0,square3,j,0.7843,2,S,7.0
S7,7.0,69.0,63.0,69.0,63.0,69,451.0,square3,j,0.1406,2,S,7.0
S7,8.0,71.0,68.0,63.0,54.0,63,514.0,square3,j,0.1069,2,S,7.0
S7,9.0,81.0,66.0,68.0,62.0,68,582.0,square3,j,0.093,2,S,7.0
S7,10.0,72.0,73.0,68.0,61.0,68,650.0,square3,j,0.1097,2,S,7.0
S7,11.0,72.0,72.0,62.0,58.0,62,712.0,square3,j,0.1173,2,S,7.0
S7,12.0,66.0,66.0,62.0,61.0,62,774.0,square3,j,0.0899,2,S,7.0
S7,13.0,73.0,75.0,75.0,68.0,75,849.0,square3,j,0.1286,2,S,7.0
S7,14.0,71.0,73.0,72.0,66.0,72,921.0,square3,j,0.1576,2,S,7.0
S7,15.0,75.0,68.0,68.0,65.0,68,989.0,square3,j,0.0007,2,S,7.0
S7,16.0,67.0,65.0,62.0,56.0,62,1051.0,square3,j,0.7191,2,S,7.0
S7,17.0,72.0,67.0,63.0,64.0,63,1114.0,square3,j,0.2425,2,S,7.0
S7,18.0,73.0,69.0,66.0,65.0,66,1180.0,square3,j,0.069,2,S,7.0
S7,19.0,75.0,70.0,62.0,58.0,58,1238.0,square4,i,0.3905,3,S,7.0
S7,20.0,76.0,63.0,67.0,62.0,63,1301.0,square2,r,0.3113,1,S,7.0
S7,21.0,79.0,76.0,63.0,64.0,76,1377.0,square2,r,0.1432,1,S,7.0
S7,22.0,67.0,72.0,63.0,62.0,72,1449.0,square2,r,0.0009,1,S,7.0
S7,23.0,69.0,71.0,70.0,62.0,71,1520.0,square2,r,0.0255,1,S,7.0
S7,24.0,74.0,67.0,70.0,62.0,67,1587.0,square2,r,0.007,1,S,7.0
S7,25.0,70.0,67.0,72.0,62.0,67,1654.0,square2,r,0.8765,1,S,7.0
S7,26.0,72.0,62.0,74.0,65.0,62,1716.0,square2,r,0.0282,1,S,7.0
S7,27.0,69.0,70.0,68.0,62.0,70,1786.0,square2,r,0.178,1,S,7.0
S7,28.0,65.0,66.0,60.0,62.0,66,1852.0,square2,r,0.3395,1,S,7.0
S7,29.0,70.0,64.0,60.0,68.0,64,1916.0,square2,r,1.5468,1,S,7.0
S7,30.0,69.0,69.0,64.0,57.0,69,1985.0,square2,r,0.3403,1,S,7.0
S7,31.0,77.0,67.0,65.0,60.0,67,2052.0,square2,r,0.3825,1,S,7.0
S7,32.0,67.0,75.0,65.0,58.0,75,2127.0,square2,r,0.273,1,S,7.0
S7,33.0,74.0,66.0,66.0,60.0,66,2193.0,square2,r,0.5863,1,S,7.0
S7,34.0,72.0,72.0,66.0,61.0,72,2265.0,square2,r,0.3197,1,S,7.0
S7,35.0,67.0,68.0,64.0,62.0,68,2333.0,square2,r,0.106,1,S,7.0
S7,36.0,64.0,63.0,70.0,58.0,63,2396.0,square2,r,0.1482,1,S,7.0
S7,37.0,80.0,72.0,64.0,53.0,72,2468.0,square2,r,0.429,1,S,7.0
S7,38.0,78.0,69.0,76.0,67.0,69,2537.0,square2,r,0.1049,1,S,7.0
S7,39.0,69.0,66.0,60.0,67.0,66,2603.0,square2,r,0.0199,1,S,7.0
S7,40.0,72.0,71.0,63.0,66.0,71,2674.0,square2,r,0.1396,1,S,7.0
S7,41.0,80.0,73.0,65.0,63.0,73,2747.0,square2,r,0.06,1,S,7.0
S7,42.0,77.0,60.0,65.0,59.0,60,2807.0,square2,r,0.0009,1,S,7.0
S7,43.0,70.0,72.0,70.0,63.0,72,2879.0,square2,r,0.0057,1,S,7.0
S7,44.0,77.0,70.0,66.0,58.0,70,2949.0,square2,r,0.0065,1,S,7.0
S7,45.0,75.0,69.0,73.0,58.0,69,3018.0,square2,r,0.0394,1,S,7.0
S7,46.0,74.0,71.0,63.0,63.0,71,3089.0,square2,r,0.0919,1,S,7.0
S7,47.0,73.0,75.0,71.0,64.0,75,3164.0,square2,r,0.1524,1,S,7.0
S7,48.0,78.0,79.0,64.0,58.0,79,3243.0,square2,r,0.2512,1,S,7.0
S7,49.0,75.0,72.0,66.0,72.0,99999,3243.0,invalid,,,-1,S,7.0
S2,0.0,62.0,57.0,71.0,74.0,99999,0.0,invalid,,,-1,S,2.0
S2,1.0,64.0,59.0,72.0,67.0,67,67.0,square4,r,0.2447,3,S,2.0
S2,2.0,68.0,57.0,75.0,68.0,75,142.0,square3,i,0.6237,2,S,2.0
S2,3.0,69.0,57.0,80.0,70.0,80,222.0,square3,i,0.3335,2,S,2.0
S2,4.0,66.0,60.0,74.0,68.0,74,296.0,square3,i,0.1182,2,S,2.0
S2,5.0,63.0,62.0,77.0,72.0,77,373.0,square3,i,0.1301,2,S,2.0
S2,6.0,69.0,61.0,75.0,74.0,75,448.0,square3,i,0.0732,2,S,2.0
S2,7.0,74.0,66.0,79.0,72.0,79,527.0,square3,i,0.0882,2,S,2.0
S2,8.0,81.0,65.0,76.0,72.0,76,603.0,square3,i,0.1106,2,S,2.0
S2,9.0,70.0,66.0,78.0,70.0,78,681.0,square3,i,0.0092,2,S,2.0
S2,10.0,70.0,72.0,70.0,74.0,70,751.0,square3,i,0.173,2,S,2.0
S2,11.0,64.0,66.0,72.0,67.0,72,823.0,square3,i,0.0959,2,S,2.0
S2,12.0,66.0,57.0,70.0,67.0,70,893.0,square3,i,0.1136,2,S,2.0
S2,13.0,68.0,68.0,71.0,73.0,71,964.0,square3,i,0.0148,2,S,2.0
S2,14.0,70.0,63.0,77.0,71.0,77,1041.0,square3,i,0.0187,2,S,2.0
S2,15.0,64.0,66.0,75.0,66.0,75,1116.0,square3,i,0.1896,2,S,2.0
S2,16.0,67.0,61.0,73.0,70.0,73,1189.0,square3,i,0.1085,2,S,2.0
S2,17.0,65.0,58.0,71.0,75.0,71,1260.0,square3,i,0.001,2,S,2.0
S2,18.0,72.0,64.0,81.0,61.0,81,1341.0,square3,i,0.0429,2,S,2.0
S2,19.0,60.0,63.0,72.0,65.0,72,1413.0,square3,i,0.0398,2,S,2.0
S2,20.0,68.0,56.0,71.0,70.0,71,1484.0,square3,i,0.0011,2,S,2.0
S2,21.0,65.0,65.0,74.0,71.0,74,1558.0,square3,i,0.1139,2,S,2.0
S2,22.0,69.0,62.0,77.0,72.0,77,1635.0,square3,i,0.0849,2,S,2.0
S2,23.0,64.0,71.0,74.0,65.0,74,1709.0,square3,i,0.1056,2,S,2.0
S2,24.0,66.0,62.0,78.0,70.0,78,1787.0,square3,i,0.1002,2,S,2.0
S2,25.0,67.0,69.0,76.0,66.0,76,1863.0,square3,i,0.1571,2,S,2.0
S2,26.0,65.0,63.0,74.0,69.0,74,1937.0,square3,i,0.1612,2,S,2.0
S2,27.0,68.0,64.0,67.0,68.0,67,2004.0,square3,i,0.167,2,S,2.0
S2,28.0,61.0,52.0,71.0,68.0,71,2075.0,square3,i,0.1435,2,S,2.0
S2,29.0,67.0,64.0,73.0,69.0,73,2148.0,square3,i,0.1399,2,S,2.0
S2,30.0,67.0,53.0,77.0,67.0,77,2225.0,square3,i,0.1767,2,S,2.0
S2,31.0,67.0,69.0,69.0,68.0,69,2294.0,square3,i,0.1354,2,S,2.0
S2,32.0,71.0,63.0,73.0,70.0,73,2367.0,square3,i,0.1301,2,S,2.0
S2,33.0,61.0,65.0,68.0,71.0,68,2435.0,square3,i,0.1765,2,S,2.0
S2,34.0,66.0,55.0,78.0,68.0,78,2513.0,square3,i,0.1988,2,S,2.0
S2,35.0,60.0,57.0,66.0,66.0,66,2579.0,square3,i,0.0012,2,S,2.0
S2,36.0,64.0,63.0,73.0,72.0,73,2652.0,square3,i,0.0949,2,S,2.0
S2,37.0,65.0,62.0,75.0,68.0,75,2727.0,square3,i,0.0388,2,S,2.0
S2,38.0,69.0,57.0,71.0,62.0,71,2798.0,square3,i,0.1067,2,S,2.0
S2,39.0,72.0,66.0,74.0,74.0,74,2872.0,square3,i,0.1336,2,S,2.0
S2,40.0,66.0,63.0,76.0,59.0,76,2948.0,square3,i,0.4282,2,S,2.0
S2,41.0,74.0,64.0,67.0,76.0,67,3015.0,square3,i,0.421,2,S,2.0
S2,42.0,62.0,67.0,72.0,68.0,72,3087.0,square3,i,0.043,2,S,2.0
S2,43.0,69.0,63.0,75.0,71.0,75,3162.0,square3,i,0.1752,2,S,2.0
S2,44.0,72.0,60.0,74.0,67.0,74,3236.0,square3,i,0.1891,2,S,2.0
S2,45.0,69.0,63.0,76.0,73.0,76,3312.0,square3,i,0.0015,2,S,2.0
S2,46.0,64.0,71.0,75.0,72.0,75,3387.0,square3,i,0.7018,2,S,2.0
S2,47.0,75.0,62.0,75.0,69.0,75,3462.0,square3,i,0.0866,2,S,2.0
S2,48.0,66.0,65.0,74.0,68.0,74,3536.0,square3,i,0.1737,2,S,2.0
S2,49.0,67.0,64.0,72.0,76.0,72,3608.0,square3,i,1.9176,2,S,2.0
S10,0.0,72.0,76.0,80.0,64.0,99999,0.0,invalid,,,-1,S,10.0
S10,1.0,76.0,75.0,74.0,65.0,75,75.0,square2,i,0.4456,1,S,10.0
S10,2.0,70.0,72.0,79.0,74.0,79,154.0,square3,j,1.3113,2,S,10.0
S10,3.0,69.0,77.0,76.0,68.0,68,222.0,square4,f,1.6081,3,S,10.0
S10,4.0,72.0,79.0,77.0,70.0,72,294.0,square1,r,0.9039,0,S,10.0
S10,5.0,68.0,74.0,72.0,64.0,72,366.0,square3,j,0.5427,2,S,10.0
S10,6.0,70.0,77.0,72.0,62.0,72,438.0,square3,j,0.1339,2,S,10.0
S10,7.0,78.0,81.0,80.0,74.0,80,518.0,square3,j,0.1747,2,S,10.0
S10,8.0,78.0,78.0,82.0,66.0,82,600.0,square3,j,0.0011,2,S,10.0
S10,9.0,69.0,76.0,77.0,65.0,77,677.0,square3,j,0.0091,2,S,10.0
S10,10.0,72.0,78.0,72.0,75.0,72,749.0,square3,j,0.1856,2,S,10.0
S10,11.0,71.0,76.0,78.0,66.0,78,827.0,square3,j,0.1165,2,S,10.0
S10,12.0,73.0,83.0,79.0,69.0,79,906.0,square3,j,0.0008,2,S,10.0
S10,13.0,68.0,77.0,65.0,65.0,65,971.0,square3,j,0.0254,2,S,10.0
S10,14.0,69.0,84.0,79.0,65.0,79,1050.0,square3,j,0.2237,2,S,10.0
S10,15.0,72.0,84.0,70.0,71.0,70,1120.0,square3,j,0.2332,2,S,10.0
S10,16.0,79.0,80.0,82.0,67.0,82,1202.0,square3,j,0.0877,2,S,10.0
S10,17.0,69.0,83.0,75.0,70.0,75,1277.0,square3,j,0.2567,2,S,10.0
S10,18.0,69.0,75.0,69.0,68.0,69,1346.0,square3,j,0.2337,2,S,10.0
S10,19.0,70.0,83.0,73.0,66.0,73,1419.0,square3,j,0.143,2,S,10.0
S10,20.0,69.0,83.0,75.0,66.0,75,1494.0,square3,j,0.0859,2,S,10.0
S10,21.0,77.0,70.0,75.0,70.0,75,1569.0,square3,j,0.1222,2,S,10.0
S10,22.0,73.0,77.0,81.0,69.0,81,1650.0,square3,j,0.1166,2,S,10.0
S10,23.0,73.0,78.0,70.0,65.0,70,1720.0,square3,j,0.0856,2,S,10.0
S10,24.0,70.0,80.0,75.0,66.0,75,1795.0,square3,j,0.2842,2,S,10.0
S10,25.0,70.0,80.0,73.0,72.0,73,1868.0,square3,j,0.0687,2,S,10.0
S10,26.0,73.0,75.0,73.0,75.0,73,1941.0,square3,j,0.1155,2,S,10.0
S10,27.0,77.0,81.0,83.0,66.0,83,2024.0,square3,j,0.2904,2,S,10.0
S10,28.0,73.0,79.0,79.0,73.0,79,2103.0,square3,j,0.8227,2,S,10.0
S10,29.0,73.0,79.0,72.0,69.0,72,2175.0,square3,j,0.1438,2,S,10.0
S10,30.0,71.0,85.0,79.0,69.0,79,2254.0,square3,j,0.1412,2,S,10.0
S10,31.0,71.0,85.0,83.0,66.0,83,2337.0,square3,j,0.1103,2,S,10.0
S10,32.0,78.0,79.0,77.0,65.0,77,2414.0,square3,j,0.0599,2,S,10.0
S10,33.0,83.0,79.0,72.0,68.0,72,2486.0,square3,j,0.0875,2,S,10.0
S10,34.0,68.0,74.0,79.0,72.0,79,2565.0,square3,j,0.2006,2,S,10.0
S10,35.0,70.0,83.0,79.0,67.0,79,2644.0,square3,j,0.0184,2,S,10.0
S10,36.0,67.0,76.0,75.0,72.0,75,2719.0,square3,j,0.0729,2,S,10.0
S10,37.0,76.0,82.0,79.0,60.0,79,2798.0,square3,j,0.0445,2,S,10.0
S10,38.0,72.0,75.0,69.0,68.0,69,2867.0,square3,j,0.1504,2,S,10.0
S10,39.0,73.0,78.0,76.0,70.0,76,2943.0,square3,j,0.2177,2,S,10.0
S10,40.0,76.0,77.0,66.0,60.0,66,3009.0,square3,j,0.2261,2,S,10.0
S10,41.0,74.0,83.0,73.0,67.0,73,3082.0,square3,j,0.1655,2,S,10.0
S10,42.0,72.0,69.0,80.0,63.0,80,3162.0,square3,j,0.1416,2,S,10.0
S10,43.0,69.0,74.0,72.0,68.0,72,3234.0,square3,j,0.1615,2,S,10.0
S10,44.0,67.0,76.0,70.0,65.0,70,3304.0,square3,j,0.1064,2,S,10.0
S10,45.0,76.0,81.0,74.0,72.0,74,3378.0,square3,j,0.2178,2,S,10.0
S10,46.0,76.0,79.0,76.0,66.0,76,3454.0,square3,j,0.0692,2,S,10.0
S10,47.0,67.0,81.0,84.0,60.0,84,3538.0,square3,j,0.0942,2,S,10.0
S10,48.0,73.0,83.0,75.0,66.0,75,3613.0,square3,j,0.0714,2,S,10.0
S10,49.0,66.0,77.0,74.0,71.0,74,3687.0,square3,j,0.006,2,S,10.0
S4,0.0,18.0,16.0,34.0,20.0,34,34.0,square3,i,1.4417,2,S,4.0
S4,1.0,33.0,26.0,26.0,23.0,33,67.0,square1,j,0.1062,0,S,4.0
S4,2.0,35.0,15.0,33.0,22.0,15,82.0,square2,f,0.5903,1,S,4.0
S4,3.0,28.0,19.0,27.0,27.0,27,109.0,square4,r,0.0227,3,S,4.0
S4,4.0,27.0,16.0,25.0,28.0,28,137.0,square4,r,0.4316,3,S,4.0
S4,5.0,23.0,22.0,31.0,24.0,31,168.0,square3,i,0.3151,2,S,4.0
S4,6.0,25.0,20.0,34.0,23.0,34,202.0,square3,i,0.1024,2,S,4.0
S4,7.0,21.0,22.0,30.0,21.0,30,232.0,square3,i,0.0194,2,S,4.0
S4,8.0,33.0,24.0,33.0,17.0,33,265.0,square3,i,0.1422,2,S,4.0
S4,9.0,24.0,18.0,31.0,28.0,31,296.0,square3,i,0.1602,2,S,4.0
S4,10.0,31.0,26.0,35.0,20.0,35,331.0,square3,i,0.0884,2,S,4.0
S4,11.0,25.0,15.0,31.0,25.0,31,362.0,square3,i,0.1888,2,S,4.0
S4,12.0,24.0,16.0,29.0,22.0,29,391.0,square3,i,0.1006,2,S,4.0
S4,13.0,28.0,23.0,25.0,17.0,25,416.0,square3,i,0.3889,2,S,4.0
S4,14.0,22.0,23.0,21.0,23.0,21,437.0,square3,i,0.8357,2,S,4.0
S4,15.0,25.0,19.0,28.0,25.0,28,465.0,square3,i,0.1098,2,S,4.0
S4,16.0,26.0,17.0,30.0,21.0,30,495.0,square3,i,0.0013,2,S,4.0
S4,17.0,22.0,21.0,29.0,22.0,29,524.0,square3,i,0.0804,2,S,4.0
S4,18.0,28.0,22.0,32.0,22.0,32,556.0,square3,i,0.7021,2,S,4.0
S4,19.0,26.0,19.0,31.0,26.0,31,587.0,square3,i,1.0992,2,S,4.0
S4,20.0,28.0,18.0,28.0,25.0,28,615.0,square3,i,0.1445,2,S,4.0
S4,21.0,33.0,26.0,21.0,29.0,99999,615.0,invalid,,,-1,S,4.0
S4,22.0,31.0,19.0,29.0,20.0,99999,615.0,invalid,,,-1,S,4.0
S4,23.0,27.0,21.0,36.0,26.0,36,651.0,square3,i,0.1457,2,S,4.0
S4,24.0,28.0,15.0,32.0,21.0,32,683.0,square3,i,0.2192,2,S,4.0
S4,25.0,27.0,18.0,28.0,25.0,28,711.0,square3,i,0.1095,2,S,4.0
S4,26.0,26.0,20.0,27.0,14.0,26,737.0,square1,j,0.1403,0,S,4.0
S4,27.0,28.0,19.0,36.0,18.0,19,756.0,square2,f,0.071,1,S,4.0
S4,28.0,28.0,19.0,28.0,23.0,23,779.0,square4,r,1.2324,3,S,4.0
S4,29.0,25.0,22.0,29.0,23.0,29,808.0,square3,i,0.0018,2,S,4.0
S4,30.0,26.0,16.0,30.0,20.0,30,838.0,square3,i,0.2053,2,S,4.0
S4,31.0,23.0,25.0,26.0,30.0,26,864.0,square3,i,0.2725,2,S,4.0
S4,32.0,21.0,26.0,22.0,23.0,22,886.0,square3,i,0.5963,2,S,4.0
S4,33.0,25.0,22.0,24.0,17.0,24,910.0,square3,i,0.1228,2,S,4.0
S4,34.0,30.0,22.0,33.0,24.0,33,943.0,square3,i,1.5777,2,S,4.0
S4,35.0,23.0,21.0,35.0,26.0,35,978.0,square3,i,0.1562,2,S,4.0
S4,36.0,19.0,21.0,33.0,24.0,33,1011.0,square3,i,0.167,2,S,4.0
S4,37.0,20.0,17.0,26.0,26.0,26,1037.0,square3,i,0.1058,2,S,4.0
S4,38.0,28.0,20.0,28.0,26.0,28,1065.0,square3,i,0.0095,2,S,4.0
S4,39.0,28.0,23.0,40.0,27.0,40,1105.0,square3,i,0.0217,2,S,4.0
S4,40.0,25.0,24.0,32.0,22.0,32,1137.0,square3,i,0.0497,2,S,4.0
S4,41.0,23.0,23.0,26.0,17.0,26,1163.0,square3,i,0.1932,2,S,4.0
S4,42.0,26.0,18.0,33.0,22.0,33,1196.0,square3,i,0.2735,2,S,4.0
S4,43.0,22.0,21.0,36.0,25.0,36,1232.0,square3,i,0.0391,2,S,4.0
S4,44.0,21.0,18.0,33.0,14.0,33,1265.0,square3,i,0.0502,2,S,4.0
S4,45.0,29.0,19.0,30.0,29.0,30,1295.0,square3,i,0.0509,2,S,4.0
S4,46.0,21.0,16.0,22.0,23.0,22,1317.0,square3,i,0.1821,2,S,4.0
S4,47.0,22.0,18.0,28.0,22.0,22,1339.0,square1,j,0.3757,0,S,4.0
S4,48.0,33.0,21.0,32.0,26.0,21,1360.0,square2,f,0.0391,1,S,4.0
S4,49.0,23.0,17.0,20.0,21.0,21,1381.0,square4,r,0.4011,3,S,4.0
S6,0.0,40.0,29.0,39.0,26.0,99999,0.0,invalid,,,-1,S,6.0
S6,1.0,34.0,40.0,31.0,25.0,31,31.0,square3,r,0.7391,2,S,6.0
S6,2.0,37.0,31.0,25.0,30.0,31,62.0,square2,i,0.0419,1,S,6.0
S6,3.0,39.0,37.0,30.0,27.0,27,89.0,square4,j,0.8075,3,S,6.0
S6,4.0,42.0,40.0,28.0,32.0,42,131.0,square1,f,0.1674,0,S,6.0
S6,5.0,35.0,35.0,39.0,29.0,35,166.0,square1,f,0.0671,0,S,6.0
S6,6.0,48.0,30.0,37.0,33.0,48,214.0,square1,f,0.1352,0,S,6.0
S6,7.0,47.0,34.0,31.0,29.0,47,261.0,square1,f,0.1394,0,S,6.0
S6,8.0,43.0,35.0,30.0,25.0,43,304.0,square1,f,0.1401,0,S,6.0
S6,9.0,36.0,38.0,35.0,35.0,36,340.0,square1,f,0.1766,0,S,6.0
S6,10.0,38.0,35.0,31.0,21.0,38,378.0,square1,f,0.0022,0,S,6.0
S6,11.0,30.0,36.0,31.0,20.0,30,408.0,square1,f,0.1884,0,S,6.0
S6,12.0,37.0,40.0,33.0,22.0,37,445.0,square1,f,0.1313,0,S,6.0
S6,13.0,32.0,41.0,35.0,29.0,32,477.0,square1,f,0.1229,0,S,6.0
S6,14.0,41.0,29.0,30.0,32.0,41,518.0,square1,f,0.2131,0,S,6.0
S6,15.0,43.0,37.0,31.0,27.0,43,561.0,square1,f,0.0565,0,S,6.0
S6,16.0,34.0,34.0,35.0,31.0,34,595.0,square1,f,0.1755,0,S,6.0
S6,17.0,47.0,40.0,29.0,28.0,47,642.0,square1,f,0.0778,0,S,6.0
S6,18.0,37.0,38.0,34.0,35.0,37,679.0,square1,f,0.1084,0,S,6.0
S6,19.0,36.0,39.0,31.0,26.0,36,715.0,square1,f,0.0429,0,S,6.0
S6,20.0,44.0,40.0,31.0,25.0,44,759.0,square1,f,0.2242,0,S,6.0
S6,21.0,39.0,41.0,35.0,24.0,39,798.0,square1,f,0.1357,0,S,6.0
S6,22.0,41.0,38.0,41.0,31.0,41,839.0,square1,f,0.0008,0,S,6.0
S6,23.0,37.0,31.0,30.0,32.0,37,876.0,square1,f,0.001,0,S,6.0
S6,24.0,48.0,34.0,34.0,21.0,48,924.0,square1,f,0.0755,0,S,6.0
S6,25.0,42.0,45.0,26.0,29.0,42,966.0,square1,f,0.0537,0,S,6.0
S6,26.0,40.0,39.0,36.0,28.0,40,1006.0,square1,f,0.7225,0,S,6.0
S6,27.0,42.0,33.0,29.0,29.0,42,1048.0,square1,f,0.1203,0,S,6.0
S6,28.0,41.0,30.0,29.0,29.0,41,1089.0,square1,f,0.0557,0,S,6.0
S6,29.0,42.0,40.0,32.0,27.0,99999,1089.0,invalid,,,-1,S,6.0
S6,30.0,42.0,36.0,30.0,26.0,42,1131.0,square1,f,0.6281,0,S,6.0
S6,31.0,42.0,34.0,35.0,29.0,42,1173.0,square1,f,0.6809,0,S,6.0
S6,32.0,35.0,36.0,31.0,23.0,35,1208.0,square1,f,0.0524,0,S,6.0
S6,33.0,35.0,31.0,35.0,30.0,35,1243.0,square1,f,0.1229,0,S,6.0
S6,34.0,40.0,38.0,31.0,27.0,40,1283.0,square1,f,0.0902,0,S,6.0
S6,35.0,42.0,37.0,34.0,34.0,42,1325.0,square1,f,0.0414,0,S,6.0
S6,36.0,37.0,46.0,31.0,34.0,37,1362.0,square1,f,0.0398,0,S,6.0
S6,37.0,38.0,40.0,30.0,26.0,38,1400.0,square1,f,0.0735,0,S,6.0
S6,38.0,36.0,34.0,31.0,33.0,36,1436.0,square1,f,0.0009,0,S,6.0
S6,39.0,44.0,37.0,33.0,31.0,44,1480.0,square1,f,0.1191,0,S,6.0
S6,40.0,40.0,38.0,31.0,25.0,40,1520.0,square1,f,0.311,0,S,6.0
S6,41.0,49.0,35.0,35.0,28.0,49,1569.0,square1,f,0.0891,0,S,6.0
S6,42.0,44.0,40.0,32.0,28.0,44,1613.0,square1,f,0.1423,0,S,6.0
S6,43.0,43.0,36.0,33.0,26.0,43,1656.0,square1,f,0.0411,0,S,6.0
S6,44.0,38.0,33.0,34.0,26.0,38,1694.0,square1,f,0.1857,0,S,6.0
S6,45.0,32.0,35.0,30.0,28.0,99999,1694.0,invalid,,,-1,S,6.0
S6,46.0,38.0,36.0,34.0,30.0,38,1732.0,square1,f,0.0617,0,S,6.0
S6,47.0,44.0,35.0,32.0,31.0,44,1776.0,square1,f,0.1846,0,S,6.0
S6,48.0,40.0,40.0,31.0,33.0,40,1816.0,square1,f,0.1346,0,S,6.0
S6,49.0,41.0,29.0,29.0,29.0,41,1857.0,square1,f,0.0371,0,S,6.0
S9,0.0,36.0,36.0,32.0,32.0,36,36.0,square2,r,1.281,1,S,9.0
S9,1.0,40.0,29.0,36.0,24.0,24,60.0,square4,i,0.007,3,S,9.0
S9,2.0,31.0,43.0,22.0,29.0,31,91.0,square1,j,0.0639,0,S,9.0
S9,3.0,41.0,33.0,28.0,27.0,28,119.0,square3,f,0.0062,2,S,9.0
S9,4.0,34.0,29.0,32.0,31.0,29,148.0,square2,r,0.0364,1,S,9.0
S9,5.0,41.0,32.0,22.0,29.0,32,180.0,square2,r,0.133,1,S,9.0
S9,6.0,44.0,30.0,21.0,28.0,30,210.0,square2,r,0.5232,1,S,9.0
S9,7.0,39.0,37.0,26.0,24.0,37,247.0,square2,r,0.2558,1,S,9.0
S9,8.0,41.0,33.0,23.0,20.0,33,280.0,square2,r,0.0136,1,S,9.0
S9,9.0,30.0,35.0,24.0,27.0,35,315.0,square2,r,0.0898,1,S,9.0
S9,10.0,41.0,29.0,23.0,28.0,29,344.0,square2,r,0.1844,1,S,9.0
S9,11.0,37.0,38.0,22.0,33.0,38,382.0,square2,r,0.1534,1,S,9.0
S9,12.0,35.0,31.0,27.0,32.0,31,413.0,square2,r,0.0226,1,S,9.0
S9,13.0,38.0,37.0,30.0,29.0,37,450.0,square2,r,0.3719,1,S,9.0
S9,14.0,36.0,38.0,30.0,37.0,38,488.0,square2,r,0.1258,1,S,9.0
S9,15.0,40.0,29.0,27.0,24.0,29,517.0,square2,r,0.6601,1,S,9.0
S9,16.0,33.0,37.0,29.0,28.0,37,554.0,square2,r,0.1249,1,S,9.0
S9,17.0,41.0,32.0,36.0,31.0,32,586.0,square2,r,0.0008,1,S,9.0
S9,18.0,39.0,26.0,16.0,35.0,26,612.0,square2,r,0.2268,1,S,9.0
S9,19.0,35.0,30.0,23.0,27.0,30,642.0,square2,r,0.56,1,S,9.0
S9,20.0,39.0,34.0,23.0,29.0,34,676.0,square2,r,0.0396,1,S,9.0
S9,21.0,35.0,37.0,28.0,31.0,37,713.0,square2,r,0.3433,1,S,9.0
S9,22.0,37.0,30.0,23.0,38.0,30,743.0,square2,r,0.1242,1,S,9.0
S9,23.0,37.0,34.0,27.0,34.0,99999,743.0,invalid,,,-1,S,9.0
S9,24.0,31.0,34.0,26.0,27.0,34,777.0,square2,r,0.1782,1,S,9.0
S9,25.0,38.0,40.0,29.0,24.0,40,817.0,square2,r,0.1014,1,S,9.0
S9,26.0,43.0,31.0,21.0,24.0,31,848.0,square2,r,0.1649,1,S,9.0
S9,27.0,30.0,31.0,23.0,28.0,31,879.0,square2,r,0.0687,1,S,9.0
S9,28.0,44.0,32.0,31.0,32.0,32,911.0,square2,r,0.0605,1,S,9.0
S9,29.0,36.0,38.0,22.0,22.0,38,949.0,square2,r,0.0776,1,S,9.0
S9,30.0,41.0,30.0,26.0,29.0,30,979.0,square2,r,0.319,1,S,9.0
S9,31.0,39.0,37.0,30.0,32.0,37,1016.0,square2,r,0.0012,1,S,9.0
S9,32.0,35.0,39.0,28.0,31.0,39,1055.0,square2,r,0.0337,1,S,9.0
S9,33.0,37.0,39.0,29.0,32.0,39,1094.0,square2,r,0.0384,1,S,9.0
S9,34.0,46.0,33.0,21.0,25.0,33,1127.0,square2,r,0.1389,1,S,9.0
S9,35.0,38.0,33.0,28.0,28.0,33,1160.0,square2,r,1.3735,1,S,9.0
S9,36.0,40.0,37.0,21.0,32.0,37,1197.0,square2,r,0.05,1,S,9.0
S9,37.0,38.0,43.0,23.0,37.0,43,1240.0,square2,r,0.1236,1,S,9.0
S9,38.0,36.0,31.0,29.0,29.0,31,1271.0,square2,r,0.2188,1,S,9.0
S9,39.0,41.0,29.0,26.0,28.0,29,1300.0,square2,r,0.0913,1,S,9.0
S9,40.0,32.0,36.0,26.0,28.0,36,1336.0,square2,r,0.0135,1,S,9.0
S9,41.0,40.0,37.0,35.0,28.0,37,1373.0,square2,r,0.102,1,S,9.0
S9,42.0,43.0,32.0,26.0,37.0,32,1405.0,square2,r,0.0007,1,S,9.0
S9,43.0,40.0,31.0,23.0,31.0,31,1436.0,square2,r,0.0402,1,S,9.0
S9,44.0,42.0,38.0,24.0,40.0,38,1474.0,square2,r,0.1506,1,S,9.0
S9,45.0,36.0,35.0,30.0,33.0,35,1509.0,square2,r,1.3352,1,S,9.0
S9,46.0,38.0,30.0,33.0,26.0,30,1539.0,square2,r,0.0564,1,S,9.0
S9,47.0,39.0,37.0,25.0,26.0,37,1576.0,square2,r,0.3192,1,S,9.0
S9,48.0,36.0,35.0,26.0,27.0,35,1611.0,square2,r,0.2072,1,S,9.0
S9,49.0,40.0,32.0,24.0,28.0,32,1643.0,square2,r,0.1555,1,S,9.0
