block,Trial,square1,square2,square3,square4,currPoints,totalPoints,square,choiceKey.keys,choiceKey.rt,armNum,blockType,blockNum
prac,0.0,100.0,0.0,0.0,0.0,0,0.0,square3,,,2,p,0.0
prac,1.0,100.0,0.0,0.0,0.0,100,100.0,square1,,,0,p,0.0
prac,2.0,100.0,0.0,0.0,0.0,0,100.0,square4,,,3,p,0.0
prac,3.0,100.0,0.0,0.0,0.0,0,100.0,square2,,,1,p,0.0
prac,4.0,100.0,0.0,0.0,0.0,99999,100.0,invalid,,,-1,p,0.0
prac,5.0,100.0,0.0,0.0,0.0,100,200.0,square1,,,0,p,0.0
prac,6.0,100.0,0.0,0.0,0.0,100,300.0,square1,,,0,p,0.0
prac,7.0,100.0,0.0,0.0,0.0,100,400.0,square1,,,0,p,0.0
prac,8.0,100.0,0.0,0.0,0.0,100,500.0,square1,,,0,p,0.0
prac,9.0,100.0,0.0,0.0,0.0,0,500.0,square3,,,2,p,0.0
V5,0.0,46.0,21.0,37.0,28.0,37,37.0,square3,f,0.5925,2,V,5.0
V5,1.0,43.0,27.0,36.0,31.0,31,68.0,square4,j,0.3714,3,V,5.0
V5,2.0,50.0,18.0,43.0,32.0,18,86.0,square2,i,0.1498,1,V,5.0
V5,3.0,53.0,23.0,36.0,34.0,53,139.0,square1,r,0.7254,0,V,5.0
V5,4.0,52.0,19.0,38.0,34.0,52,191.0,square1,r,0.9769,0,V,5.0
V5,5.0,50.0,22.0,41.0,29.0,41,232.0,square3,f,0.2389,2,V,5.0
V5,6.0,52.0,19.0,40.0,33.0,33,265.0,square4,j,0.9881,3,V,5.0
V5,7.0,48.0,24.0,36.0,27.0,24,289.0,square2,i,0.2931,1,V,5.0
V5,8.0,50.0,24.0,35.0,33.0,50,339.0,square1,r,0.3096,0,V,5.0
V5,9.0,48.0,25.0,39.0,34.0,39,378.0,square3,f,0.0769,2,V,5.0
V5,10.0,52.0,19.0,32.0,34.0,52,430.0,square1,r,0.6281,0,V,5.0
V5,11.0,48.0,22.0,32.0,32.0,48,478.0,square1,r,0.3074,0,V,5.0
V5,12.0,47.0,17.0,43.0,29.0,29,507.0,square4,j,0.005,3,V,5.0
V5,13.0,46.0,21.0,42.0,29.0,21,528.0,square2,i,0.1265,1,V,5.0
V5,14.0,47.0,28.0,42.0,28.0,42,570.0,square3,f,0.8442,2,V,5.0
V5,15.0,50.0,29.0,38.0,36.0,50,620.0,square1,r,0.4268,0,V,5.0
V5,16.0,49.0,24.0,36.0,34.0,49,669.0,square1,r,0.0418,0,V,5.0
V5,17.0,50.0,20.0,38.0,35.0,38,707.0,square3,f,0.2274,2,V,5.0
V5,18.0,49.0,22.0,46.0,29.0,49,756.0,square1,r,0.5722,0,V,5.0
V5,19.0,46.0,23.0,40.0,31.0,31,787.0,square4,j,0.4702,3,V,5.0
V5,20.0,51.0,22.0,41.0,28.0,22,809.0,square2,i,1.3745,1,V,5.0
V5,21.0,51.0,26.0,36.0,31.0,51,860.0,square1,r,0.4252,0,V,5.0
V5,22.0,47.0,18.0,41.0,28.0,47,907.0,square1,r,0.458,0,V,5.0
V5,23.0,52.0,20.0,36.0,29.0,52,959.0,square1,r,0.2095,0,V,5.0
V5,24.0,51.0,21.0,41.0,34.0,51,1010.0,square1,r,0.1587,0,V,5.0
V5,25.0,50.0,20.0,41.0,27.0,50,1060.0,square1,r,1.6497,0,V,5.0
V5,26.0,49.0,29.0,37.0,28.0,37,1097.0,square3,f,0.4894,2,V,5.0
V5,27.0,10.0,13.0,42.0,32.0,10,1107.0,square1,r,0.4926,0,V,5.0
V5,28.0,9.0,19.0,40.0,27.0,19,1126.0,square2,i,0.0999,1,V,5.0
V5,29.0,17.0,17.0,38.0,29.0,29,1155.0,square4,j,0.0242,3,V,5.0
V5,30.0,8.0,18.0,36.0,29.0,36,1191.0,square3,f,0.4599,2,V,5.0
V5,31.0,16.0,24.0,34.0,29.0,34,1225.0,square3,f,0.3967,2,V,5.0
V5,32.0,9.0,17.0,35.0,31.0,35,1260.0,square3,f,0.3094,2,V,5.0
V5,33.0,11.0,19.0,36.0,28.0,36,1296.0,square3,f,0.2729,2,V,5.0
V5,34.0,10.0,19.0,38.0,28.0,38,1334.0,square3,f,0.2759,2,V,5.0
V5,35.0,5.0,23.0,40.0,34.0,40,1374.0,square3,f,0.0927,2,V,5.0
V5,36.0,17.0,20.0,36.0,31.0,36,1410.0,square3,f,0.3594,2,V,5.0
V5,37.0,12.0,13.0,36.0,30.0,30,1440.0,square4,j,0.3766,3,V,5.0
V5,38.0,14.0,24.0,35.0,27.0,24,1464.0,square2,i,0.0004,1,V,5.0
V5,39.0,13.0,20.0,39.0,32.0,13,1477.0,square1,r,0.4892,0,V,5.0
V5,40.0,9.0,15.0,37.0,24.0,37,1514.0,square3,f,0.0106,2,V,5.0
V5,41.0,9.0,14.0,38.0,31.0,38,1552.0,square3,f,0.0606,2,V,5.0
V5,42.0,14.0,17.0,43.0,31.0,43,1595.0,square3,f,0.3711,2,V,5.0
V5,43.0,10.0,18.0,39.0,23.0,39,1634.0,square3,f,0.0462,2,V,5.0
V5,44.0,10.0,20.0,33.0,32.0,33,1667.0,square3,f,0.1282,2,V,5.0
V5,45.0,16.0,17.0,37.0,29.0,37,1704.0,square3,f,0.0236,2,V,5.0
V5,46.0,9.0,22.0,37.0,25.0,25,1729.0,square4,j,0.2297,3,V,5.0
V5,47.0,10.0,22.0,35.0,26.0,22,1751.0,square2,i,0.0781,1,V,5.0
V5,48.0,11.0,16.0,39.0,23.0,11,1762.0,square1,r,0.0219,0,V,5.0
V5,49.0,13.0,16.0,33.0,27.0,33,1795.0,square3,f,0.2482,2,V,5.0
V5,50.0,12.0,16.0,39.0,24.0,39,1834.0,square3,f,0.0732,2,V,5.0
V5,51.0,10.0,21.0,43.0,28.0,43,1877.0,square3,f,0.0358,2,V,5.0
V5,52.0,8.0,15.0,36.0,28.0,36,1913.0,square3,f,0.5129,2,V,5.0
V5,53.0,38.0,20.0,31.0,54.0,31,1944.0,square3,f,0.0431,2,V,5.0
V5,54.0,39.0,20.0,35.0,51.0,35,1979.0,square3,f,0.3591,2,V,5.0
V5,55.0,41.0,21.0,27.0,50.0,27,2006.0,square3,f,0.133,2,V,5.0
V5,56.0,39.0,23.0,28.0,49.0,49,2055.0,square4,j,0.2555,3,V,5.0
V5,57.0,36.0,28.0,29.0,59.0,28,2083.0,square2,i,0.3098,1,V,5.0
V5,58.0,38.0,22.0,28.0,49.0,38,2121.0,square1,r,0.2804,0,V,5.0
V5,59.0,44.0,23.0,30.0,51.0,51,2172.0,square4,j,0.7362,3,V,5.0
V5,60.0,43.0,21.0,31.0,48.0,48,2220.0,square4,j,0.1966,3,V,5.0
V5,61.0,39.0,24.0,35.0,50.0,50,2270.0,square4,j,0.1769,3,V,5.0
V5,62.0,38.0,25.0,31.0,52.0,52,2322.0,square4,j,0.1164,3,V,5.0
V5,63.0,41.0,14.0,31.0,52.0,52,2374.0,square4,j,0.143,3,V,5.0
V5,64.0,43.0,23.0,30.0,51.0,51,2425.0,square4,j,0.4034,3,V,5.0
V5,65.0,41.0,23.0,35.0,52.0,52,2477.0,square4,j,0.5722,3,V,5.0
V5,66.0,41.0,17.0,33.0,47.0,47,2524.0,square4,j,0.3926,3,V,5.0
V5,67.0,44.0,23.0,32.0,49.0,44,2568.0,square1,r,0.0066,0,V,5.0
V5,68.0,44.0,24.0,31.0,44.0,44,2612.0,square4,j,0.0487,3,V,5.0
V5,69.0,43.0,28.0,27.0,48.0,48,2660.0,square4,j,0.1605,3,V,5.0
V5,70.0,38.0,22.0,26.0,50.0,38,2698.0,square1,r,0.1774,0,V,5.0
V5,71.0,41.0,29.0,26.0,53.0,53,2751.0,square4,j,0.1499,3,V,5.0
V5,72.0,40.0,20.0,28.0,51.0,51,2802.0,square4,j,0.3974,3,V,5.0
V5,73.0,59.0,44.0,51.0,35.0,44,2846.0,square2,i,0.1074,1,V,5.0
V5,74.0,60.0,38.0,55.0,43.0,55,2901.0,square3,f,0.193,2,V,5.0
V5,75.0,63.0,45.0,50.0,37.0,50,2951.0,square3,f,0.143,2,V,5.0
V5,76.0,62.0,42.0,50.0,37.0,50,3001.0,square3,f,0.0046,2,V,5.0
V5,77.0,57.0,37.0,52.0,35.0,52,3053.0,square3,f,0.2809,2,V,5.0
V5,78.0,66.0,45.0,54.0,37.0,54,3107.0,square3,f,0.0004,2,V,5.0
V5,79.0,64.0,37.0,48.0,35.0,35,3142.0,square4,j,0.4275,3,V,5.0
V5,80.0,63.0,40.0,56.0,38.0,63,3205.0,square1,r,0.4071,0,V,5.0
V5,81.0,62.0,41.0,54.0,32.0,62,3267.0,square1,r,0.0773,0,V,5.0
V5,82.0,58.0,41.0,59.0,39.0,58,3325.0,square1,r,0.1462,0,V,5.0
V5,83.0,66.0,46.0,54.0,35.0,66,3391.0,square1,r,0.4548,0,V,5.0
V5,84.0,67.0,44.0,52.0,33.0,67,3458.0,square1,r,0.2976,0,V,5.0
V5,85.0,67.0,45.0,46.0,36.0,67,3525.0,square1,r,0.3264,0,V,5.0
V5,86.0,65.0,44.0,51.0,38.0,65,3590.0,square1,r,0.7115,0,V,5.0
V5,87.0,64.0,49.0,48.0,35.0,64,3654.0,square1,r,0.1431,0,V,5.0
V5,88.0,68.0,47.0,56.0,36.0,68,3722.0,square1,r,0.0005,0,V,5.0
V5,89.0,60.0,42.0,57.0,32.0,60,3782.0,square1,r,0.3096,0,V,5.0
V5,90.0,59.0,43.0,53.0,34.0,43,3825.0,square2,i,0.3562,1,V,5.0
V5,91.0,64.0,43.0,51.0,34.0,51,3876.0,square3,f,0.5085,2,V,5.0
V5,92.0,65.0,41.0,57.0,38.0,65,3941.0,square1,r,0.1443,0,V,5.0
V5,93.0,59.0,48.0,54.0,40.0,59,4000.0,square1,r,0.2163,0,V,5.0
V5,94.0,66.0,44.0,53.0,43.0,66,4066.0,square1,r,0.3443,0,V,5.0
V5,95.0,63.0,43.0,50.0,40.0,63,4129.0,square1,r,0.3093,0,V,5.0
V5,96.0,62.0,44.0,50.0,33.0,62,4191.0,square1,r,0.3484,0,V,5.0
V5,97.0,64.0,49.0,55.0,37.0,64,4255.0,square1,r,0.3049,0,V,5.0
V5,98.0,65.0,44.0,53.0,36.0,65,4320.0,square1,r,0.0756,0,V,5.0
V5,99.0,65.0,42.0,55.0,35.0,42,4362.0,square2,i,0.3972,1,V,5.0
V10,0.0,28.0,21.0,37.0,46.0,46,46.0,square4,f,0.6604,3,V,10.0
V10,1.0,26.0,19.0,41.0,49.0,19,65.0,square2,j,0.5392,1,V,10.0
V10,2.0,29.0,20.0,43.0,48.0,29,94.0,square1,i,0.188,0,V,10.0
V10,3.0,27.0,27.0,37.0,44.0,37,131.0,square3,r,0.0883,2,V,10.0
V10,4.0,28.0,16.0,36.0,47.0,47,178.0,square4,f,0.2133,3,V,10.0
V10,5.0,33.0,25.0,42.0,54.0,54,232.0,square4,f,0.1478,3,V,10.0
V10,6.0,28.0,19.0,35.0,45.0,45,277.0,square4,f,0.3449,3,V,10.0
V10,7.0,30.0,24.0,35.0,49.0,35,312.0,square3,r,0.011,2,V,10.0
V10,8.0,37.0,29.0,41.0,47.0,37,349.0,square1,i,0.6434,0,V,10.0
V10,9.0,28.0,21.0,41.0,48.0,21,370.0,square2,j,0.7044,1,V,10.0
V10,10.0,27.0,22.0,39.0,42.0,42,412.0,square4,f,1.4133,3,V,10.0
V10,11.0,32.0,16.0,41.0,48.0,48,460.0,square4,f,0.0478,3,V,10.0
V10,12.0,34.0,15.0,33.0,49.0,49,509.0,square4,f,0.2885,3,V,10.0
V10,13.0,36.0,19.0,41.0,45.0,99999,509.0,invalid,,,-1,V,10.0
V10,14.0,28.0,23.0,35.0,53.0,23,532.0,square2,j,0.2623,1,V,10.0
V10,15.0,26.0,28.0,40.0,50.0,50,582.0,square4,f,0.1434,3,V,10.0
V10,16.0,30.0,25.0,42.0,47.0,47,629.0,square4,f,0.3933,3,V,10.0
V10,17.0,31.0,19.0,38.0,50.0,50,679.0,square4,f,0.1946,3,V,10.0
V10,18.0,34.0,21.0,35.0,48.0,48,727.0,square4,f,0.1889,3,V,10.0
V10,19.0,31.0,24.0,39.0,46.0,99999,727.0,invalid,,,-1,V,10.0
V10,20.0,28.0,22.0,42.0,47.0,47,774.0,square4,f,0.0835,3,V,10.0
V10,21.0,24.0,20.0,41.0,47.0,47,821.0,square4,f,0.3482,3,V,10.0
V10,22.0,32.0,22.0,34.0,44.0,44,865.0,square4,f,0.2659,3,V,10.0
V10,23.0,29.0,23.0,37.0,47.0,47,912.0,square4,f,0.0887,3,V,10.0
V10,24.0,25.0,25.0,38.0,46.0,46,958.0,square4,f,0.5767,3,V,10.0
V10,25.0,30.0,24.0,41.0,45.0,41,999.0,square3,r,0.123,2,V,10.0
V10,26.0,32.0,17.0,38.0,49.0,17,1016.0,square2,j,0.9431,1,V,10.0
V10,27.0,34.0,21.0,38.0,47.0,34,1050.0,square1,i,0.2422,0,V,10.0
V10,28.0,29.0,21.0,37.0,45.0,45,1095.0,square4,f,0.1311,3,V,10.0
V10,29.0,30.0,20.0,31.0,47.0,47,1142.0,square4,f,0.4148,3,V,10.0
V10,30.0,28.0,21.0,35.0,44.0,44,1186.0,square4,f,0.3446,3,V,10.0
V10,31.0,36.0,25.0,14.0,8.0,8,1194.0,square4,f,0.0937,3,V,10.0
V10,32.0,38.0,27.0,19.0,11.0,19,1213.0,square3,r,0.0768,2,V,10.0
V10,33.0,39.0,21.0,20.0,13.0,39,1252.0,square1,i,0.7308,0,V,10.0
V10,34.0,34.0,24.0,20.0,10.0,24,1276.0,square2,j,0.5592,1,V,10.0
V10,35.0,44.0,29.0,17.0,11.0,44,1320.0,square1,i,0.1488,0,V,10.0
V10,36.0,33.0,30.0,17.0,9.0,33,1353.0,square1,i,0.0268,0,V,10.0
V10,37.0,31.0,27.0,12.0,6.0,31,1384.0,square1,i,0.576,0,V,10.0
V10,38.0,34.0,29.0,15.0,10.0,34,1418.0,square1,i,0.4258,0,V,10.0
V10,39.0,35.0,21.0,19.0,5.0,19,1437.0,square3,r,0.2897,2,V,10.0
V10,40.0,32.0,26.0,18.0,6.0,26,1463.0,square2,j,0.6332,1,V,10.0
V10,41.0,34.0,32.0,13.0,9.0,9,1472.0,square4,f,0.4203,3,V,10.0
V10,42.0,35.0,30.0,16.0,8.0,35,1507.0,square1,i,0.0274,0,V,10.0
V10,43.0,38.0,32.0,16.0,8.0,38,1545.0,square1,i,0.0485,0,V,10.0
V10,44.0,34.0,20.0,18.0,3.0,34,1579.0,square1,i,0.1928,0,V,10.0
V10,45.0,38.0,22.0,23.0,9.0,38,1617.0,square1,i,0.1886,0,V,10.0
V10,46.0,36.0,28.0,16.0,10.0,36,1653.0,square1,i,0.1727,0,V,10.0
V10,47.0,36.0,27.0,13.0,8.0,13,1666.0,square3,r,0.3107,2,V,10.0
V10,48.0,35.0,27.0,14.0,12.0,27,1693.0,square2,j,0.4813,1,V,10.0
V10,49.0,33.0,28.0,16.0,10.0,33,1726.0,square1,i,0.0925,0,V,10.0
V10,50.0,31.0,29.0,19.0,8.0,31,1757.0,square1,i,0.2798,0,V,10.0
V10,51.0,32.0,21.0,20.0,12.0,32,1789.0,square1,i,0.1102,0,V,10.0
V10,52.0,29.0,25.0,21.0,10.0,29,1818.0,square1,i,0.0004,0,V,10.0
V10,53.0,39.0,29.0,23.0,2.0,2,1820.0,square4,f,0.276,3,V,10.0
V10,54.0,33.0,28.0,19.0,7.0,33,1853.0,square1,i,0.2404,0,V,10.0
V10,55.0,34.0,24.0,15.0,8.0,34,1887.0,square1,i,0.1448,0,V,10.0
V10,56.0,35.0,20.0,21.0,9.0,35,1922.0,square1,i,0.1558,0,V,10.0
V10,57.0,33.0,27.0,19.0,7.0,33,1955.0,square1,i,0.0609,0,V,10.0
V10,58.0,38.0,24.0,16.0,7.0,38,1993.0,square1,i,0.3052,0,V,10.0
V10,59.0,34.0,29.0,15.0,5.0,34,2027.0,square1,i,0.0792,0,V,10.0
V10,60.0,34.0,22.0,19.0,9.0,34,2061.0,square1,i,0.3621,0,V,10.0
V10,61.0,39.0,31.0,20.0,10.0,39,2100.0,square1,i,0.1054,0,V,10.0
V10,62.0,35.0,24.0,18.0,6.0,35,2135.0,square1,i,0.2592,0,V,10.0
V10,63.0,35.0,26.0,18.0,9.0,35,2170.0,square1,i,0.1612,0,V,10.0
V10,64.0,31.0,55.0,23.0,23.0,31,2201.0,square1,i,0.0431,0,V,10.0
V10,65.0,35.0,50.0,22.0,27.0,35,2236.0,square1,i,0.0003,0,V,10.0
V10,66.0,35.0,53.0,25.0,29.0,35,2271.0,square1,i,0.488,0,V,10.0
V10,67.0,38.0,44.0,17.0,29.0,17,2288.0,square3,r,0.043,2,V,10.0
V10,68.0,36.0,48.0,22.0,27.0,48,2336.0,square2,j,0.7234,1,V,10.0
V10,69.0,41.0,53.0,17.0,28.0,53,2389.0,square2,j,0.0934,1,V,10.0
V10,70.0,40.0,48.0,23.0,28.0,48,2437.0,square2,j,0.0759,1,V,10.0
V10,71.0,39.0,43.0,24.0,20.0,43,2480.0,square2,j,0.0269,1,V,10.0
V10,72.0,36.0,49.0,19.0,25.0,49,2529.0,square2,j,0.0106,1,V,10.0
V10,73.0,39.0,49.0,23.0,32.0,49,2578.0,square2,j,0.0296,1,V,10.0
V10,74.0,36.0,44.0,17.0,29.0,44,2622.0,square2,j,0.0426,1,V,10.0
V10,75.0,37.0,46.0,20.0,30.0,46,2668.0,square2,j,0.0292,1,V,10.0
V10,76.0,38.0,47.0,23.0,30.0,47,2715.0,square2,j,0.2145,1,V,10.0
V10,77.0,36.0,49.0,22.0,32.0,49,2764.0,square2,j,0.0293,1,V,10.0
V10,78.0,41.0,44.0,19.0,27.0,44,2808.0,square2,j,0.3055,1,V,10.0
V10,79.0,41.0,48.0,22.0,27.0,48,2856.0,square2,j,0.1439,1,V,10.0
V10,80.0,34.0,44.0,26.0,29.0,44,2900.0,square2,j,0.3599,1,V,10.0
V10,81.0,38.0,47.0,18.0,29.0,47,2947.0,square2,j,0.0488,1,V,10.0
V10,82.0,43.0,43.0,23.0,28.0,28,2975.0,square4,f,0.1135,3,V,10.0
V10,83.0,34.0,51.0,23.0,26.0,34,3009.0,square1,i,0.2425,0,V,10.0
V10,84.0,36.0,46.0,18.0,25.0,18,3027.0,square3,r,0.9485,2,V,10.0
V10,85.0,39.0,46.0,25.0,26.0,46,3073.0,square2,j,0.141,1,V,10.0
V10,86.0,39.0,50.0,27.0,27.0,50,3123.0,square2,j,0.2393,1,V,10.0
V10,87.0,38.0,46.0,20.0,30.0,46,3169.0,square2,j,0.1457,1,V,10.0
V10,88.0,37.0,49.0,22.0,28.0,49,3218.0,square2,j,0.0222,1,V,10.0
V10,89.0,34.0,51.0,25.0,26.0,51,3269.0,square2,j,0.047,1,V,10.0
V10,90.0,41.0,49.0,22.0,29.0,49,3318.0,square2,j,0.3422,1,V,10.0
V10,91.0,37.0,45.0,26.0,32.0,45,3363.0,square2,j,0.3594,1,V,10.0
V10,92.0,42.0,42.0,27.0,28.0,42,3405.0,square2,j,0.0004,1,V,10.0
V10,93.0,41.0,48.0,19.0,36.0,48,3453.0,square2,j,0.2278,1,V,10.0
V10,94.0,43.0,49.0,23.0,31.0,49,3502.0,square2,j,0.2651,1,V,10.0
V10,95.0,39.0,46.0,18.0,27.0,46,3548.0,square2,j,0.0004,1,V,10.0
V10,96.0,37.0,48.0,24.0,27.0,48,3596.0,square2,j,0.3018,1,V,10.0
V10,97.0,42.0,50.0,23.0,31.0,42,3638.0,square1,i,0.0004,0,V,10.0
V10,98.0,33.0,47.0,25.0,32.0,25,3663.0,square3,r,0.8625,2,V,10.0
V10,99.0,39.0,48.0,23.0,32.0,32,3695.0,square4,f,0.4783,3,V,10.0
V6,0.0,43.0,59.0,68.0,49.0,49,49.0,square4,i,1.2,3,V,6.0
V6,1.0,43.0,62.0,71.0,50.0,50,99.0,square4,i,0.0004,3,V,6.0
V6,2.0,48.0,61.0,72.0,51.0,72,171.0,square3,j,0.2615,2,V,6.0
V6,3.0,46.0,55.0,71.0,51.0,55,226.0,square2,f,0.0555,1,V,6.0
V6,4.0,44.0,61.0,74.0,48.0,44,270.0,square1,r,0.3587,0,V,6.0
V6,5.0,45.0,62.0,70.0,51.0,70,340.0,square3,j,0.2111,2,V,6.0
V6,6.0,42.0,67.0,73.0,46.0,73,413.0,square3,j,0.0772,2,V,6.0
V6,7.0,44.0,63.0,71.0,53.0,71,484.0,square3,j,0.1288,2,V,6.0
V6,8.0,41.0,62.0,73.0,52.0,73,557.0,square3,j,0.1472,2,V,6.0
V6,9.0,46.0,59.0,72.0,54.0,72,629.0,square3,j,0.0922,2,V,6.0
V6,10.0,45.0,59.0,70.0,53.0,70,699.0,square3,j,0.1163,2,V,6.0
V6,11.0,45.0,60.0,70.0,49.0,49,748.0,square4,i,0.3783,3,V,6.0
V6,12.0,45.0,66.0,64.0,48.0,45,793.0,square1,r,0.2442,0,V,6.0
V6,13.0,45.0,61.0,69.0,47.0,61,854.0,square2,f,0.0605,1,V,6.0
V6,14.0,47.0,60.0,71.0,56.0,71,925.0,square3,j,0.3237,2,V,6.0
V6,15.0,46.0,64.0,67.0,52.0,67,992.0,square3,j,0.0722,2,V,6.0
V6,16.0,50.0,60.0,69.0,54.0,69,1061.0,square3,j,0.1944,2,V,6.0
V6,17.0,43.0,60.0,70.0,53.0,70,1131.0,square3,j,0.2113,2,V,6.0
V6,18.0,46.0,63.0,72.0,55.0,72,1203.0,square3,j,0.3054,2,V,6.0
V6,19.0,46.0,65.0,73.0,51.0,73,1276.0,square3,j,0.2118,2,V,6.0
V6,20.0,44.0,63.0,66.0,51.0,66,1342.0,square3,j,0.1547,2,V,6.0
V6,21.0,43.0,63.0,70.0,49.0,70,1412.0,square3,j,0.3105,2,V,6.0
V6,22.0,45.0,63.0,71.0,50.0,71,1483.0,square3,j,0.1085,2,V,6.0
V6,23.0,45.0,38.0,28.0,60.0,60,1543.0,square4,i,0.0004,3,V,6.0
V6,24.0,46.0,33.0,33.0,53.0,46,1589.0,square1,r,0.1654,0,V,6.0
V6,25.0,45.0,36.0,32.0,63.0,36,1625.0,square2,f,0.1937,1,V,6.0
V6,26.0,52.0,37.0,28.0,57.0,28,1653.0,square3,j,0.1328,2,V,6.0
V6,27.0,45.0,33.0,30.0,62.0,30,1683.0,square3,j,0.1109,2,V,6.0
V6,28.0,43.0,37.0,24.0,51.0,51,1734.0,square4,i,0.359,3,V,6.0
V6,29.0,48.0,39.0,34.0,61.0,61,1795.0,square4,i,0.0225,3,V,6.0
V6,30.0,48.0,44.0,35.0,59.0,59,1854.0,square4,i,0.2244,3,V,6.0
V6,31.0,50.0,39.0,34.0,53.0,53,1907.0,square4,i,0.3456,3,V,6.0
V6,32.0,44.0,33.0,33.0,54.0,44,1951.0,square1,r,0.0004,0,V,6.0
V6,33.0,48.0,37.0,30.0,56.0,37,1988.0,square2,f,0.4755,1,V,6.0
V6,34.0,52.0,37.0,27.0,59.0,59,2047.0,square4,i,0.3603,3,V,6.0
V6,35.0,47.0,32.0,29.0,59.0,59,2106.0,square4,i,0.2454,3,V,6.0
V6,36.0,45.0,37.0,27.0,56.0,56,2162.0,square4,i,0.3421,3,V,6.0
V6,37.0,39.0,37.0,31.0,57.0,57,2219.0,square4,i,0.0892,3,V,6.0
V6,38.0,50.0,38.0,29.0,56.0,56,2275.0,square4,i,0.3445,3,V,6.0
V6,39.0,48.0,37.0,27.0,57.0,57,2332.0,square4,i,0.0763,3,V,6.0
V6,40.0,53.0,37.0,29.0,57.0,57,2389.0,square4,i,0.1929,3,V,6.0
V6,41.0,41.0,34.0,33.0,58.0,58,2447.0,square4,i,0.2424,3,V,6.0
V6,42.0,50.0,37.0,31.0,57.0,57,2504.0,square4,i,0.2767,3,V,6.0
V6,43.0,48.0,34.0,30.0,58.0,30,2534.0,square3,j,0.0004,2,V,6.0
V6,44.0,44.0,37.0,33.0,60.0,60,2594.0,square4,i,0.2486,3,V,6.0
V6,45.0,44.0,32.0,33.0,55.0,55,2649.0,square4,i,0.1615,3,V,6.0
V6,46.0,44.0,36.0,33.0,59.0,59,2708.0,square4,i,0.2596,3,V,6.0
V6,47.0,42.0,34.0,29.0,52.0,52,2760.0,square4,i,0.0128,3,V,6.0
V6,48.0,46.0,41.0,28.0,60.0,60,2820.0,square4,i,0.0425,3,V,6.0
V6,49.0,46.0,40.0,27.0,55.0,55,2875.0,square4,i,0.0815,3,V,6.0
V6,50.0,46.0,41.0,32.0,55.0,55,2930.0,square4,i,0.1576,3,V,6.0
V6,51.0,41.0,39.0,30.0,55.0,55,2985.0,square4,i,0.4214,3,V,6.0
V6,52.0,47.0,37.0,31.0,55.0,55,3040.0,square4,i,0.2445,3,V,6.0
V6,53.0,57.0,36.0,30.0,58.0,58,3098.0,square4,i,0.0436,3,V,6.0
V6,54.0,42.0,38.0,28.0,50.0,50,3148.0,square4,i,0.3563,3,V,6.0
V6,55.0,56.0,42.0,67.0,46.0,46,3194.0,square4,i,0.2267,3,V,6.0
V6,56.0,54.0,37.0,68.0,46.0,54,3248.0,square1,r,0.5256,0,V,6.0
V6,57.0,57.0,40.0,64.0,52.0,40,3288.0,square2,f,0.6926,1,V,6.0
V6,58.0,53.0,45.0,68.0,45.0,68,3356.0,square3,j,0.1787,2,V,6.0
V6,59.0,59.0,41.0,69.0,49.0,49,3405.0,square4,i,0.344,3,V,6.0
V6,60.0,62.0,41.0,71.0,51.0,71,3476.0,square3,j,0.1907,2,V,6.0
V6,61.0,58.0,50.0,72.0,51.0,72,3548.0,square3,j,0.3103,2,V,6.0
V6,62.0,61.0,43.0,65.0,47.0,65,3613.0,square3,j,0.3323,2,V,6.0
V6,63.0,55.0,40.0,67.0,51.0,67,3680.0,square3,j,0.042,2,V,6.0
V6,64.0,56.0,43.0,67.0,47.0,67,3747.0,square3,j,0.1635,2,V,6.0
V6,65.0,62.0,46.0,67.0,48.0,67,3814.0,square3,j,0.0256,2,V,6.0
V6,66.0,55.0,44.0,67.0,48.0,67,3881.0,square3,j,0.207,2,V,6.0
V6,67.0,61.0,46.0,70.0,49.0,70,3951.0,square3,j,0.2912,2,V,6.0
V6,68.0,63.0,41.0,72.0,46.0,72,4023.0,square3,j,0.1971,2,V,6.0
V6,69.0,59.0,41.0,68.0,48.0,68,4091.0,square3,j,0.233,2,V,6.0
V6,70.0,59.0,37.0,70.0,45.0,70,4161.0,square3,j,0.3083,2,V,6.0
V6,71.0,83.0,64.0,56.0,70.0,56,4217.0,square3,j,0.2591,2,V,6.0
V6,72.0,82.0,59.0,53.0,75.0,53,4270.0,square3,j,0.2476,2,V,6.0
V6,73.0,85.0,67.0,58.0,73.0,58,4328.0,square3,j,0.2433,2,V,6.0
V6,74.0,79.0,67.0,61.0,73.0,73,4401.0,square4,i,0.4904,3,V,6.0
V6,75.0,84.0,62.0,53.0,69.0,84,4485.0,square1,r,0.6932,0,V,6.0
V6,76.0,81.0,60.0,55.0,76.0,81,4566.0,square1,r,0.2308,0,V,6.0
V6,77.0,84.0,61.0,60.0,72.0,84,4650.0,square1,r,0.0803,0,V,6.0
V6,78.0,90.0,61.0,54.0,74.0,90,4740.0,square1,r,0.2056,0,V,6.0
V6,79.0,80.0,64.0,51.0,75.0,80,4820.0,square1,r,0.3216,0,V,6.0
V6,80.0,85.0,62.0,56.0,78.0,85,4905.0,square1,r,0.1553,0,V,6.0
V6,81.0,86.0,65.0,58.0,69.0,86,4991.0,square1,r,0.259,0,V,6.0
V6,82.0,83.0,62.0,58.0,77.0,83,5074.0,square1,r,0.272,0,V,6.0
V6,83.0,87.0,61.0,59.0,70.0,87,5161.0,square1,r,0.1829,0,V,6.0
V6,84.0,89.0,65.0,54.0,78.0,89,5250.0,square1,r,0.2892,0,V,6.0
V6,85.0,78.0,63.0,55.0,75.0,75,5325.0,square4,i,0.1555,3,V,6.0
V6,86.0,87.0,67.0,52.0,75.0,52,5377.0,square3,j,0.1541,2,V,6.0
V6,87.0,86.0,62.0,60.0,75.0,62,5439.0,square2,f,0.5586,1,V,6.0
V6,88.0,79.0,67.0,56.0,76.0,79,5518.0,square1,r,0.0004,0,V,6.0
V6,89.0,83.0,61.0,57.0,75.0,83,5601.0,square1,r,0.3723,0,V,6.0
V6,90.0,83.0,67.0,51.0,76.0,76,5677.0,square4,i,0.609,3,V,6.0
V6,91.0,83.0,63.0,55.0,69.0,83,5760.0,square1,r,0.4562,0,V,6.0
V6,92.0,89.0,56.0,53.0,68.0,89,5849.0,square1,r,0.2829,0,V,6.0
V6,93.0,84.0,61.0,59.0,74.0,84,5933.0,square1,r,0.0566,0,V,6.0
V6,94.0,77.0,58.0,58.0,76.0,77,6010.0,square1,r,0.0004,0,V,6.0
V6,95.0,82.0,60.0,53.0,74.0,82,6092.0,square1,r,0.022,0,V,6.0
V6,96.0,87.0,61.0,56.0,71.0,87,6179.0,square1,r,0.143,0,V,6.0
V6,97.0,83.0,66.0,55.0,75.0,83,6262.0,square1,r,0.1956,0,V,6.0
V6,98.0,81.0,63.0,55.0,76.0,81,6343.0,square1,r,0.2051,0,V,6.0
V6,99.0,92.0,63.0,61.0,78.0,92,6435.0,square1,r,0.0634,0,V,6.0
NS4,0.0,55.0,53.0,59.0,44.0,59,59.0,square3,r,1.2553,2,N,4.0
NS4,1.0,49.0,56.0,64.0,41.0,56,115.0,square2,j,0.004,1,N,4.0
NS4,2.0,50.0,54.0,71.0,48.0,50,165.0,square1,i,0.1153,0,N,4.0
NS4,3.0,53.0,58.0,67.0,50.0,50,215.0,square4,f,0.361,3,N,4.0
NS4,4.0,49.0,51.0,70.0,55.0,70,285.0,square3,r,0.1596,2,N,4.0
NS4,5.0,55.0,59.0,73.0,58.0,73,358.0,square3,r,0.0412,2,N,4.0
NS4,6.0,56.0,54.0,71.0,57.0,71,429.0,square3,r,0.1094,2,N,4.0
NS4,7.0,60.0,54.0,75.0,52.0,60,489.0,square1,i,0.0808,0,N,4.0
NS4,8.0,58.0,53.0,74.0,52.0,53,542.0,square2,j,0.3367,1,N,4.0
NS4,9.0,46.0,48.0,78.0,51.0,51,593.0,square4,f,0.3431,3,N,4.0
NS4,10.0,55.0,48.0,78.0,51.0,78,671.0,square3,r,0.1601,2,N,4.0
NS4,11.0,55.0,44.0,79.0,49.0,79,750.0,square3,r,0.211,2,N,4.0
NS4,12.0,50.0,40.0,79.0,50.0,79,829.0,square3,r,0.0003,2,N,4.0
NS4,13.0,45.0,39.0,79.0,53.0,79,908.0,square3,r,0.2292,2,N,4.0
NS4,14.0,44.0,38.0,77.0,56.0,77,985.0,square3,r,0.0656,2,N,4.0
NS4,15.0,45.0,32.0,68.0,52.0,68,1053.0,square3,r,0.0003,2,N,4.0
NS4,16.0,49.0,32.0,74.0,53.0,74,1127.0,square3,r,0.0598,2,N,4.0
NS4,17.0,45.0,32.0,69.0,51.0,69,1196.0,square3,r,0.0769,2,N,4.0
NS4,18.0,50.0,34.0,69.0,47.0,69,1265.0,square3,r,0.0004,2,N,4.0
NS4,19.0,50.0,36.0,65.0,53.0,65,1330.0,square3,r,0.2102,2,N,4.0
NS4,20.0,45.0,36.0,62.0,53.0,62,1392.0,square3,r,0.1054,2,N,4.0
NS4,21.0,49.0,35.0,62.0,55.0,62,1454.0,square3,r,0.0446,2,N,4.0
NS4,22.0,53.0,32.0,61.0,60.0,61,1515.0,square3,r,0.1055,2,N,4.0
NS4,23.0,52.0,33.0,58.0,54.0,58,1573.0,square3,r,0.0731,2,N,4.0
NS4,24.0,48.0,32.0,52.0,60.0,52,1625.0,square3,r,0.0931,2,N,4.0
NS4,25.0,47.0,30.0,53.0,57.0,47,1672.0,square1,i,0.144,0,N,4.0
NS4,26.0,50.0,30.0,60.0,55.0,30,1702.0,square2,j,0.1422,1,N,4.0
NS4,27.0,50.0,28.0,62.0,47.0,47,1749.0,square4,f,0.6123,3,N,4.0
NS4,28.0,54.0,28.0,58.0,49.0,58,1807.0,square3,r,0.0004,2,N,4.0
NS4,29.0,44.0,29.0,50.0,49.0,50,1857.0,square3,r,0.1229,2,N,4.0
NS4,30.0,43.0,26.0,55.0,57.0,55,1912.0,square3,r,0.0469,2,N,4.0
NS4,31.0,43.0,25.0,60.0,54.0,60,1972.0,square3,r,0.184,2,N,4.0
NS4,32.0,34.0,27.0,58.0,56.0,58,2030.0,square3,r,0.2095,2,N,4.0
NS4,33.0,34.0,20.0,60.0,62.0,60,2090.0,square3,r,0.0707,2,N,4.0
NS4,34.0,38.0,28.0,58.0,57.0,58,2148.0,square3,r,0.2218,2,N,4.0
NS4,35.0,40.0,24.0,63.0,59.0,63,2211.0,square3,r,0.0777,2,N,4.0
NS4,36.0,36.0,30.0,56.0,63.0,56,2267.0,square3,r,0.147,2,N,4.0
NS4,37.0,40.0,29.0,54.0,63.0,40,2307.0,square1,i,0.1268,0,N,4.0
NS4,38.0,40.0,33.0,53.0,69.0,33,2340.0,square2,j,0.4393,1,N,4.0
NS4,39.0,36.0,30.0,57.0,67.0,67,2407.0,square4,f,0.0889,3,N,4.0
NS4,40.0,33.0,33.0,58.0,68.0,58,2465.0,square3,r,0.333,2,N,4.0
NS4,41.0,34.0,28.0,58.0,72.0,72,2537.0,square4,f,0.1216,3,N,4.0
NS4,42.0,35.0,30.0,60.0,70.0,70,2607.0,square4,f,0.2939,3,N,4.0
NS4,43.0,35.0,34.0,57.0,63.0,63,2670.0,square4,f,0.1585,3,N,4.0
NS4,44.0,30.0,32.0,59.0,69.0,69,2739.0,square4,f,0.0372,3,N,4.0
NS4,45.0,29.0,31.0,60.0,66.0,66,2805.0,square4,f,0.1276,3,N,4.0
NS4,46.0,35.0,34.0,66.0,66.0,66,2871.0,square4,f,0.1191,3,N,4.0
NS4,47.0,35.0,28.0,63.0,62.0,62,2933.0,square4,f,0.0591,3,N,4.0
NS4,48.0,37.0,37.0,61.0,55.0,55,2988.0,square4,f,0.1278,3,N,4.0
NS4,49.0,40.0,34.0,59.0,54.0,59,3047.0,square3,r,0.2438,2,N,4.0
NS4,50.0,39.0,38.0,68.0,51.0,68,3115.0,square3,r,0.2816,2,N,4.0
NS4,51.0,46.0,28.0,69.0,48.0,69,3184.0,square3,r,0.1332,2,N,4.0
NS4,52.0,40.0,34.0,62.0,49.0,62,3246.0,square3,r,0.1613,2,N,4.0
NS4,53.0,39.0,34.0,63.0,48.0,63,3309.0,square3,r,0.0583,2,N,4.0
NS4,54.0,44.0,31.0,58.0,47.0,58,3367.0,square3,r,0.1141,2,N,4.0
NS4,55.0,42.0,30.0,68.0,46.0,46,3413.0,square4,f,0.0038,3,N,4.0
NS4,56.0,36.0,25.0,69.0,44.0,69,3482.0,square3,r,0.0114,2,N,4.0
NS4,57.0,35.0,29.0,71.0,46.0,35,3517.0,square1,i,0.1273,0,N,4.0
NS4,58.0,43.0,28.0,68.0,47.0,28,3545.0,square2,j,0.4303,1,N,4.0
NS4,59.0,43.0,27.0,67.0,43.0,67,3612.0,square3,r,0.1389,2,N,4.0
NS4,60.0,40.0,25.0,72.0,46.0,72,3684.0,square3,r,0.1607,2,N,4.0
NS4,61.0,39.0,32.0,63.0,43.0,63,3747.0,square3,r,0.0455,2,N,4.0
NS4,62.0,39.0,29.0,61.0,39.0,61,3808.0,square3,r,0.1669,2,N,4.0
NS4,63.0,41.0,28.0,59.0,40.0,59,3867.0,square3,r,0.1614,2,N,4.0
NS4,64.0,41.0,31.0,57.0,51.0,57,3924.0,square3,r,0.0247,2,N,4.0
NS4,65.0,46.0,36.0,59.0,58.0,46,3970.0,square1,i,0.0721,0,N,4.0
NS4,66.0,45.0,36.0,53.0,46.0,46,4016.0,square4,f,0.2418,3,N,4.0
NS4,67.0,40.0,34.0,49.0,46.0,34,4050.0,square2,j,0.012,1,N,4.0
NS4,68.0,43.0,37.0,48.0,48.0,48,4098.0,square3,r,0.0551,2,N,4.0
NS4,69.0,42.0,36.0,44.0,56.0,44,4142.0,square3,r,0.0261,2,N,4.0
NS4,70.0,40.0,38.0,47.0,58.0,58,4200.0,square4,f,0.2264,3,N,4.0
NS4,71.0,36.0,34.0,42.0,63.0,36,4236.0,square1,i,0.4992,0,N,4.0
NS4,72.0,38.0,36.0,36.0,66.0,66,4302.0,square4,f,0.0006,3,N,4.0
NS4,73.0,36.0,40.0,40.0,66.0,66,4368.0,square4,f,0.182,3,N,4.0
NS4,74.0,31.0,38.0,46.0,67.0,67,4435.0,square4,f,0.0598,3,N,4.0
NS4,75.0,40.0,33.0,42.0,64.0,64,4499.0,square4,f,0.2107,3,N,4.0
NS4,76.0,38.0,35.0,42.0,64.0,64,4563.0,square4,f,0.141,3,N,4.0
NS4,77.0,40.0,35.0,39.0,66.0,66,4629.0,square4,f,0.1096,3,N,4.0
NS4,78.0,40.0,33.0,38.0,68.0,68,4697.0,square4,f,0.2434,3,N,4.0
NS4,79.0,40.0,38.0,31.0,70.0,70,4767.0,square4,f,0.2261,3,N,4.0
NS4,80.0,37.0,35.0,33.0,73.0,73,4840.0,square4,f,0.1133,3,N,4.0
NS4,81.0,34.0,35.0,30.0,70.0,70,4910.0,square4,f,0.1233,3,N,4.0
NS4,82.0,35.0,37.0,31.0,66.0,66,4976.0,square4,f,0.2307,3,N,4.0
NS4,83.0,42.0,32.0,28.0,67.0,67,5043.0,square4,f,0.1054,3,N,4.0
NS4,84.0,38.0,35.0,30.0,68.0,68,5111.0,square4,f,0.094,3,N,4.0
NS4,85.0,43.0,35.0,32.0,64.0,64,5175.0,square4,f,0.0097,3,N,4.0
NS4,86.0,49.0,35.0,32.0,70.0,70,5245.0,square4,f,0.1558,3,N,4.0
NS4,87.0,48.0,34.0,32.0,69.0,69,5314.0,square4,f,0.0441,3,N,4.0
NS4,88.0,50.0,35.0,30.0,64.0,64,5378.0,square4,f,0.0468,3,N,4.0
NS4,89.0,48.0,34.0,32.0,68.0,68,5446.0,square4,f,0.2441,3,N,4.0
NS4,90.0,53.0,29.0,27.0,68.0,29,5475.0,square2,j,0.432,1,N,4.0
NS4,91.0,54.0,27.0,34.0,68.0,54,5529.0,square1,i,0.6444,0,N,4.0
NS4,92.0,52.0,20.0,35.0,69.0,35,5564.0,square3,r,0.4871,2,N,4.0
NS4,93.0,42.0,15.0,33.0,68.0,68,5632.0,square4,f,0.2344,3,N,4.0
NS4,94.0,40.0,24.0,37.0,72.0,72,5704.0,square4,f,0.0605,3,N,4.0
NS4,95.0,43.0,25.0,43.0,69.0,69,5773.0,square4,f,0.0003,3,N,4.0
NS4,96.0,41.0,29.0,43.0,74.0,74,5847.0,square4,f,0.2103,3,N,4.0
NS4,97.0,46.0,32.0,42.0,78.0,78,5925.0,square4,f,0.2934,3,N,4.0
NS4,98.0,48.0,26.0,46.0,75.0,75,6000.0,square4,f,0.5058,3,N,4.0
NS4,99.0,46.0,27.0,45.0,71.0,71,6071.0,square4,f,0.3986,3,N,4.0
NS8,0.0,61.0,62.0,34.0,32.0,32,32.0,square4,j,0.9909,3,N,8.0
NS8,1.0,57.0,56.0,38.0,27.0,27,59.0,square4,j,0.1154,3,N,8.0
NS8,2.0,66.0,55.0,42.0,28.0,55,114.0,square2,i,0.296,1,N,8.0
NS8,3.0,67.0,51.0,37.0,28.0,99999,114.0,invalid,,,-1,N,8.0
NS8,4.0,65.0,53.0,38.0,32.0,65,179.0,square1,r,0.044,0,N,8.0
NS8,5.0,67.0,52.0,43.0,33.0,43,222.0,square3,f,0.6956,2,N,8.0
NS8,6.0,56.0,47.0,41.0,36.0,56,278.0,square1,r,0.1232,0,N,8.0
NS8,7.0,58.0,46.0,37.0,31.0,37,315.0,square3,f,0.4302,2,N,8.0
NS8,8.0,60.0,58.0,36.0,35.0,35,350.0,square4,j,0.1121,3,N,8.0
NS8,9.0,60.0,66.0,41.0,39.0,66,416.0,square2,i,0.2792,1,N,8.0
NS8,10.0,60.0,60.0,36.0,33.0,60,476.0,square1,r,0.4438,0,N,8.0
NS8,11.0,53.0,63.0,32.0,35.0,63,539.0,square2,i,0.022,1,N,8.0
NS8,12.0,51.0,60.0,32.0,29.0,60,599.0,square2,i,0.0434,1,N,8.0
NS8,13.0,53.0,65.0,30.0,32.0,65,664.0,square2,i,0.1918,1,N,8.0
NS8,14.0,56.0,69.0,25.0,33.0,69,733.0,square2,i,0.0094,1,N,8.0
NS8,15.0,57.0,71.0,29.0,35.0,71,804.0,square2,i,0.1942,1,N,8.0
NS8,16.0,55.0,64.0,31.0,33.0,64,868.0,square2,i,0.2017,1,N,8.0
NS8,17.0,48.0,65.0,29.0,32.0,65,933.0,square2,i,0.1839,1,N,8.0
NS8,18.0,44.0,64.0,28.0,34.0,64,997.0,square2,i,0.1329,1,N,8.0
NS8,19.0,46.0,60.0,26.0,33.0,60,1057.0,square2,i,0.0884,1,N,8.0
NS8,20.0,41.0,58.0,29.0,35.0,58,1115.0,square2,i,0.0778,1,N,8.0
NS8,21.0,45.0,57.0,29.0,35.0,57,1172.0,square2,i,0.0596,1,N,8.0
NS8,22.0,47.0,53.0,32.0,32.0,47,1219.0,square1,r,0.1909,0,N,8.0
NS8,23.0,49.0,52.0,33.0,35.0,52,1271.0,square2,i,0.3021,1,N,8.0
NS8,24.0,56.0,53.0,30.0,37.0,30,1301.0,square3,f,0.4401,2,N,8.0
NS8,25.0,57.0,48.0,28.0,42.0,42,1343.0,square4,j,0.1815,3,N,8.0
NS8,26.0,52.0,48.0,33.0,43.0,48,1391.0,square2,i,0.1623,1,N,8.0
NS8,27.0,53.0,45.0,28.0,47.0,45,1436.0,square2,i,0.0557,1,N,8.0
NS8,28.0,50.0,43.0,27.0,41.0,43,1479.0,square2,i,0.06,1,N,8.0
NS8,29.0,53.0,52.0,29.0,43.0,52,1531.0,square2,i,0.0005,1,N,8.0
NS8,30.0,54.0,51.0,30.0,41.0,51,1582.0,square2,i,0.0307,1,N,8.0
NS8,31.0,50.0,50.0,31.0,42.0,50,1632.0,square2,i,0.0005,1,N,8.0
NS8,32.0,50.0,50.0,35.0,43.0,50,1682.0,square2,i,0.0276,1,N,8.0
NS8,33.0,46.0,48.0,39.0,41.0,48,1730.0,square2,i,0.1778,1,N,8.0
NS8,34.0,47.0,46.0,41.0,40.0,46,1776.0,square2,i,0.1952,1,N,8.0
NS8,35.0,57.0,45.0,36.0,37.0,57,1833.0,square1,r,0.2427,0,N,8.0
NS8,36.0,53.0,49.0,41.0,38.0,49,1882.0,square2,i,0.2021,1,N,8.0
NS8,37.0,57.0,50.0,41.0,39.0,50,1932.0,square2,i,0.0559,1,N,8.0
NS8,38.0,61.0,51.0,39.0,43.0,61,1993.0,square1,r,0.4689,0,N,8.0
NS8,39.0,59.0,54.0,41.0,36.0,59,2052.0,square1,r,0.0289,0,N,8.0
NS8,40.0,53.0,55.0,47.0,40.0,53,2105.0,square1,r,0.1604,0,N,8.0
NS8,41.0,53.0,55.0,43.0,39.0,53,2158.0,square1,r,0.1326,0,N,8.0
NS8,42.0,59.0,55.0,45.0,40.0,55,2213.0,square2,i,0.0003,1,N,8.0
NS8,43.0,54.0,46.0,51.0,37.0,46,2259.0,square2,i,0.1732,1,N,8.0
NS8,44.0,56.0,44.0,50.0,35.0,44,2303.0,square2,i,0.0761,1,N,8.0
NS8,45.0,51.0,46.0,41.0,37.0,51,2354.0,square1,r,0.1134,0,N,8.0
NS8,46.0,52.0,43.0,44.0,34.0,52,2406.0,square1,r,0.0335,0,N,8.0
NS8,47.0,46.0,41.0,36.0,37.0,46,2452.0,square1,r,0.0214,0,N,8.0
NS8,48.0,47.0,46.0,39.0,37.0,47,2499.0,square1,r,0.2609,0,N,8.0
NS8,49.0,48.0,36.0,38.0,40.0,48,2547.0,square1,r,0.2946,0,N,8.0
NS8,50.0,51.0,37.0,36.0,46.0,37,2584.0,square2,i,0.1274,1,N,8.0
NS8,51.0,53.0,38.0,40.0,43.0,53,2637.0,square1,r,0.1862,0,N,8.0
NS8,52.0,47.0,32.0,37.0,44.0,47,2684.0,square1,r,0.1751,0,N,8.0
NS8,53.0,52.0,31.0,38.0,46.0,52,2736.0,square1,r,0.1402,0,N,8.0
NS8,54.0,44.0,34.0,40.0,45.0,44,2780.0,square1,r,0.1628,0,N,8.0
NS8,55.0,46.0,26.0,37.0,41.0,46,2826.0,square1,r,0.123,0,N,8.0
NS8,56.0,42.0,29.0,36.0,40.0,42,2868.0,square1,r,0.0115,0,N,8.0
NS8,57.0,39.0,21.0,39.0,40.0,21,2889.0,square2,i,0.1128,1,N,8.0
NS8,58.0,42.0,18.0,39.0,40.0,40,2929.0,square4,j,0.463,3,N,8.0
NS8,59.0,46.0,16.0,41.0,39.0,41,2970.0,square3,f,0.393,2,N,8.0
NS8,60.0,45.0,20.0,40.0,39.0,45,3015.0,square1,r,0.161,0,N,8.0
NS8,61.0,45.0,26.0,42.0,39.0,45,3060.0,square1,r,0.1438,0,N,8.0
NS8,62.0,46.0,21.0,45.0,37.0,46,3106.0,square1,r,0.1489,0,N,8.0
NS8,63.0,50.0,23.0,40.0,38.0,50,3156.0,square1,r,0.1768,0,N,8.0
NS8,64.0,46.0,24.0,41.0,33.0,46,3202.0,square1,r,0.1399,0,N,8.0
NS8,65.0,48.0,28.0,42.0,32.0,48,3250.0,square1,r,0.1761,0,N,8.0
NS8,66.0,47.0,20.0,40.0,35.0,35,3285.0,square4,j,0.5496,3,N,8.0
NS8,67.0,49.0,25.0,46.0,34.0,46,3331.0,square3,f,0.2219,2,N,8.0
NS8,68.0,47.0,24.0,45.0,33.0,45,3376.0,square3,f,0.3439,2,N,8.0
NS8,69.0,45.0,21.0,47.0,35.0,47,3423.0,square3,f,0.1936,2,N,8.0
NS8,70.0,44.0,21.0,47.0,37.0,44,3467.0,square1,r,0.4957,0,N,8.0
NS8,71.0,44.0,15.0,41.0,38.0,41,3508.0,square3,f,0.0229,2,N,8.0
NS8,72.0,47.0,19.0,49.0,40.0,47,3555.0,square1,r,0.0003,0,N,8.0
NS8,73.0,39.0,21.0,53.0,38.0,39,3594.0,square1,r,0.073,0,N,8.0
NS8,74.0,42.0,19.0,53.0,35.0,53,3647.0,square3,f,0.3571,2,N,8.0
NS8,75.0,37.0,18.0,43.0,35.0,37,3684.0,square1,r,0.0593,0,N,8.0
NS8,76.0,35.0,14.0,42.0,38.0,35,3719.0,square1,r,0.111,0,N,8.0
NS8,77.0,38.0,19.0,47.0,44.0,47,3766.0,square3,f,0.0432,2,N,8.0
NS8,78.0,38.0,18.0,50.0,46.0,38,3804.0,square1,r,0.01,0,N,8.0
NS8,79.0,33.0,22.0,54.0,44.0,54,3858.0,square3,f,0.2265,2,N,8.0
NS8,80.0,38.0,21.0,56.0,52.0,21,3879.0,square2,i,0.1439,1,N,8.0
NS8,81.0,37.0,22.0,56.0,43.0,56,3935.0,square3,f,0.2067,2,N,8.0
NS8,82.0,30.0,26.0,60.0,42.0,60,3995.0,square3,f,0.0915,2,N,8.0
NS8,83.0,38.0,22.0,54.0,46.0,54,4049.0,square3,f,0.1429,2,N,8.0
NS8,84.0,33.0,18.0,52.0,46.0,52,4101.0,square3,f,0.1604,2,N,8.0
NS8,85.0,42.0,12.0,57.0,48.0,57,4158.0,square3,f,0.1619,2,N,8.0
NS8,86.0,45.0,19.0,58.0,42.0,58,4216.0,square3,f,0.1441,2,N,8.0
NS8,87.0,46.0,10.0,65.0,44.0,65,4281.0,square3,f,0.1894,2,N,8.0
NS8,88.0,45.0,11.0,59.0,45.0,59,4340.0,square3,f,0.1598,2,N,8.0
NS8,89.0,42.0,11.0,60.0,47.0,60,4400.0,square3,f,0.1759,2,N,8.0
NS8,90.0,40.0,7.0,64.0,49.0,64,4464.0,square3,f,0.1569,2,N,8.0
NS8,91.0,42.0,11.0,64.0,48.0,64,4528.0,square3,f,0.1716,2,N,8.0
NS8,92.0,43.0,13.0,60.0,43.0,60,4588.0,square3,f,0.1817,2,N,8.0
NS8,93.0,44.0,12.0,64.0,45.0,64,4652.0,square3,f,0.1979,2,N,8.0
NS8,94.0,45.0,16.0,65.0,49.0,65,4717.0,square3,f,0.1757,2,N,8.0
NS8,95.0,45.0,24.0,66.0,42.0,66,4783.0,square3,f,0.1598,2,N,8.0
NS8,96.0,53.0,27.0,67.0,44.0,67,4850.0,square3,f,0.1986,2,N,8.0
NS8,97.0,50.0,29.0,68.0,43.0,43,4893.0,square4,j,0.4136,3,N,8.0
NS8,98.0,52.0,29.0,66.0,37.0,66,4959.0,square3,f,0.1899,2,N,8.0
NS8,99.0,53.0,32.0,65.0,37.0,65,5024.0,square3,f,0.1218,2,N,8.0
NS6,0.0,68.0,18.0,30.0,58.0,30,30.0,square3,j,0.9347,2,N,6.0
NS6,1.0,62.0,23.0,38.0,67.0,38,68.0,square3,j,0.0478,2,N,6.0
NS6,2.0,59.0,30.0,33.0,67.0,99999,68.0,invalid,,,-1,N,6.0
NS6,3.0,62.0,27.0,39.0,65.0,27,95.0,square2,f,0.1781,1,N,6.0
NS6,4.0,65.0,22.0,32.0,67.0,65,160.0,square1,i,0.1215,0,N,6.0
NS6,5.0,61.0,28.0,39.0,67.0,67,227.0,square4,r,0.4563,3,N,6.0
NS6,6.0,59.0,28.0,39.0,66.0,66,293.0,square4,r,0.3604,3,N,6.0
NS6,7.0,56.0,30.0,43.0,63.0,63,356.0,square4,r,0.0005,3,N,6.0
NS6,8.0,57.0,26.0,36.0,60.0,57,413.0,square1,i,0.2259,0,N,6.0
NS6,9.0,51.0,30.0,38.0,65.0,65,478.0,square4,r,0.193,3,N,6.0
NS6,10.0,46.0,26.0,41.0,61.0,61,539.0,square4,r,0.0555,3,N,6.0
NS6,11.0,46.0,30.0,40.0,58.0,58,597.0,square4,r,0.1093,3,N,6.0
NS6,12.0,44.0,27.0,41.0,56.0,56,653.0,square4,r,0.1124,3,N,6.0
NS6,13.0,41.0,32.0,44.0,54.0,41,694.0,square1,i,0.187,0,N,6.0
NS6,14.0,45.0,36.0,41.0,51.0,36,730.0,square2,f,0.0886,1,N,6.0
NS6,15.0,37.0,34.0,39.0,54.0,39,769.0,square3,j,0.1739,2,N,6.0
NS6,16.0,36.0,37.0,39.0,48.0,48,817.0,square4,r,0.095,3,N,6.0
NS6,17.0,41.0,39.0,36.0,45.0,45,862.0,square4,r,0.1641,3,N,6.0
NS6,18.0,39.0,38.0,29.0,48.0,39,901.0,square1,i,0.0972,0,N,6.0
NS6,19.0,35.0,40.0,32.0,46.0,40,941.0,square2,f,0.0336,1,N,6.0
NS6,20.0,41.0,40.0,28.0,55.0,28,969.0,square3,j,0.2894,2,N,6.0
NS6,21.0,45.0,44.0,27.0,54.0,54,1023.0,square4,r,0.0913,3,N,6.0
NS6,22.0,44.0,51.0,31.0,53.0,53,1076.0,square4,r,0.1738,3,N,6.0
NS6,23.0,44.0,50.0,29.0,53.0,53,1129.0,square4,r,0.143,3,N,6.0
NS6,24.0,49.0,49.0,35.0,55.0,55,1184.0,square4,r,0.1404,3,N,6.0
NS6,25.0,44.0,51.0,36.0,56.0,56,1240.0,square4,r,0.0005,3,N,6.0
NS6,26.0,43.0,46.0,38.0,58.0,58,1298.0,square4,r,0.1099,3,N,6.0
NS6,27.0,41.0,44.0,41.0,59.0,59,1357.0,square4,r,0.1443,3,N,6.0
NS6,28.0,38.0,47.0,39.0,58.0,58,1415.0,square4,r,0.1065,3,N,6.0
NS6,29.0,39.0,46.0,37.0,54.0,54,1469.0,square4,r,0.1394,3,N,6.0
NS6,30.0,36.0,49.0,40.0,53.0,53,1522.0,square4,r,0.1724,3,N,6.0
NS6,31.0,37.0,45.0,36.0,55.0,55,1577.0,square4,r,0.1431,3,N,6.0
NS6,32.0,42.0,42.0,40.0,56.0,56,1633.0,square4,r,0.1766,3,N,6.0
NS6,33.0,33.0,44.0,32.0,53.0,53,1686.0,square4,r,0.1101,3,N,6.0
NS6,34.0,32.0,42.0,36.0,49.0,49,1735.0,square4,r,0.6448,3,N,6.0
NS6,35.0,35.0,28.0,38.0,51.0,28,1763.0,square2,f,0.3844,1,N,6.0
NS6,36.0,38.0,28.0,35.0,52.0,38,1801.0,square1,i,0.389,0,N,6.0
NS6,37.0,44.0,31.0,37.0,55.0,37,1838.0,square3,j,0.3297,2,N,6.0
NS6,38.0,36.0,31.0,36.0,54.0,54,1892.0,square4,r,0.6387,3,N,6.0
NS6,39.0,40.0,29.0,41.0,60.0,60,1952.0,square4,r,0.3049,3,N,6.0
NS6,40.0,46.0,33.0,36.0,62.0,62,2014.0,square4,r,0.2765,3,N,6.0
NS6,41.0,44.0,38.0,34.0,63.0,63,2077.0,square4,r,0.2877,3,N,6.0
NS6,42.0,43.0,32.0,29.0,59.0,59,2136.0,square4,r,0.2896,3,N,6.0
NS6,43.0,47.0,29.0,38.0,61.0,61,2197.0,square4,r,0.127,3,N,6.0
NS6,44.0,49.0,33.0,36.0,56.0,56,2253.0,square4,r,0.1604,3,N,6.0
NS6,45.0,51.0,29.0,32.0,60.0,60,2313.0,square4,r,0.1776,3,N,6.0
NS6,46.0,52.0,36.0,41.0,64.0,64,2377.0,square4,r,0.5326,3,N,6.0
NS6,47.0,55.0,35.0,46.0,60.0,60,2437.0,square4,r,0.0036,3,N,6.0
NS6,48.0,57.0,34.0,40.0,64.0,64,2501.0,square4,r,0.1191,3,N,6.0
NS6,49.0,54.0,37.0,42.0,59.0,59,2560.0,square4,r,0.5277,3,N,6.0
NS6,50.0,58.0,40.0,35.0,51.0,51,2611.0,square4,r,0.0005,3,N,6.0
NS6,51.0,64.0,35.0,36.0,53.0,53,2664.0,square4,r,0.1272,3,N,6.0
NS6,52.0,60.0,37.0,30.0,52.0,52,2716.0,square4,r,0.1327,3,N,6.0
NS6,53.0,63.0,40.0,30.0,54.0,54,2770.0,square4,r,0.0209,3,N,6.0
NS6,54.0,60.0,37.0,30.0,53.0,53,2823.0,square4,r,0.0291,3,N,6.0
NS6,55.0,57.0,40.0,29.0,50.0,50,2873.0,square4,r,0.0432,3,N,6.0
NS6,56.0,58.0,30.0,30.0,46.0,58,2931.0,square1,i,0.122,0,N,6.0
NS6,57.0,64.0,34.0,31.0,45.0,64,2995.0,square1,i,0.0436,0,N,6.0
NS6,58.0,66.0,31.0,34.0,48.0,66,3061.0,square1,i,0.1984,0,N,6.0
NS6,59.0,68.0,31.0,35.0,44.0,68,3129.0,square1,i,0.0003,0,N,6.0
NS6,60.0,65.0,28.0,27.0,49.0,65,3194.0,square1,i,0.0108,0,N,6.0
NS6,61.0,67.0,29.0,25.0,47.0,67,3261.0,square1,i,0.001,0,N,6.0
NS6,62.0,67.0,31.0,27.0,41.0,67,3328.0,square1,i,0.1992,0,N,6.0
NS6,63.0,69.0,32.0,24.0,45.0,69,3397.0,square1,i,0.0003,0,N,6.0
NS6,64.0,72.0,41.0,30.0,50.0,30,3427.0,square3,j,0.1818,2,N,6.0
NS6,65.0,75.0,35.0,33.0,50.0,35,3462.0,square2,f,0.4667,1,N,6.0
NS6,66.0,71.0,37.0,26.0,49.0,71,3533.0,square1,i,0.093,0,N,6.0
NS6,67.0,74.0,34.0,21.0,49.0,74,3607.0,square1,i,0.2135,0,N,6.0
NS6,68.0,81.0,37.0,27.0,50.0,81,3688.0,square1,i,0.0269,0,N,6.0
NS6,69.0,80.0,31.0,25.0,49.0,80,3768.0,square1,i,0.0428,0,N,6.0
NS6,70.0,83.0,33.0,31.0,46.0,83,3851.0,square1,i,0.0051,0,N,6.0
NS6,71.0,75.0,33.0,34.0,53.0,75,3926.0,square1,i,0.0052,0,N,6.0
NS6,72.0,73.0,39.0,32.0,55.0,73,3999.0,square1,i,0.0187,0,N,6.0
NS6,73.0,74.0,40.0,33.0,53.0,74,4073.0,square1,i,0.0034,0,N,6.0
NS6,74.0,73.0,46.0,32.0,50.0,73,4146.0,square1,i,0.0425,0,N,6.0
NS6,75.0,71.0,40.0,32.0,49.0,71,4217.0,square1,i,0.1807,0,N,6.0
NS6,76.0,65.0,43.0,31.0,56.0,56,4273.0,square4,r,0.0487,3,N,6.0
NS6,77.0,66.0,41.0,33.0,56.0,66,4339.0,square1,i,0.0944,0,N,6.0
NS6,78.0,71.0,40.0,38.0,64.0,71,4410.0,square1,i,0.0214,0,N,6.0
NS6,79.0,69.0,36.0,35.0,62.0,69,4479.0,square1,i,0.1782,0,N,6.0
NS6,80.0,69.0,34.0,37.0,69.0,69,4548.0,square1,i,0.0282,0,N,6.0
NS6,81.0,70.0,37.0,37.0,71.0,70,4618.0,square1,i,0.0018,0,N,6.0
NS6,82.0,68.0,38.0,39.0,66.0,68,4686.0,square1,i,0.0004,0,N,6.0
NS6,83.0,69.0,42.0,41.0,73.0,69,4755.0,square1,i,0.0388,0,N,6.0
NS6,84.0,62.0,42.0,42.0,70.0,62,4817.0,square1,i,0.0067,0,N,6.0
NS6,85.0,57.0,45.0,42.0,77.0,57,4874.0,square1,i,0.0603,0,N,6.0
NS6,86.0,58.0,47.0,44.0,70.0,58,4932.0,square1,i,0.0416,0,N,6.0
NS6,87.0,62.0,44.0,52.0,73.0,73,5005.0,square4,r,0.1106,3,N,6.0
NS6,88.0,62.0,45.0,47.0,72.0,72,5077.0,square4,r,0.2196,3,N,6.0
NS6,89.0,59.0,50.0,47.0,73.0,73,5150.0,square4,r,0.0794,3,N,6.0
NS6,90.0,55.0,45.0,44.0,68.0,68,5218.0,square4,r,0.0273,3,N,6.0
NS6,91.0,55.0,51.0,47.0,67.0,67,5285.0,square4,r,0.0392,3,N,6.0
NS6,92.0,62.0,52.0,35.0,69.0,69,5354.0,square4,r,0.0608,3,N,6.0
NS6,93.0,59.0,47.0,32.0,68.0,68,5422.0,square4,r,0.0926,3,N,6.0
NS6,94.0,67.0,53.0,44.0,66.0,66,5488.0,square4,r,0.0599,3,N,6.0
NS6,95.0,71.0,44.0,47.0,66.0,66,5554.0,square4,r,0.0624,3,N,6.0
NS6,96.0,68.0,53.0,47.0,66.0,66,5620.0,square4,r,0.0933,3,N,6.0
NS6,97.0,65.0,49.0,44.0,64.0,64,5684.0,square4,r,0.1026,3,N,6.0
NS6,98.0,66.0,54.0,55.0,57.0,57,5741.0,square4,r,0.1097,3,N,6.0
NS6,99.0,69.0,57.0,51.0,56.0,69,5810.0,square1,i,0.0035,0,N,6.0
