block,Trial,square1,square2,square3,square4,currPoints,totalPoints,square,choiceKey.keys,choiceKey.rt,armNum,blockType,blockNum
prac,0.0,100.0,0.0,0.0,0.0,0,0.0,square3,,,2,p,0.0
prac,1.0,100.0,0.0,0.0,0.0,0,0.0,square3,,,2,p,0.0
prac,2.0,100.0,0.0,0.0,0.0,99999,0.0,invalid,,,-1,p,0.0
prac,3.0,100.0,0.0,0.0,0.0,0,0.0,square3,,,2,p,0.0
prac,4.0,100.0,0.0,0.0,0.0,0,0.0,square4,,,3,p,0.0
prac,5.0,100.0,0.0,0.0,0.0,0,0.0,square4,,,3,p,0.0
prac,6.0,100.0,0.0,0.0,0.0,99999,0.0,invalid,,,-1,p,0.0
prac,7.0,100.0,0.0,0.0,0.0,0,0.0,square3,,,2,p,0.0
prac,8.0,100.0,0.0,0.0,0.0,0,0.0,square4,,,3,p,0.0
prac,9.0,100.0,0.0,0.0,0.0,100,100.0,square1,,,0,p,0.0
V7,0.0,86.0,61.0,78.0,68.0,99999,0.0,invalid,,,-1,V,7.0
V7,1.0,95.0,62.0,79.0,70.0,62,62.0,square2,r,0.53,1,V,7.0
V7,2.0,89.0,67.0,81.0,77.0,81,143.0,square3,i,1.796,2,V,7.0
V7,3.0,90.0,56.0,85.0,72.0,90,233.0,square1,f,0.701,0,V,7.0
V7,4.0,91.0,65.0,77.0,71.0,71,304.0,square4,j,0.511,3,V,7.0
V7,5.0,91.0,58.0,84.0,72.0,58,362.0,square2,r,0.666,1,V,7.0
V7,6.0,94.0,65.0,87.0,72.0,87,449.0,square3,i,0.265,2,V,7.0
V7,7.0,89.0,67.0,79.0,67.0,89,538.0,square1,f,0.528,0,V,7.0
V7,8.0,91.0,65.0,84.0,68.0,68,606.0,square4,j,0.156,3,V,7.0
V7,9.0,92.0,60.0,87.0,69.0,60,666.0,square2,r,0.279,1,V,7.0
V7,10.0,90.0,67.0,81.0,76.0,81,747.0,square3,i,0.471,2,V,7.0
V7,11.0,86.0,67.0,83.0,73.0,86,833.0,square1,f,0.247,0,V,7.0
V7,12.0,90.0,62.0,80.0,72.0,72,905.0,square4,j,0.121,3,V,7.0
V7,13.0,84.0,60.0,88.0,71.0,60,965.0,square2,r,0.071,1,V,7.0
V7,14.0,95.0,64.0,80.0,70.0,80,1045.0,square3,i,0.185,2,V,7.0
V7,15.0,86.0,60.0,81.0,70.0,86,1131.0,square1,f,0.213,0,V,7.0
V7,16.0,85.0,65.0,77.0,69.0,69,1200.0,square4,j,0.006,3,V,7.0
V7,17.0,91.0,65.0,81.0,70.0,65,1265.0,square2,r,0.331,1,V,7.0
V7,18.0,95.0,61.0,81.0,76.0,81,1346.0,square3,i,0.229,2,V,7.0
V7,19.0,90.0,58.0,79.0,72.0,90,1436.0,square1,f,0.247,0,V,7.0
V7,20.0,94.0,68.0,80.0,79.0,79,1515.0,square4,j,0.168,3,V,7.0
V7,21.0,92.0,66.0,82.0,70.0,70,1585.0,square4,j,0.278,3,V,7.0
V7,22.0,92.0,64.0,83.0,72.0,83,1668.0,square3,i,0.613,2,V,7.0
V7,23.0,91.0,68.0,82.0,73.0,99999,1668.0,invalid,,,-1,V,7.0
V7,24.0,87.0,71.0,82.0,72.0,71,1739.0,square2,r,0.92,1,V,7.0
V7,25.0,91.0,68.0,90.0,74.0,68,1807.0,square2,r,0.368,1,V,7.0
V7,26.0,89.0,65.0,83.0,72.0,72,1879.0,square4,j,0.296,3,V,7.0
V7,27.0,91.0,61.0,81.0,73.0,81,1960.0,square3,i,0.256,2,V,7.0
V7,28.0,90.0,66.0,81.0,72.0,66,2026.0,square2,r,0.295,1,V,7.0
V7,29.0,89.0,67.0,77.0,71.0,67,2093.0,square2,r,0.515,1,V,7.0
V7,30.0,95.0,68.0,84.0,71.0,95,2188.0,square1,f,0.612,0,V,7.0
V7,31.0,95.0,61.0,81.0,70.0,70,2258.0,square4,j,0.024,3,V,7.0
V7,32.0,89.0,65.0,82.0,75.0,82,2340.0,square3,i,0.255,2,V,7.0
V7,33.0,77.0,50.0,80.0,61.0,50,2390.0,square2,r,0.555,1,V,7.0
V7,34.0,76.0,54.0,78.0,61.0,99999,2390.0,invalid,,,-1,V,7.0
V7,35.0,71.0,51.0,80.0,64.0,99999,2390.0,invalid,,,-1,V,7.0
V7,36.0,75.0,51.0,80.0,62.0,80,2470.0,square3,i,0.652,2,V,7.0
V7,37.0,73.0,58.0,86.0,63.0,99999,2470.0,invalid,,,-1,V,7.0
V7,38.0,73.0,50.0,86.0,61.0,50,2520.0,square2,r,0.821,1,V,7.0
V7,39.0,67.0,53.0,78.0,61.0,78,2598.0,square3,i,0.494,2,V,7.0
V7,40.0,71.0,53.0,84.0,58.0,84,2682.0,square3,i,0.237,2,V,7.0
V7,41.0,75.0,51.0,83.0,63.0,99999,2682.0,invalid,,,-1,V,7.0
V7,42.0,69.0,48.0,87.0,63.0,69,2751.0,square1,f,0.089,0,V,7.0
V7,43.0,70.0,58.0,81.0,60.0,99999,2751.0,invalid,,,-1,V,7.0
V7,44.0,68.0,56.0,76.0,63.0,99999,2751.0,invalid,,,-1,V,7.0
V7,45.0,74.0,59.0,76.0,56.0,74,2825.0,square1,f,0.484,0,V,7.0
V7,46.0,72.0,54.0,77.0,61.0,54,2879.0,square2,r,0.355,1,V,7.0
V7,47.0,69.0,47.0,81.0,62.0,99999,2879.0,invalid,,,-1,V,7.0
V7,48.0,75.0,52.0,81.0,57.0,99999,2879.0,invalid,,,-1,V,7.0
V7,49.0,74.0,55.0,78.0,60.0,99999,2879.0,invalid,,,-1,V,7.0
V7,50.0,71.0,51.0,80.0,61.0,51,2930.0,square2,r,1.183,1,V,7.0
V7,51.0,75.0,55.0,85.0,62.0,75,3005.0,square1,f,0.312,0,V,7.0
V7,52.0,75.0,59.0,76.0,59.0,76,3081.0,square3,i,1.903,2,V,7.0
V7,53.0,72.0,53.0,84.0,66.0,84,3165.0,square3,i,0.413,2,V,7.0
V7,54.0,69.0,51.0,81.0,60.0,81,3246.0,square3,i,0.049,2,V,7.0
V7,55.0,74.0,56.0,75.0,54.0,75,3321.0,square3,i,0.005,2,V,7.0
V7,56.0,76.0,51.0,83.0,58.0,51,3372.0,square2,r,0.063,1,V,7.0
V7,57.0,71.0,53.0,80.0,64.0,53,3425.0,square2,r,0.298,1,V,7.0
V7,58.0,81.0,56.0,79.0,61.0,99999,3425.0,invalid,,,-1,V,7.0
V7,59.0,71.0,55.0,83.0,59.0,55,3480.0,square2,r,1.549,1,V,7.0
V7,60.0,73.0,53.0,83.0,64.0,83,3563.0,square3,i,0.031,2,V,7.0
V7,61.0,70.0,53.0,77.0,63.0,70,3633.0,square1,f,0.08,0,V,7.0
V7,62.0,71.0,54.0,76.0,61.0,61,3694.0,square4,j,0.103,3,V,7.0
V7,63.0,68.0,45.0,79.0,65.0,79,3773.0,square3,i,0.164,2,V,7.0
V7,64.0,65.0,55.0,79.0,59.0,79,3852.0,square3,i,0.062,2,V,7.0
V7,65.0,74.0,54.0,81.0,61.0,61,3913.0,square4,j,0.101,3,V,7.0
V7,66.0,70.0,56.0,81.0,63.0,63,3976.0,square4,j,0.163,3,V,7.0
V7,67.0,70.0,85.0,64.0,92.0,85,4061.0,square2,r,0.014,1,V,7.0
V7,68.0,73.0,85.0,68.0,92.0,73,4134.0,square1,f,0.047,0,V,7.0
V7,69.0,75.0,83.0,70.0,91.0,70,4204.0,square3,i,0.012,2,V,7.0
V7,70.0,75.0,85.0,69.0,91.0,85,4289.0,square2,r,0.218,1,V,7.0
V7,71.0,71.0,86.0,65.0,94.0,65,4354.0,square3,i,0.037,2,V,7.0
V7,72.0,77.0,86.0,65.0,98.0,86,4440.0,square2,r,0.034,1,V,7.0
V7,73.0,77.0,84.0,63.0,94.0,77,4517.0,square1,f,0.079,0,V,7.0
V7,74.0,71.0,86.0,64.0,91.0,91,4608.0,square4,j,0.0,3,V,7.0
V7,75.0,73.0,90.0,60.0,90.0,73,4681.0,square1,f,0.087,0,V,7.0
V7,76.0,79.0,84.0,68.0,95.0,68,4749.0,square3,i,0.072,2,V,7.0
V7,77.0,73.0,85.0,66.0,89.0,89,4838.0,square4,j,0.079,3,V,7.0
V7,78.0,75.0,82.0,67.0,91.0,67,4905.0,square3,i,0.068,2,V,7.0
V7,79.0,72.0,85.0,60.0,90.0,60,4965.0,square3,i,0.023,2,V,7.0
V7,80.0,73.0,83.0,66.0,97.0,83,5048.0,square2,r,0.078,1,V,7.0
V7,81.0,73.0,84.0,67.0,92.0,92,5140.0,square4,j,0.021,3,V,7.0
V7,82.0,69.0,84.0,65.0,91.0,69,5209.0,square1,f,0.015,0,V,7.0
V7,83.0,76.0,83.0,72.0,99.0,72,5281.0,square3,i,0.011,2,V,7.0
V7,84.0,72.0,84.0,70.0,94.0,70,5351.0,square3,i,0.05,2,V,7.0
V7,85.0,77.0,83.0,67.0,88.0,67,5418.0,square3,i,0.032,2,V,7.0
V7,86.0,76.0,80.0,67.0,90.0,67,5485.0,square3,i,0.196,2,V,7.0
V7,87.0,70.0,86.0,67.0,95.0,70,5555.0,square1,f,0.046,0,V,7.0
V7,88.0,76.0,84.0,67.0,100.0,67,5622.0,square3,i,0.019,2,V,7.0
V7,89.0,71.0,88.0,60.0,97.0,60,5682.0,square3,i,0.04,2,V,7.0
V7,90.0,69.0,82.0,71.0,95.0,82,5764.0,square2,r,0.132,1,V,7.0
V7,91.0,80.0,84.0,65.0,92.0,84,5848.0,square2,r,0.132,1,V,7.0
V7,92.0,77.0,85.0,68.0,85.0,85,5933.0,square4,j,0.065,3,V,7.0
V7,93.0,72.0,84.0,66.0,91.0,66,5999.0,square3,i,0.072,2,V,7.0
V7,94.0,69.0,83.0,66.0,95.0,95,6094.0,square4,j,0.087,3,V,7.0
V7,95.0,70.0,86.0,75.0,91.0,75,6169.0,square3,i,0.113,2,V,7.0
V7,96.0,74.0,85.0,66.0,88.0,88,6257.0,square4,j,0.089,3,V,7.0
V7,97.0,77.0,82.0,73.0,91.0,77,6334.0,square1,f,0.047,0,V,7.0
V7,98.0,76.0,91.0,62.0,94.0,62,6396.0,square3,i,0.019,2,V,7.0
V7,99.0,74.0,84.0,67.0,88.0,67,6463.0,square3,i,0.127,2,V,7.0
V8,0.0,49.0,55.0,64.0,74.0,74,74.0,square4,r,1.793,3,V,8.0
V8,1.0,51.0,54.0,70.0,81.0,54,128.0,square2,i,0.347,1,V,8.0
V8,2.0,46.0,62.0,70.0,77.0,46,174.0,square1,j,0.829,0,V,8.0
V8,3.0,46.0,56.0,67.0,75.0,67,241.0,square3,f,0.273,2,V,8.0
V8,4.0,50.0,59.0,67.0,83.0,83,324.0,square4,r,0.28,3,V,8.0
V8,5.0,51.0,54.0,65.0,78.0,78,402.0,square4,r,0.296,3,V,8.0
V8,6.0,45.0,57.0,66.0,80.0,80,482.0,square4,r,0.28,3,V,8.0
V8,7.0,46.0,64.0,68.0,77.0,46,528.0,square1,j,0.321,0,V,8.0
V8,8.0,50.0,57.0,66.0,73.0,57,585.0,square2,i,0.372,1,V,8.0
V8,9.0,46.0,56.0,71.0,72.0,71,656.0,square3,f,0.465,2,V,8.0
V8,10.0,56.0,58.0,67.0,75.0,75,731.0,square4,r,0.061,3,V,8.0
V8,11.0,50.0,61.0,69.0,74.0,74,805.0,square4,r,0.028,3,V,8.0
V8,12.0,59.0,59.0,69.0,77.0,77,882.0,square4,r,0.087,3,V,8.0
V8,13.0,50.0,56.0,72.0,77.0,77,959.0,square4,r,0.113,3,V,8.0
V8,14.0,48.0,55.0,65.0,80.0,80,1039.0,square4,r,0.047,3,V,8.0
V8,15.0,48.0,58.0,65.0,76.0,76,1115.0,square4,r,0.046,3,V,8.0
V8,16.0,49.0,58.0,67.0,75.0,75,1190.0,square4,r,0.001,3,V,8.0
V8,17.0,51.0,56.0,68.0,76.0,56,1246.0,square2,i,0.056,1,V,8.0
V8,18.0,52.0,63.0,69.0,80.0,63,1309.0,square2,i,0.18,1,V,8.0
V8,19.0,54.0,54.0,71.0,79.0,71,1380.0,square3,f,0.037,2,V,8.0
V8,20.0,48.0,53.0,62.0,77.0,62,1442.0,square3,f,0.064,2,V,8.0
V8,21.0,44.0,61.0,66.0,77.0,66,1508.0,square3,f,0.063,2,V,8.0
V8,22.0,52.0,58.0,64.0,78.0,64,1572.0,square3,f,0.083,2,V,8.0
V8,23.0,50.0,49.0,67.0,79.0,67,1639.0,square3,f,0.132,2,V,8.0
V8,24.0,49.0,59.0,69.0,74.0,69,1708.0,square3,f,0.1,2,V,8.0
V8,25.0,46.0,61.0,65.0,81.0,46,1754.0,square1,j,0.011,0,V,8.0
V8,26.0,49.0,58.0,63.0,35.0,49,1803.0,square1,j,0.146,0,V,8.0
V8,27.0,48.0,51.0,66.0,41.0,48,1851.0,square1,j,0.135,0,V,8.0
V8,28.0,46.0,55.0,65.0,38.0,46,1897.0,square1,j,0.001,0,V,8.0
V8,29.0,47.0,58.0,69.0,40.0,58,1955.0,square2,i,0.001,1,V,8.0
V8,30.0,42.0,55.0,67.0,43.0,55,2010.0,square2,i,0.112,1,V,8.0
V8,31.0,49.0,56.0,64.0,36.0,36,2046.0,square4,r,0.101,3,V,8.0
V8,32.0,49.0,55.0,69.0,38.0,38,2084.0,square4,r,0.045,3,V,8.0
V8,33.0,44.0,52.0,65.0,48.0,65,2149.0,square3,f,0.079,2,V,8.0
V8,34.0,44.0,57.0,70.0,45.0,70,2219.0,square3,f,0.028,2,V,8.0
V8,35.0,44.0,54.0,68.0,38.0,54,2273.0,square2,i,0.052,1,V,8.0
V8,36.0,45.0,56.0,64.0,40.0,45,2318.0,square1,j,0.179,0,V,8.0
V8,37.0,47.0,57.0,66.0,37.0,66,2384.0,square3,f,0.083,2,V,8.0
V8,38.0,49.0,50.0,66.0,37.0,66,2450.0,square3,f,0.061,2,V,8.0
V8,39.0,51.0,56.0,61.0,39.0,61,2511.0,square3,f,0.128,2,V,8.0
V8,40.0,47.0,59.0,66.0,41.0,66,2577.0,square3,f,0.13,2,V,8.0
V8,41.0,42.0,56.0,69.0,42.0,69,2646.0,square3,f,0.148,2,V,8.0
V8,42.0,47.0,57.0,72.0,35.0,72,2718.0,square3,f,0.017,2,V,8.0
V8,43.0,47.0,57.0,63.0,44.0,47,2765.0,square1,j,0.118,0,V,8.0
V8,44.0,45.0,58.0,67.0,42.0,58,2823.0,square2,i,0.146,1,V,8.0
V8,45.0,44.0,56.0,66.0,43.0,43,2866.0,square4,r,0.078,3,V,8.0
V8,46.0,46.0,53.0,70.0,37.0,37,2903.0,square4,r,0.08,3,V,8.0
V8,47.0,54.0,53.0,71.0,41.0,71,2974.0,square3,f,0.132,2,V,8.0
V8,48.0,49.0,53.0,69.0,37.0,69,3043.0,square3,f,0.114,2,V,8.0
V8,49.0,39.0,57.0,65.0,47.0,65,3108.0,square3,f,0.184,2,V,8.0
V8,50.0,48.0,55.0,65.0,41.0,65,3173.0,square3,f,0.203,2,V,8.0
V8,51.0,45.0,61.0,68.0,43.0,68,3241.0,square3,f,0.045,2,V,8.0
V8,52.0,53.0,52.0,68.0,37.0,68,3309.0,square3,f,0.029,2,V,8.0
V8,53.0,47.0,55.0,66.0,46.0,66,3375.0,square3,f,0.013,2,V,8.0
V8,54.0,49.0,53.0,61.0,39.0,53,3428.0,square2,i,0.161,1,V,8.0
V8,55.0,53.0,70.0,55.0,72.0,70,3498.0,square2,i,0.02,1,V,8.0
V8,56.0,57.0,63.0,48.0,73.0,63,3561.0,square2,i,0.182,1,V,8.0
V8,57.0,53.0,71.0,45.0,80.0,71,3632.0,square2,i,0.014,1,V,8.0
V8,58.0,57.0,69.0,52.0,73.0,69,3701.0,square2,i,0.019,1,V,8.0
V8,59.0,58.0,67.0,54.0,73.0,58,3759.0,square1,j,0.087,0,V,8.0
V8,60.0,55.0,66.0,47.0,76.0,55,3814.0,square1,j,0.03,0,V,8.0
V8,61.0,56.0,65.0,54.0,72.0,72,3886.0,square4,r,0.103,3,V,8.0
V8,62.0,56.0,65.0,49.0,75.0,75,3961.0,square4,r,0.123,3,V,8.0
V8,63.0,61.0,65.0,44.0,78.0,78,4039.0,square4,r,0.13,3,V,8.0
V8,64.0,54.0,66.0,48.0,75.0,75,4114.0,square4,r,0.171,3,V,8.0
V8,65.0,59.0,65.0,46.0,79.0,79,4193.0,square4,r,0.113,3,V,8.0
V8,66.0,51.0,62.0,46.0,73.0,73,4266.0,square4,r,0.083,3,V,8.0
V8,67.0,60.0,70.0,45.0,76.0,76,4342.0,square4,r,0.196,3,V,8.0
V8,68.0,63.0,64.0,47.0,73.0,73,4415.0,square4,r,0.012,3,V,8.0
V8,69.0,58.0,66.0,43.0,77.0,77,4492.0,square4,r,0.001,3,V,8.0
V8,70.0,59.0,65.0,49.0,73.0,59,4551.0,square1,j,0.045,0,V,8.0
V8,71.0,60.0,64.0,49.0,79.0,60,4611.0,square1,j,0.003,0,V,8.0
V8,72.0,96.0,68.0,78.0,67.0,78,4689.0,square3,f,0.165,2,V,8.0
V8,73.0,96.0,68.0,79.0,64.0,79,4768.0,square3,f,0.111,2,V,8.0
V8,74.0,92.0,67.0,81.0,62.0,81,4849.0,square3,f,0.157,2,V,8.0
V8,75.0,96.0,72.0,83.0,62.0,83,4932.0,square3,f,0.187,2,V,8.0
V8,76.0,94.0,70.0,77.0,57.0,77,5009.0,square3,f,0.019,2,V,8.0
V8,77.0,91.0,68.0,81.0,59.0,81,5090.0,square3,f,0.005,2,V,8.0
V8,78.0,90.0,73.0,80.0,63.0,73,5163.0,square2,i,0.062,1,V,8.0
V8,79.0,90.0,73.0,83.0,61.0,73,5236.0,square2,i,0.014,1,V,8.0
V8,80.0,95.0,75.0,81.0,66.0,66,5302.0,square4,r,0.096,3,V,8.0
V8,81.0,92.0,72.0,81.0,57.0,72,5374.0,square2,i,0.063,1,V,8.0
V8,82.0,91.0,71.0,80.0,61.0,80,5454.0,square3,f,0.114,2,V,8.0
V8,83.0,90.0,66.0,83.0,62.0,83,5537.0,square3,f,0.135,2,V,8.0
V8,84.0,93.0,67.0,87.0,65.0,93,5630.0,square1,j,0.057,0,V,8.0
V8,85.0,85.0,70.0,80.0,62.0,85,5715.0,square1,j,0.053,0,V,8.0
V8,86.0,84.0,72.0,85.0,62.0,84,5799.0,square1,j,0.104,0,V,8.0
V8,87.0,91.0,68.0,82.0,65.0,91,5890.0,square1,j,0.097,0,V,8.0
V8,88.0,93.0,67.0,83.0,61.0,93,5983.0,square1,j,0.045,0,V,8.0
V8,89.0,95.0,68.0,78.0,66.0,95,6078.0,square1,j,0.07,0,V,8.0
V8,90.0,91.0,73.0,80.0,60.0,91,6169.0,square1,j,0.181,0,V,8.0
V8,91.0,93.0,68.0,81.0,64.0,93,6262.0,square1,j,0.146,0,V,8.0
V8,92.0,90.0,75.0,82.0,67.0,90,6352.0,square1,j,0.031,0,V,8.0
V8,93.0,92.0,70.0,82.0,66.0,92,6444.0,square1,j,0.087,0,V,8.0
V8,94.0,90.0,71.0,78.0,63.0,90,6534.0,square1,j,0.082,0,V,8.0
V8,95.0,88.0,65.0,78.0,63.0,88,6622.0,square1,j,0.113,0,V,8.0
V8,96.0,89.0,72.0,85.0,62.0,89,6711.0,square1,j,0.047,0,V,8.0
V8,97.0,92.0,72.0,77.0,67.0,92,6803.0,square1,j,0.163,0,V,8.0
V8,98.0,86.0,63.0,82.0,62.0,86,6889.0,square1,j,0.096,0,V,8.0
V8,99.0,90.0,66.0,75.0,61.0,90,6979.0,square1,j,0.079,0,V,8.0
V3,0.0,62.0,45.0,70.0,53.0,45,45.0,square2,r,1.488,1,V,3.0
V3,1.0,63.0,47.0,76.0,60.0,47,92.0,square2,r,0.001,1,V,3.0
V3,2.0,65.0,54.0,73.0,57.0,54,146.0,square2,r,0.053,1,V,3.0
V3,3.0,68.0,51.0,71.0,51.0,68,214.0,square1,i,0.002,0,V,3.0
V3,4.0,61.0,49.0,75.0,53.0,61,275.0,square1,i,0.017,0,V,3.0
V3,5.0,65.0,47.0,74.0,50.0,50,325.0,square4,f,0.045,3,V,3.0
V3,6.0,61.0,51.0,72.0,57.0,57,382.0,square4,f,0.112,3,V,3.0
V3,7.0,67.0,49.0,75.0,55.0,75,457.0,square3,j,0.131,2,V,3.0
V3,8.0,64.0,48.0,76.0,56.0,76,533.0,square3,j,0.019,2,V,3.0
V3,9.0,67.0,49.0,71.0,56.0,71,604.0,square3,j,0.255,2,V,3.0
V3,10.0,65.0,50.0,71.0,56.0,71,675.0,square3,j,0.063,2,V,3.0
V3,11.0,63.0,43.0,78.0,58.0,78,753.0,square3,j,0.047,2,V,3.0
V3,12.0,66.0,53.0,73.0,54.0,73,826.0,square3,j,0.136,2,V,3.0
V3,13.0,64.0,46.0,78.0,51.0,78,904.0,square3,j,0.178,2,V,3.0
V3,14.0,67.0,51.0,71.0,58.0,71,975.0,square3,j,0.13,2,V,3.0
V3,15.0,61.0,50.0,73.0,54.0,73,1048.0,square3,j,0.162,2,V,3.0
V3,16.0,64.0,52.0,74.0,54.0,74,1122.0,square3,j,0.153,2,V,3.0
V3,17.0,61.0,48.0,74.0,55.0,74,1196.0,square3,j,0.136,2,V,3.0
V3,18.0,65.0,50.0,70.0,59.0,70,1266.0,square3,j,0.145,2,V,3.0
V3,19.0,64.0,52.0,76.0,56.0,76,1342.0,square3,j,0.213,2,V,3.0
V3,20.0,64.0,50.0,69.0,58.0,69,1411.0,square3,j,0.129,2,V,3.0
V3,21.0,66.0,50.0,72.0,56.0,72,1483.0,square3,j,0.01,2,V,3.0
V3,22.0,43.0,48.0,40.0,62.0,40,1523.0,square3,j,0.001,2,V,3.0
V3,23.0,41.0,51.0,35.0,59.0,51,1574.0,square2,r,0.063,1,V,3.0
V3,24.0,51.0,51.0,37.0,60.0,51,1625.0,square2,r,0.095,1,V,3.0
V3,25.0,45.0,53.0,36.0,57.0,45,1670.0,square1,i,0.062,0,V,3.0
V3,26.0,44.0,51.0,38.0,59.0,44,1714.0,square1,i,0.105,0,V,3.0
V3,27.0,43.0,51.0,34.0,66.0,66,1780.0,square4,f,0.145,3,V,3.0
V3,28.0,47.0,51.0,40.0,67.0,67,1847.0,square4,f,0.038,3,V,3.0
V3,29.0,42.0,55.0,35.0,65.0,55,1902.0,square2,r,0.087,1,V,3.0
V3,30.0,49.0,54.0,36.0,62.0,62,1964.0,square4,f,0.254,3,V,3.0
V3,31.0,50.0,53.0,42.0,66.0,66,2030.0,square4,f,0.001,3,V,3.0
V3,32.0,47.0,53.0,34.0,58.0,34,2064.0,square3,j,0.02,2,V,3.0
V3,33.0,45.0,56.0,34.0,62.0,45,2109.0,square1,i,0.146,0,V,3.0
V3,34.0,48.0,54.0,38.0,64.0,48,2157.0,square1,i,0.001,0,V,3.0
V3,35.0,39.0,55.0,42.0,65.0,55,2212.0,square2,r,0.037,1,V,3.0
V3,36.0,46.0,57.0,41.0,63.0,63,2275.0,square4,f,0.028,3,V,3.0
V3,37.0,43.0,54.0,41.0,65.0,65,2340.0,square4,f,0.161,3,V,3.0
V3,38.0,47.0,52.0,37.0,63.0,63,2403.0,square4,f,0.085,3,V,3.0
V3,39.0,47.0,53.0,38.0,55.0,55,2458.0,square4,f,0.061,3,V,3.0
V3,40.0,41.0,54.0,39.0,64.0,64,2522.0,square4,f,0.118,3,V,3.0
V3,41.0,48.0,52.0,38.0,64.0,38,2560.0,square3,j,0.069,2,V,3.0
V3,42.0,45.0,50.0,34.0,63.0,34,2594.0,square3,j,0.128,2,V,3.0
V3,43.0,44.0,50.0,34.0,62.0,44,2638.0,square1,i,0.031,0,V,3.0
V3,44.0,47.0,55.0,39.0,65.0,55,2693.0,square2,r,0.079,1,V,3.0
V3,45.0,45.0,55.0,31.0,63.0,63,2756.0,square4,f,0.179,3,V,3.0
V3,46.0,42.0,52.0,38.0,64.0,64,2820.0,square4,f,0.013,3,V,3.0
V3,47.0,44.0,53.0,37.0,55.0,55,2875.0,square4,f,0.166,3,V,3.0
V3,48.0,44.0,49.0,37.0,58.0,58,2933.0,square4,f,0.179,3,V,3.0
V3,49.0,48.0,58.0,35.0,54.0,54,2987.0,square4,f,0.101,3,V,3.0
V3,50.0,42.0,28.0,30.0,52.0,52,3039.0,square4,f,0.13,3,V,3.0
V3,51.0,46.0,29.0,32.0,51.0,46,3085.0,square1,i,0.001,0,V,3.0
V3,52.0,37.0,20.0,36.0,50.0,36,3121.0,square3,j,0.103,2,V,3.0
V3,53.0,44.0,22.0,34.0,55.0,34,3155.0,square3,j,0.095,2,V,3.0
V3,54.0,37.0,27.0,26.0,50.0,27,3182.0,square2,r,0.119,1,V,3.0
V3,55.0,41.0,21.0,39.0,53.0,53,3235.0,square4,f,0.154,3,V,3.0
V3,56.0,40.0,20.0,38.0,51.0,40,3275.0,square1,i,0.112,0,V,3.0
V3,57.0,44.0,28.0,31.0,57.0,44,3319.0,square1,i,0.054,0,V,3.0
V3,58.0,46.0,20.0,28.0,49.0,49,3368.0,square4,f,0.151,3,V,3.0
V3,59.0,44.0,24.0,30.0,55.0,55,3423.0,square4,f,0.121,3,V,3.0
V3,60.0,42.0,29.0,29.0,51.0,51,3474.0,square4,f,0.163,3,V,3.0
V3,61.0,41.0,21.0,30.0,46.0,46,3520.0,square4,f,0.188,3,V,3.0
V3,62.0,41.0,27.0,31.0,49.0,49,3569.0,square4,f,0.064,3,V,3.0
V3,63.0,42.0,27.0,34.0,51.0,51,3620.0,square4,f,0.013,3,V,3.0
V3,64.0,41.0,24.0,30.0,47.0,30,3650.0,square3,j,0.097,2,V,3.0
V3,65.0,36.0,18.0,34.0,48.0,36,3686.0,square1,i,0.11,0,V,3.0
V3,66.0,39.0,28.0,35.0,45.0,28,3714.0,square2,r,0.001,1,V,3.0
V3,67.0,42.0,21.0,32.0,46.0,21,3735.0,square2,r,0.151,1,V,3.0
V3,68.0,40.0,24.0,35.0,53.0,53,3788.0,square4,f,0.163,3,V,3.0
V3,69.0,48.0,23.0,34.0,50.0,50,3838.0,square4,f,0.029,3,V,3.0
V3,70.0,40.0,27.0,31.0,49.0,49,3887.0,square4,f,0.061,3,V,3.0
V3,71.0,41.0,23.0,28.0,51.0,51,3938.0,square4,f,0.071,3,V,3.0
V3,72.0,42.0,25.0,33.0,55.0,55,3993.0,square4,f,0.08,3,V,3.0
V3,73.0,41.0,24.0,35.0,55.0,55,4048.0,square4,f,0.022,3,V,3.0
V3,74.0,38.0,26.0,28.0,53.0,38,4086.0,square1,i,0.161,0,V,3.0
V3,75.0,54.0,39.0,69.0,50.0,39,4125.0,square2,r,0.265,1,V,3.0
V3,76.0,55.0,42.0,64.0,53.0,64,4189.0,square3,j,0.014,2,V,3.0
V3,77.0,59.0,37.0,66.0,44.0,66,4255.0,square3,j,0.094,2,V,3.0
V3,78.0,58.0,38.0,60.0,46.0,60,4315.0,square3,j,0.144,2,V,3.0
V3,79.0,54.0,35.0,66.0,49.0,49,4364.0,square4,f,0.015,3,V,3.0
V3,80.0,60.0,36.0,68.0,44.0,68,4432.0,square3,j,0.002,2,V,3.0
V3,81.0,55.0,38.0,66.0,51.0,66,4498.0,square3,j,0.027,2,V,3.0
V3,82.0,57.0,47.0,64.0,50.0,57,4555.0,square1,i,0.105,0,V,3.0
V3,83.0,57.0,37.0,63.0,45.0,37,4592.0,square2,r,0.103,1,V,3.0
V3,84.0,54.0,40.0,65.0,53.0,53,4645.0,square4,f,0.085,3,V,3.0
V3,85.0,58.0,41.0,63.0,48.0,63,4708.0,square3,j,0.013,2,V,3.0
V3,86.0,53.0,38.0,57.0,49.0,53,4761.0,square1,i,0.08,0,V,3.0
V3,87.0,49.0,42.0,60.0,43.0,49,4810.0,square1,i,0.0,0,V,3.0
V3,88.0,56.0,35.0,70.0,46.0,70,4880.0,square3,j,0.047,2,V,3.0
V3,89.0,58.0,39.0,63.0,52.0,63,4943.0,square3,j,0.136,2,V,3.0
V3,90.0,59.0,43.0,63.0,45.0,63,5006.0,square3,j,0.02,2,V,3.0
V3,91.0,54.0,37.0,69.0,49.0,37,5043.0,square2,r,0.112,1,V,3.0
V3,92.0,56.0,41.0,61.0,47.0,47,5090.0,square4,f,0.063,3,V,3.0
V3,93.0,58.0,35.0,68.0,47.0,58,5148.0,square1,i,0.203,0,V,3.0
V3,94.0,61.0,37.0,67.0,51.0,67,5215.0,square3,j,0.08,2,V,3.0
V3,95.0,57.0,32.0,64.0,47.0,64,5279.0,square3,j,0.014,2,V,3.0
V3,96.0,53.0,38.0,63.0,48.0,48,5327.0,square4,f,0.762,3,V,3.0
V3,97.0,57.0,44.0,71.0,50.0,44,5371.0,square2,r,0.679,1,V,3.0
V3,98.0,56.0,39.0,70.0,47.0,56,5427.0,square1,i,0.229,0,V,3.0
V3,99.0,62.0,40.0,67.0,49.0,67,5494.0,square3,j,1.345,2,V,3.0
S5,0.0,90.0,70.0,79.0,84.0,79,79.0,square3,i,1.175,2,S,5.0
S5,1.0,92.0,77.0,83.0,81.0,83,162.0,square3,i,0.28,2,S,5.0
S5,2.0,83.0,72.0,81.0,76.0,81,243.0,square3,i,0.056,2,S,5.0
S5,3.0,87.0,72.0,79.0,81.0,87,330.0,square1,r,0.862,0,S,5.0
S5,4.0,86.0,81.0,78.0,72.0,86,416.0,square1,r,0.235,0,S,5.0
S5,5.0,89.0,70.0,79.0,83.0,89,505.0,square1,r,0.028,0,S,5.0
S5,6.0,86.0,69.0,81.0,81.0,69,574.0,square2,f,0.102,1,S,5.0
S5,7.0,82.0,72.0,86.0,80.0,80,654.0,square4,j,0.255,3,S,5.0
S5,8.0,84.0,67.0,80.0,77.0,80,734.0,square3,i,0.095,2,S,5.0
S5,9.0,92.0,80.0,86.0,84.0,86,820.0,square3,i,0.079,2,S,5.0
S5,10.0,82.0,71.0,80.0,80.0,82,902.0,square1,r,0.133,0,S,5.0
S5,11.0,80.0,75.0,79.0,75.0,80,982.0,square1,r,0.146,0,S,5.0
S5,12.0,84.0,75.0,80.0,82.0,84,1066.0,square1,r,0.212,0,S,5.0
S5,13.0,85.0,74.0,74.0,81.0,74,1140.0,square3,i,0.062,2,S,5.0
S5,14.0,81.0,79.0,85.0,81.0,85,1225.0,square3,i,0.034,2,S,5.0
S5,15.0,81.0,75.0,76.0,77.0,76,1301.0,square3,i,0.114,2,S,5.0
S5,16.0,86.0,74.0,78.0,74.0,78,1379.0,square3,i,0.178,2,S,5.0
S5,17.0,81.0,77.0,81.0,77.0,77,1456.0,square4,j,0.153,3,S,5.0
S5,18.0,87.0,70.0,84.0,82.0,82,1538.0,square4,j,0.114,3,S,5.0
S5,19.0,84.0,76.0,83.0,76.0,76,1614.0,square4,j,0.005,3,S,5.0
S5,20.0,79.0,78.0,82.0,76.0,76,1690.0,square4,j,0.001,3,S,5.0
S5,21.0,86.0,68.0,80.0,72.0,68,1758.0,square2,f,0.212,1,S,5.0
S5,22.0,93.0,80.0,85.0,84.0,80,1838.0,square2,f,0.18,1,S,5.0
S5,23.0,87.0,73.0,76.0,70.0,87,1925.0,square1,r,0.013,0,S,5.0
S5,24.0,85.0,69.0,81.0,78.0,85,2010.0,square1,r,0.046,0,S,5.0
S5,25.0,89.0,77.0,77.0,76.0,89,2099.0,square1,r,0.0,0,S,5.0
S5,26.0,84.0,71.0,81.0,75.0,84,2183.0,square1,r,0.019,0,S,5.0
S5,27.0,84.0,75.0,82.0,71.0,84,2267.0,square1,r,0.046,0,S,5.0
S5,28.0,83.0,72.0,82.0,78.0,83,2350.0,square1,r,0.163,0,S,5.0
S5,29.0,91.0,67.0,79.0,74.0,91,2441.0,square1,r,0.078,0,S,5.0
S5,30.0,82.0,69.0,81.0,77.0,82,2523.0,square1,r,0.067,0,S,5.0
S5,31.0,82.0,72.0,80.0,78.0,82,2605.0,square1,r,0.001,0,S,5.0
S5,32.0,83.0,73.0,91.0,80.0,83,2688.0,square1,r,0.019,0,S,5.0
S5,33.0,83.0,68.0,85.0,78.0,83,2771.0,square1,r,0.018,0,S,5.0
S5,34.0,89.0,79.0,83.0,77.0,89,2860.0,square1,r,0.114,0,S,5.0
S5,35.0,88.0,72.0,79.0,80.0,88,2948.0,square1,r,0.082,0,S,5.0
S5,36.0,90.0,74.0,84.0,76.0,90,3038.0,square1,r,0.084,0,S,5.0
S5,37.0,85.0,75.0,80.0,82.0,85,3123.0,square1,r,0.034,0,S,5.0
S5,38.0,78.0,74.0,85.0,79.0,78,3201.0,square1,r,0.096,0,S,5.0
S5,39.0,87.0,73.0,87.0,85.0,87,3288.0,square1,r,0.045,0,S,5.0
S5,40.0,83.0,67.0,81.0,80.0,83,3371.0,square1,r,0.05,0,S,5.0
S5,41.0,82.0,69.0,88.0,80.0,82,3453.0,square1,r,0.046,0,S,5.0
S5,42.0,85.0,78.0,91.0,80.0,85,3538.0,square1,r,0.162,0,S,5.0
S5,43.0,89.0,74.0,78.0,74.0,89,3627.0,square1,r,0.286,0,S,5.0
S5,44.0,90.0,74.0,77.0,85.0,90,3717.0,square1,r,0.028,0,S,5.0
S5,45.0,89.0,68.0,81.0,78.0,89,3806.0,square1,r,0.283,0,S,5.0
S5,46.0,86.0,70.0,86.0,68.0,86,3892.0,square1,r,0.096,0,S,5.0
S5,47.0,90.0,77.0,85.0,84.0,90,3982.0,square1,r,0.231,0,S,5.0
S5,48.0,76.0,66.0,82.0,79.0,76,4058.0,square1,r,0.236,0,S,5.0
S5,49.0,84.0,73.0,82.0,75.0,84,4142.0,square1,r,0.001,0,S,5.0
S12,0.0,38.0,42.0,30.0,42.0,99999,0.0,invalid,,,-1,S,12.0
S12,1.0,30.0,42.0,28.0,37.0,30,30.0,square1,f,0.184,0,S,12.0
S12,2.0,34.0,41.0,38.0,43.0,41,71.0,square2,j,0.072,1,S,12.0
S12,3.0,38.0,51.0,38.0,38.0,38,109.0,square4,i,0.029,3,S,12.0
S12,4.0,32.0,37.0,33.0,45.0,33,142.0,square3,r,0.112,2,S,12.0
S12,5.0,38.0,52.0,36.0,35.0,35,177.0,square4,i,0.078,3,S,12.0
S12,6.0,30.0,43.0,30.0,38.0,43,220.0,square2,j,0.037,1,S,12.0
S12,7.0,38.0,39.0,30.0,39.0,38,258.0,square1,f,0.151,0,S,12.0
S12,8.0,37.0,49.0,35.0,38.0,49,307.0,square2,j,0.148,1,S,12.0
S12,9.0,37.0,44.0,29.0,38.0,38,345.0,square4,i,0.062,3,S,12.0
S12,10.0,35.0,42.0,30.0,45.0,30,375.0,square3,r,0.111,2,S,12.0
S12,11.0,34.0,45.0,36.0,32.0,34,409.0,square1,f,0.055,0,S,12.0
S12,12.0,33.0,45.0,35.0,42.0,45,454.0,square2,j,0.022,1,S,12.0
S12,13.0,36.0,36.0,29.0,40.0,36,490.0,square2,j,0.043,1,S,12.0
S12,14.0,36.0,49.0,32.0,42.0,49,539.0,square2,j,0.016,1,S,12.0
S12,15.0,35.0,43.0,35.0,46.0,43,582.0,square2,j,0.095,1,S,12.0
S12,16.0,39.0,48.0,41.0,43.0,48,630.0,square2,j,0.23,1,S,12.0
S12,17.0,35.0,47.0,27.0,38.0,47,677.0,square2,j,0.196,1,S,12.0
S12,18.0,37.0,51.0,33.0,33.0,51,728.0,square2,j,0.162,1,S,12.0
S12,19.0,41.0,42.0,33.0,36.0,42,770.0,square2,j,0.03,1,S,12.0
S12,20.0,34.0,44.0,26.0,41.0,44,814.0,square2,j,0.029,1,S,12.0
S12,21.0,35.0,37.0,29.0,35.0,37,851.0,square2,j,0.018,1,S,12.0
S12,22.0,37.0,48.0,31.0,41.0,48,899.0,square2,j,0.111,1,S,12.0
S12,23.0,36.0,43.0,27.0,45.0,43,942.0,square2,j,0.021,1,S,12.0
S12,24.0,39.0,48.0,38.0,38.0,48,990.0,square2,j,0.114,1,S,12.0
S12,25.0,31.0,43.0,30.0,40.0,43,1033.0,square2,j,0.215,1,S,12.0
S12,26.0,35.0,48.0,34.0,33.0,48,1081.0,square2,j,0.054,1,S,12.0
S12,27.0,46.0,46.0,28.0,38.0,46,1127.0,square2,j,0.132,1,S,12.0
S12,28.0,32.0,37.0,32.0,40.0,37,1164.0,square2,j,0.062,1,S,12.0
S12,29.0,38.0,41.0,32.0,44.0,41,1205.0,square2,j,0.018,1,S,12.0
S12,30.0,32.0,48.0,29.0,42.0,48,1253.0,square2,j,0.117,1,S,12.0
S12,31.0,34.0,46.0,30.0,42.0,42,1295.0,square4,i,0.095,3,S,12.0
S12,32.0,39.0,43.0,41.0,40.0,40,1335.0,square4,i,0.037,3,S,12.0
S12,33.0,36.0,47.0,33.0,46.0,33,1368.0,square3,r,0.194,2,S,12.0
S12,34.0,36.0,41.0,34.0,41.0,36,1404.0,square1,f,0.178,0,S,12.0
S12,35.0,34.0,42.0,31.0,43.0,43,1447.0,square4,i,0.094,3,S,12.0
S12,36.0,39.0,43.0,26.0,33.0,43,1490.0,square2,j,0.149,1,S,12.0
S12,37.0,39.0,49.0,30.0,42.0,49,1539.0,square2,j,0.166,1,S,12.0
S12,38.0,33.0,47.0,36.0,41.0,47,1586.0,square2,j,0.001,1,S,12.0
S12,39.0,29.0,46.0,35.0,36.0,46,1632.0,square2,j,0.044,1,S,12.0
S12,40.0,39.0,39.0,29.0,36.0,36,1668.0,square4,i,0.119,3,S,12.0
S12,41.0,33.0,44.0,31.0,40.0,40,1708.0,square4,i,0.028,3,S,12.0
S12,42.0,34.0,46.0,25.0,37.0,37,1745.0,square4,i,0.015,3,S,12.0
S12,43.0,37.0,42.0,30.0,42.0,42,1787.0,square4,i,0.08,3,S,12.0
S12,44.0,33.0,49.0,36.0,39.0,39,1826.0,square4,i,0.028,3,S,12.0
S12,45.0,35.0,40.0,30.0,47.0,47,1873.0,square4,i,0.081,3,S,12.0
S12,46.0,40.0,41.0,29.0,35.0,35,1908.0,square4,i,0.213,3,S,12.0
S12,47.0,32.0,42.0,28.0,43.0,43,1951.0,square4,i,0.095,3,S,12.0
S12,48.0,43.0,47.0,31.0,38.0,38,1989.0,square4,i,0.279,3,S,12.0
S12,49.0,37.0,41.0,35.0,40.0,40,2029.0,square4,i,0.12,3,S,12.0
S1,0.0,72.0,58.0,70.0,66.0,70,70.0,square3,j,1.17,2,S,1.0
S1,1.0,75.0,64.0,66.0,69.0,75,145.0,square1,i,0.083,0,S,1.0
S1,2.0,75.0,62.0,62.0,79.0,79,224.0,square4,r,0.329,3,S,1.0
S1,3.0,68.0,62.0,63.0,69.0,62,286.0,square2,f,0.029,1,S,1.0
S1,4.0,82.0,63.0,64.0,73.0,73,359.0,square4,r,0.097,3,S,1.0
S1,5.0,66.0,70.0,65.0,73.0,73,432.0,square4,r,0.118,3,S,1.0
S1,6.0,73.0,65.0,62.0,65.0,65,497.0,square4,r,1.078,3,S,1.0
S1,7.0,70.0,61.0,65.0,66.0,70,567.0,square1,i,0.112,0,S,1.0
S1,8.0,78.0,63.0,67.0,68.0,67,634.0,square3,j,0.001,2,S,1.0
S1,9.0,74.0,67.0,66.0,68.0,66,700.0,square3,j,0.147,2,S,1.0
S1,10.0,73.0,59.0,68.0,68.0,59,759.0,square2,f,0.163,1,S,1.0
S1,11.0,76.0,65.0,62.0,81.0,76,835.0,square1,i,0.071,0,S,1.0
S1,12.0,77.0,66.0,69.0,63.0,63,898.0,square4,r,0.586,3,S,1.0
S1,13.0,75.0,63.0,68.0,73.0,75,973.0,square1,i,0.018,0,S,1.0
S1,14.0,67.0,60.0,67.0,69.0,67,1040.0,square1,i,0.181,0,S,1.0
S1,15.0,70.0,63.0,69.0,73.0,70,1110.0,square1,i,0.066,0,S,1.0
S1,16.0,69.0,61.0,69.0,69.0,69,1179.0,square1,i,0.027,0,S,1.0
S1,17.0,73.0,68.0,67.0,73.0,73,1252.0,square1,i,0.078,0,S,1.0
S1,18.0,70.0,58.0,73.0,66.0,70,1322.0,square1,i,0.11,0,S,1.0
S1,19.0,75.0,58.0,62.0,68.0,75,1397.0,square1,i,0.062,0,S,1.0
S1,20.0,76.0,58.0,72.0,67.0,76,1473.0,square1,i,0.178,0,S,1.0
S1,21.0,69.0,66.0,66.0,67.0,69,1542.0,square1,i,0.013,0,S,1.0
S1,22.0,70.0,68.0,65.0,65.0,70,1612.0,square1,i,0.013,0,S,1.0
S1,23.0,71.0,60.0,64.0,64.0,71,1683.0,square1,i,0.154,0,S,1.0
S1,24.0,70.0,72.0,62.0,67.0,70,1753.0,square1,i,0.063,0,S,1.0
S1,25.0,68.0,60.0,70.0,65.0,68,1821.0,square1,i,0.066,0,S,1.0
S1,26.0,76.0,64.0,72.0,69.0,76,1897.0,square1,i,0.053,0,S,1.0
S1,27.0,71.0,56.0,70.0,65.0,71,1968.0,square1,i,0.116,0,S,1.0
S1,28.0,67.0,67.0,71.0,76.0,67,2035.0,square1,i,0.028,0,S,1.0
S1,29.0,78.0,64.0,64.0,74.0,78,2113.0,square1,i,0.053,0,S,1.0
S1,30.0,74.0,63.0,65.0,71.0,74,2187.0,square1,i,0.038,0,S,1.0
S1,31.0,78.0,58.0,69.0,69.0,78,2265.0,square1,i,0.096,0,S,1.0
S1,32.0,71.0,67.0,68.0,60.0,71,2336.0,square1,i,0.03,0,S,1.0
S1,33.0,68.0,63.0,65.0,73.0,68,2404.0,square1,i,0.027,0,S,1.0
S1,34.0,71.0,62.0,74.0,73.0,71,2475.0,square1,i,0.08,0,S,1.0
S1,35.0,75.0,59.0,67.0,77.0,75,2550.0,square1,i,0.045,0,S,1.0
S1,36.0,77.0,60.0,66.0,67.0,77,2627.0,square1,i,0.001,0,S,1.0
S1,37.0,69.0,60.0,69.0,75.0,69,2696.0,square1,i,0.001,0,S,1.0
S1,38.0,77.0,64.0,62.0,70.0,77,2773.0,square1,i,0.079,0,S,1.0
S1,39.0,72.0,66.0,69.0,65.0,72,2845.0,square1,i,0.139,0,S,1.0
S1,40.0,69.0,63.0,66.0,69.0,69,2914.0,square1,i,0.02,0,S,1.0
S1,41.0,72.0,62.0,70.0,70.0,72,2986.0,square1,i,0.084,0,S,1.0
S1,42.0,78.0,60.0,63.0,62.0,78,3064.0,square1,i,0.081,0,S,1.0
S1,43.0,71.0,62.0,67.0,73.0,71,3135.0,square1,i,0.089,0,S,1.0
S1,44.0,75.0,63.0,69.0,73.0,75,3210.0,square1,i,0.211,0,S,1.0
S1,45.0,66.0,60.0,68.0,73.0,66,3276.0,square1,i,0.11,0,S,1.0
S1,46.0,74.0,67.0,69.0,71.0,74,3350.0,square1,i,0.065,0,S,1.0
S1,47.0,71.0,66.0,68.0,70.0,71,3421.0,square1,i,0.095,0,S,1.0
S1,48.0,72.0,75.0,71.0,77.0,72,3493.0,square1,i,0.172,0,S,1.0
S1,49.0,65.0,57.0,66.0,75.0,65,3558.0,square1,i,0.163,0,S,1.0
S11,0.0,49.0,53.0,49.0,45.0,49,49.0,square3,i,0.454,2,S,11.0
S11,1.0,54.0,56.0,42.0,50.0,50,99.0,square4,j,0.095,3,S,11.0
S11,2.0,39.0,51.0,39.0,43.0,51,150.0,square2,r,0.071,1,S,11.0
S11,3.0,53.0,50.0,38.0,43.0,53,203.0,square1,f,0.08,0,S,11.0
S11,4.0,47.0,54.0,39.0,48.0,47,250.0,square1,f,0.037,0,S,11.0
S11,5.0,47.0,52.0,40.0,46.0,46,296.0,square4,j,0.106,3,S,11.0
S11,6.0,47.0,46.0,44.0,54.0,44,340.0,square3,i,0.062,2,S,11.0
S11,7.0,48.0,51.0,35.0,51.0,51,391.0,square2,r,0.048,1,S,11.0
S11,8.0,52.0,49.0,36.0,43.0,52,443.0,square1,f,0.147,0,S,11.0
S11,9.0,47.0,53.0,41.0,55.0,47,490.0,square1,f,0.013,0,S,11.0
S11,10.0,44.0,48.0,41.0,43.0,44,534.0,square1,f,0.178,0,S,11.0
S11,11.0,41.0,54.0,38.0,43.0,41,575.0,square1,f,0.102,0,S,11.0
S11,12.0,45.0,54.0,44.0,45.0,45,620.0,square1,f,0.196,0,S,11.0
S11,13.0,54.0,52.0,44.0,50.0,54,674.0,square1,f,0.145,0,S,11.0
S11,14.0,57.0,58.0,36.0,45.0,57,731.0,square1,f,0.094,0,S,11.0
S11,15.0,48.0,54.0,43.0,49.0,48,779.0,square1,f,0.113,0,S,11.0
S11,16.0,58.0,47.0,42.0,46.0,58,837.0,square1,f,0.181,0,S,11.0
S11,17.0,41.0,61.0,42.0,53.0,41,878.0,square1,f,0.103,0,S,11.0
S11,18.0,51.0,58.0,33.0,39.0,51,929.0,square1,f,0.063,0,S,11.0
S11,19.0,48.0,49.0,37.0,42.0,48,977.0,square1,f,0.1,0,S,11.0
S11,20.0,52.0,52.0,45.0,46.0,52,1029.0,square1,f,0.199,0,S,11.0
S11,21.0,47.0,53.0,44.0,51.0,47,1076.0,square1,f,0.182,0,S,11.0
S11,22.0,49.0,54.0,37.0,41.0,49,1125.0,square1,f,0.001,0,S,11.0
S11,23.0,52.0,54.0,41.0,45.0,52,1177.0,square1,f,0.121,0,S,11.0
S11,24.0,42.0,56.0,41.0,45.0,42,1219.0,square1,f,0.029,0,S,11.0
S11,25.0,52.0,56.0,42.0,44.0,52,1271.0,square1,f,0.084,0,S,11.0
S11,26.0,43.0,56.0,41.0,45.0,43,1314.0,square1,f,0.044,0,S,11.0
S11,27.0,48.0,50.0,40.0,43.0,48,1362.0,square1,f,0.212,0,S,11.0
S11,28.0,46.0,49.0,38.0,48.0,46,1408.0,square1,f,0.002,0,S,11.0
S11,29.0,46.0,55.0,40.0,42.0,46,1454.0,square1,f,0.115,0,S,11.0
S11,30.0,46.0,56.0,43.0,37.0,46,1500.0,square1,f,0.0,0,S,11.0
S11,31.0,42.0,49.0,44.0,42.0,42,1542.0,square1,f,0.212,0,S,11.0
S11,32.0,51.0,52.0,36.0,40.0,51,1593.0,square1,f,0.001,0,S,11.0
S11,33.0,44.0,53.0,39.0,43.0,43,1636.0,square4,j,0.42,3,S,11.0
S11,34.0,52.0,52.0,43.0,49.0,49,1685.0,square4,j,0.039,3,S,11.0
S11,35.0,53.0,51.0,38.0,45.0,38,1723.0,square3,i,0.045,2,S,11.0
S11,36.0,50.0,44.0,42.0,48.0,50,1773.0,square1,f,0.079,0,S,11.0
S11,37.0,49.0,51.0,40.0,48.0,49,1822.0,square1,f,0.046,0,S,11.0
S11,38.0,47.0,47.0,39.0,38.0,47,1869.0,square1,f,0.078,0,S,11.0
S11,39.0,51.0,55.0,40.0,42.0,51,1920.0,square1,f,0.018,0,S,11.0
S11,40.0,50.0,52.0,41.0,44.0,50,1970.0,square1,f,0.052,0,S,11.0
S11,41.0,47.0,50.0,46.0,50.0,47,2017.0,square1,f,0.15,0,S,11.0
S11,42.0,52.0,48.0,41.0,47.0,52,2069.0,square1,f,0.261,0,S,11.0
S11,43.0,50.0,56.0,34.0,42.0,50,2119.0,square1,f,0.21,0,S,11.0
S11,44.0,42.0,48.0,37.0,49.0,42,2161.0,square1,f,0.121,0,S,11.0
S11,45.0,47.0,47.0,41.0,40.0,47,2208.0,square1,f,0.062,0,S,11.0
S11,46.0,50.0,56.0,40.0,44.0,50,2258.0,square1,f,0.013,0,S,11.0
S11,47.0,46.0,48.0,38.0,47.0,46,2304.0,square1,f,0.069,0,S,11.0
S11,48.0,45.0,54.0,44.0,41.0,45,2349.0,square1,f,0.128,0,S,11.0
S11,49.0,44.0,53.0,41.0,41.0,44,2393.0,square1,f,0.065,0,S,11.0
S9,0.0,36.0,36.0,32.0,32.0,36,36.0,square2,i,0.994,1,S,9.0
S9,1.0,40.0,29.0,36.0,24.0,29,65.0,square2,i,0.11,1,S,9.0
S9,2.0,31.0,43.0,22.0,29.0,31,96.0,square1,j,0.11,0,S,9.0
S9,3.0,41.0,33.0,28.0,27.0,27,123.0,square4,r,0.178,3,S,9.0
S9,4.0,34.0,29.0,32.0,31.0,32,155.0,square3,f,0.081,2,S,9.0
S9,5.0,41.0,32.0,22.0,29.0,41,196.0,square1,j,1.146,0,S,9.0
S9,6.0,44.0,30.0,21.0,28.0,44,240.0,square1,j,0.547,0,S,9.0
S9,7.0,39.0,37.0,26.0,24.0,99999,240.0,invalid,,,-1,S,9.0
S9,8.0,41.0,33.0,23.0,20.0,33,273.0,square2,i,0.179,1,S,9.0
S9,9.0,30.0,35.0,24.0,27.0,30,303.0,square1,j,0.167,0,S,9.0
S9,10.0,41.0,29.0,23.0,28.0,41,344.0,square1,j,0.153,0,S,9.0
S9,11.0,37.0,38.0,22.0,33.0,37,381.0,square1,j,0.072,0,S,9.0
S9,12.0,35.0,31.0,27.0,32.0,35,416.0,square1,j,0.129,0,S,9.0
S9,13.0,38.0,37.0,30.0,29.0,38,454.0,square1,j,0.045,0,S,9.0
S9,14.0,36.0,38.0,30.0,37.0,36,490.0,square1,j,0.098,0,S,9.0
S9,15.0,40.0,29.0,27.0,24.0,40,530.0,square1,j,0.189,0,S,9.0
S9,16.0,33.0,37.0,29.0,28.0,33,563.0,square1,j,0.069,0,S,9.0
S9,17.0,41.0,32.0,36.0,31.0,41,604.0,square1,j,0.087,0,S,9.0
S9,18.0,39.0,26.0,16.0,35.0,39,643.0,square1,j,0.046,0,S,9.0
S9,19.0,35.0,30.0,23.0,27.0,35,678.0,square1,j,0.001,0,S,9.0
S9,20.0,39.0,34.0,23.0,29.0,39,717.0,square1,j,0.126,0,S,9.0
S9,21.0,35.0,37.0,28.0,31.0,35,752.0,square1,j,0.1,0,S,9.0
S9,22.0,37.0,30.0,23.0,38.0,37,789.0,square1,j,0.238,0,S,9.0
S9,23.0,37.0,34.0,27.0,34.0,37,826.0,square1,j,0.047,0,S,9.0
S9,24.0,31.0,34.0,26.0,27.0,31,857.0,square1,j,0.329,0,S,9.0
S9,25.0,38.0,40.0,29.0,24.0,38,895.0,square1,j,0.019,0,S,9.0
S9,26.0,43.0,31.0,21.0,24.0,43,938.0,square1,j,0.062,0,S,9.0
S9,27.0,30.0,31.0,23.0,28.0,30,968.0,square1,j,0.0,0,S,9.0
S9,28.0,44.0,32.0,31.0,32.0,44,1012.0,square1,j,0.093,0,S,9.0
S9,29.0,36.0,38.0,22.0,22.0,36,1048.0,square1,j,0.047,0,S,9.0
S9,30.0,41.0,30.0,26.0,29.0,41,1089.0,square1,j,0.169,0,S,9.0
S9,31.0,39.0,37.0,30.0,32.0,39,1128.0,square1,j,0.146,0,S,9.0
S9,32.0,35.0,39.0,28.0,31.0,35,1163.0,square1,j,0.079,0,S,9.0
S9,33.0,37.0,39.0,29.0,32.0,37,1200.0,square1,j,0.121,0,S,9.0
S9,34.0,46.0,33.0,21.0,25.0,46,1246.0,square1,j,0.049,0,S,9.0
S9,35.0,38.0,33.0,28.0,28.0,38,1284.0,square1,j,0.169,0,S,9.0
S9,36.0,40.0,37.0,21.0,32.0,40,1324.0,square1,j,0.085,0,S,9.0
S9,37.0,38.0,43.0,23.0,37.0,38,1362.0,square1,j,0.095,0,S,9.0
S9,38.0,36.0,31.0,29.0,29.0,36,1398.0,square1,j,0.179,0,S,9.0
S9,39.0,41.0,29.0,26.0,28.0,41,1439.0,square1,j,0.179,0,S,9.0
S9,40.0,32.0,36.0,26.0,28.0,32,1471.0,square1,j,0.095,0,S,9.0
S9,41.0,40.0,37.0,35.0,28.0,40,1511.0,square1,j,0.003,0,S,9.0
S9,42.0,43.0,32.0,26.0,37.0,43,1554.0,square1,j,0.062,0,S,9.0
S9,43.0,40.0,31.0,23.0,31.0,40,1594.0,square1,j,0.117,0,S,9.0
S9,44.0,42.0,38.0,24.0,40.0,42,1636.0,square1,j,0.171,0,S,9.0
S9,45.0,36.0,35.0,30.0,33.0,36,1672.0,square1,j,0.014,0,S,9.0
S9,46.0,38.0,30.0,33.0,26.0,38,1710.0,square1,j,0.004,0,S,9.0
S9,47.0,39.0,37.0,25.0,26.0,39,1749.0,square1,j,0.0,0,S,9.0
S9,48.0,36.0,35.0,26.0,27.0,36,1785.0,square1,j,0.145,0,S,9.0
S9,49.0,40.0,32.0,24.0,28.0,40,1825.0,square1,j,0.084,0,S,9.0
S3,0.0,38.0,48.0,42.0,57.0,57,57.0,square4,i,0.371,3,S,3.0
S3,1.0,29.0,43.0,51.0,57.0,43,100.0,square2,j,0.001,1,S,3.0
S3,2.0,41.0,49.0,46.0,49.0,41,141.0,square1,f,0.127,0,S,3.0
S3,3.0,44.0,50.0,45.0,52.0,45,186.0,square3,r,0.345,2,S,3.0
S3,4.0,37.0,51.0,45.0,58.0,45,231.0,square3,r,0.095,2,S,3.0
S3,5.0,47.0,43.0,42.0,49.0,49,280.0,square4,i,0.012,3,S,3.0
S3,6.0,44.0,53.0,51.0,58.0,53,333.0,square2,j,0.029,1,S,3.0
S3,7.0,39.0,47.0,46.0,54.0,39,372.0,square1,f,0.032,0,S,3.0
S3,8.0,43.0,53.0,41.0,52.0,53,425.0,square2,j,0.131,1,S,3.0
S3,9.0,42.0,46.0,41.0,53.0,46,471.0,square2,j,0.029,1,S,3.0
S3,10.0,37.0,49.0,49.0,55.0,49,520.0,square2,j,0.084,1,S,3.0
S3,11.0,40.0,47.0,36.0,59.0,47,567.0,square2,j,0.245,1,S,3.0
S3,12.0,46.0,51.0,39.0,56.0,51,618.0,square2,j,0.113,1,S,3.0
S3,13.0,39.0,48.0,45.0,57.0,48,666.0,square2,j,0.113,1,S,3.0
S3,14.0,39.0,55.0,43.0,47.0,55,721.0,square2,j,0.165,1,S,3.0
S3,15.0,46.0,46.0,47.0,52.0,46,767.0,square2,j,0.178,1,S,3.0
S3,16.0,42.0,49.0,50.0,55.0,49,816.0,square2,j,0.021,1,S,3.0
S3,17.0,45.0,45.0,56.0,47.0,45,861.0,square2,j,0.162,1,S,3.0
S3,18.0,46.0,43.0,45.0,50.0,43,904.0,square2,j,0.201,1,S,3.0
S3,19.0,41.0,47.0,50.0,55.0,47,951.0,square2,j,0.279,1,S,3.0
S3,20.0,45.0,52.0,49.0,52.0,52,1003.0,square2,j,0.133,1,S,3.0
S3,21.0,40.0,43.0,47.0,46.0,43,1046.0,square2,j,0.128,1,S,3.0
S3,22.0,45.0,46.0,44.0,47.0,46,1092.0,square2,j,0.188,1,S,3.0
S3,23.0,36.0,50.0,42.0,46.0,50,1142.0,square2,j,0.078,1,S,3.0
S3,24.0,42.0,54.0,49.0,55.0,54,1196.0,square2,j,0.049,1,S,3.0
S3,25.0,43.0,51.0,44.0,54.0,51,1247.0,square2,j,0.152,1,S,3.0
S3,26.0,49.0,50.0,52.0,52.0,50,1297.0,square2,j,0.044,1,S,3.0
S3,27.0,47.0,52.0,44.0,50.0,52,1349.0,square2,j,0.065,1,S,3.0
S3,28.0,37.0,48.0,40.0,47.0,48,1397.0,square2,j,0.027,1,S,3.0
S3,29.0,50.0,43.0,50.0,57.0,43,1440.0,square2,j,0.063,1,S,3.0
S3,30.0,50.0,50.0,46.0,47.0,50,1490.0,square2,j,0.152,1,S,3.0
S3,31.0,37.0,53.0,49.0,56.0,53,1543.0,square2,j,0.279,1,S,3.0
S3,32.0,42.0,50.0,43.0,58.0,50,1593.0,square2,j,0.121,1,S,3.0
S3,33.0,44.0,49.0,46.0,59.0,49,1642.0,square2,j,0.044,1,S,3.0
S3,34.0,42.0,50.0,50.0,58.0,50,1692.0,square2,j,0.145,1,S,3.0
S3,35.0,43.0,46.0,45.0,50.0,46,1738.0,square2,j,0.327,1,S,3.0
S3,36.0,46.0,52.0,50.0,48.0,52,1790.0,square2,j,0.118,1,S,3.0
S3,37.0,48.0,50.0,49.0,52.0,50,1840.0,square2,j,0.037,1,S,3.0
S3,38.0,39.0,43.0,50.0,55.0,43,1883.0,square2,j,0.216,1,S,3.0
S3,39.0,50.0,53.0,46.0,57.0,53,1936.0,square2,j,0.12,1,S,3.0
S3,40.0,41.0,46.0,48.0,55.0,46,1982.0,square2,j,0.286,1,S,3.0
S3,41.0,49.0,49.0,40.0,56.0,49,2031.0,square2,j,0.044,1,S,3.0
S3,42.0,47.0,49.0,43.0,48.0,49,2080.0,square2,j,0.033,1,S,3.0
S3,43.0,46.0,43.0,41.0,58.0,43,2123.0,square2,j,0.012,1,S,3.0
S3,44.0,46.0,52.0,51.0,55.0,52,2175.0,square2,j,0.068,1,S,3.0
S3,45.0,46.0,41.0,46.0,49.0,41,2216.0,square2,j,0.045,1,S,3.0
S3,46.0,32.0,56.0,40.0,50.0,56,2272.0,square2,j,0.052,1,S,3.0
S3,47.0,42.0,49.0,44.0,51.0,49,2321.0,square2,j,0.103,1,S,3.0
S3,48.0,36.0,45.0,38.0,50.0,45,2366.0,square2,j,0.127,1,S,3.0
S3,49.0,45.0,48.0,47.0,52.0,48,2414.0,square2,j,0.112,1,S,3.0
