block,Trial,square1,square2,square3,square4,currPoints,totalPoints,square,choiceKey.keys,choiceKey.rt,armNum,blockType,blockNum
prac,0.0,100.0,0.0,0.0,0.0,0,0.0,square2,,,1,p,0.0
prac,1.0,100.0,0.0,0.0,0.0,0,0.0,square3,,,2,p,0.0
prac,2.0,100.0,0.0,0.0,0.0,0,0.0,square4,,,3,p,0.0
prac,3.0,100.0,0.0,0.0,0.0,100,100.0,square1,,,0,p,0.0
prac,4.0,100.0,0.0,0.0,0.0,0,100.0,square2,,,1,p,0.0
prac,5.0,100.0,0.0,0.0,0.0,100,200.0,square1,,,0,p,0.0
prac,6.0,100.0,0.0,0.0,0.0,100,300.0,square1,,,0,p,0.0
prac,7.0,100.0,0.0,0.0,0.0,100,400.0,square1,,,0,p,0.0
prac,8.0,100.0,0.0,0.0,0.0,100,500.0,square1,,,0,p,0.0
prac,9.0,100.0,0.0,0.0,0.0,100,600.0,square1,,,0,p,0.0
NS12,0.0,80.0,24.0,40.0,79.0,79,79.0,square4,r,0.719,3,N,12.0
NS12,1.0,78.0,28.0,44.0,78.0,44,123.0,square3,j,0.494,2,N,12.0
NS12,2.0,77.0,28.0,37.0,82.0,77,200.0,square1,i,0.396,0,N,12.0
NS12,3.0,76.0,33.0,39.0,82.0,33,233.0,square2,f,0.898,1,N,12.0
NS12,4.0,79.0,37.0,34.0,78.0,79,312.0,square1,i,0.134,0,N,12.0
NS12,5.0,83.0,33.0,28.0,81.0,83,395.0,square1,i,0.598,0,N,12.0
NS12,6.0,77.0,39.0,33.0,80.0,77,472.0,square1,i,0.443,0,N,12.0
NS12,7.0,77.0,40.0,25.0,85.0,85,557.0,square4,r,0.249,3,N,12.0
NS12,8.0,77.0,40.0,29.0,87.0,29,586.0,square3,j,0.945,2,N,12.0
NS12,9.0,70.0,42.0,29.0,88.0,88,674.0,square4,r,0.232,3,N,12.0
NS12,10.0,65.0,47.0,31.0,86.0,86,760.0,square4,r,0.662,3,N,12.0
NS12,11.0,67.0,46.0,26.0,84.0,84,844.0,square4,r,0.278,3,N,12.0
NS12,12.0,67.0,36.0,26.0,84.0,84,928.0,square4,r,0.262,3,N,12.0
NS12,13.0,69.0,33.0,23.0,82.0,82,1010.0,square4,r,0.177,3,N,12.0
NS12,14.0,66.0,35.0,20.0,81.0,81,1091.0,square4,r,0.278,3,N,12.0
NS12,15.0,66.0,30.0,23.0,78.0,78,1169.0,square4,r,0.253,3,N,12.0
NS12,16.0,69.0,28.0,17.0,74.0,69,1238.0,square1,i,0.345,0,N,12.0
NS12,17.0,66.0,32.0,20.0,78.0,78,1316.0,square4,r,0.209,3,N,12.0
NS12,18.0,60.0,33.0,26.0,76.0,76,1392.0,square4,r,0.251,3,N,12.0
NS12,19.0,63.0,37.0,23.0,76.0,37,1429.0,square2,f,0.298,1,N,12.0
NS12,20.0,59.0,36.0,24.0,78.0,59,1488.0,square1,i,0.001,0,N,12.0
NS12,21.0,59.0,35.0,25.0,79.0,25,1513.0,square3,j,0.275,2,N,12.0
NS12,22.0,61.0,37.0,26.0,88.0,88,1601.0,square4,r,0.043,3,N,12.0
NS12,23.0,61.0,37.0,25.0,83.0,83,1684.0,square4,r,0.293,3,N,12.0
NS12,24.0,61.0,39.0,26.0,85.0,85,1769.0,square4,r,0.031,3,N,12.0
NS12,25.0,63.0,30.0,29.0,77.0,77,1846.0,square4,r,0.029,3,N,12.0
NS12,26.0,58.0,39.0,29.0,83.0,83,1929.0,square4,r,0.194,3,N,12.0
NS12,27.0,60.0,34.0,32.0,85.0,85,2014.0,square4,r,0.189,3,N,12.0
NS12,28.0,63.0,32.0,35.0,77.0,77,2091.0,square4,r,0.002,3,N,12.0
NS12,29.0,61.0,35.0,23.0,79.0,79,2170.0,square4,r,0.118,3,N,12.0
NS12,30.0,57.0,27.0,30.0,69.0,69,2239.0,square4,r,0.078,3,N,12.0
NS12,31.0,64.0,29.0,26.0,69.0,69,2308.0,square4,r,0.261,3,N,12.0
NS12,32.0,65.0,29.0,33.0,69.0,69,2377.0,square4,r,0.06,3,N,12.0
NS12,33.0,68.0,29.0,33.0,73.0,73,2450.0,square4,r,0.087,3,N,12.0
NS12,34.0,69.0,29.0,29.0,67.0,67,2517.0,square4,r,1.742,3,N,12.0
NS12,35.0,66.0,32.0,30.0,61.0,61,2578.0,square4,r,0.487,3,N,12.0
NS12,36.0,64.0,27.0,26.0,58.0,58,2636.0,square4,r,1.429,3,N,12.0
NS12,37.0,65.0,32.0,27.0,67.0,65,2701.0,square1,i,0.25,0,N,12.0
NS12,38.0,63.0,32.0,30.0,64.0,30,2731.0,square3,j,0.231,2,N,12.0
NS12,39.0,65.0,30.0,30.0,70.0,30,2761.0,square2,f,0.25,1,N,12.0
NS12,40.0,71.0,37.0,32.0,69.0,69,2830.0,square4,r,0.233,3,N,12.0
NS12,41.0,66.0,45.0,37.0,69.0,69,2899.0,square4,r,0.183,3,N,12.0
NS12,42.0,75.0,42.0,35.0,65.0,65,2964.0,square4,r,0.162,3,N,12.0
NS12,43.0,82.0,39.0,35.0,57.0,57,3021.0,square4,r,0.594,3,N,12.0
NS12,44.0,81.0,34.0,34.0,61.0,61,3082.0,square4,r,0.163,3,N,12.0
NS12,45.0,74.0,33.0,36.0,59.0,59,3141.0,square4,r,0.074,3,N,12.0
NS12,46.0,77.0,32.0,40.0,57.0,57,3198.0,square4,r,0.044,3,N,12.0
NS12,47.0,79.0,32.0,39.0,60.0,79,3277.0,square1,i,0.001,0,N,12.0
NS12,48.0,80.0,28.0,34.0,62.0,80,3357.0,square1,i,0.269,0,N,12.0
NS12,49.0,76.0,23.0,37.0,64.0,76,3433.0,square1,i,0.026,0,N,12.0
NS12,50.0,75.0,25.0,37.0,65.0,75,3508.0,square1,i,0.028,0,N,12.0
NS12,51.0,74.0,25.0,39.0,70.0,74,3582.0,square1,i,0.209,0,N,12.0
NS12,52.0,79.0,26.0,40.0,73.0,79,3661.0,square1,i,0.168,0,N,12.0
NS12,53.0,75.0,25.0,33.0,69.0,75,3736.0,square1,i,0.011,0,N,12.0
NS12,54.0,79.0,25.0,38.0,68.0,79,3815.0,square1,i,0.112,0,N,12.0
NS12,55.0,81.0,22.0,34.0,68.0,81,3896.0,square1,i,0.612,0,N,12.0
NS12,56.0,72.0,29.0,39.0,69.0,72,3968.0,square1,i,0.247,0,N,12.0
NS12,57.0,72.0,28.0,38.0,73.0,72,4040.0,square1,i,0.259,0,N,12.0
NS12,58.0,69.0,25.0,32.0,71.0,69,4109.0,square1,i,0.227,0,N,12.0
NS12,59.0,75.0,30.0,33.0,69.0,75,4184.0,square1,i,0.25,0,N,12.0
NS12,60.0,68.0,28.0,39.0,68.0,68,4252.0,square1,i,0.282,0,N,12.0
NS12,61.0,69.0,32.0,37.0,60.0,69,4321.0,square1,i,0.271,0,N,12.0
NS12,62.0,63.0,37.0,39.0,55.0,63,4384.0,square1,i,0.249,0,N,12.0
NS12,63.0,63.0,38.0,43.0,54.0,54,4438.0,square4,r,0.26,3,N,12.0
NS12,64.0,60.0,30.0,35.0,55.0,60,4498.0,square1,i,0.031,0,N,12.0
NS12,65.0,60.0,37.0,34.0,55.0,60,4558.0,square1,i,0.097,0,N,12.0
NS12,66.0,61.0,40.0,35.0,51.0,61,4619.0,square1,i,0.151,0,N,12.0
NS12,67.0,65.0,37.0,35.0,53.0,65,4684.0,square1,i,0.716,0,N,12.0
NS12,68.0,62.0,33.0,38.0,50.0,62,4746.0,square1,i,0.278,0,N,12.0
NS12,69.0,56.0,41.0,29.0,54.0,56,4802.0,square1,i,0.135,0,N,12.0
NS12,70.0,56.0,39.0,30.0,57.0,57,4859.0,square4,r,0.132,3,N,12.0
NS12,71.0,61.0,40.0,33.0,64.0,64,4923.0,square4,r,0.217,3,N,12.0
NS12,72.0,51.0,42.0,35.0,67.0,67,4990.0,square4,r,0.263,3,N,12.0
NS12,73.0,56.0,39.0,39.0,67.0,67,5057.0,square4,r,0.294,3,N,12.0
NS12,74.0,50.0,38.0,40.0,63.0,63,5120.0,square4,r,0.22,3,N,12.0
NS12,75.0,52.0,37.0,41.0,67.0,37,5157.0,square2,f,0.027,1,N,12.0
NS12,76.0,47.0,40.0,46.0,67.0,67,5224.0,square4,r,0.295,3,N,12.0
NS12,77.0,45.0,35.0,47.0,67.0,45,5269.0,square1,i,0.039,0,N,12.0
NS12,78.0,44.0,38.0,52.0,66.0,66,5335.0,square4,r,0.146,3,N,12.0
NS12,79.0,41.0,38.0,52.0,64.0,64,5399.0,square4,r,0.099,3,N,12.0
NS12,80.0,36.0,41.0,57.0,58.0,58,5457.0,square4,r,0.175,3,N,12.0
NS12,81.0,36.0,42.0,66.0,63.0,66,5523.0,square3,j,0.207,2,N,12.0
NS12,82.0,35.0,44.0,65.0,62.0,65,5588.0,square3,j,0.281,2,N,12.0
NS12,83.0,37.0,42.0,70.0,65.0,70,5658.0,square3,j,0.247,2,N,12.0
NS12,84.0,35.0,39.0,72.0,58.0,72,5730.0,square3,j,0.249,2,N,12.0
NS12,85.0,30.0,40.0,62.0,55.0,62,5792.0,square3,j,0.264,2,N,12.0
NS12,86.0,36.0,40.0,65.0,59.0,65,5857.0,square3,j,0.243,2,N,12.0
NS12,87.0,31.0,41.0,67.0,57.0,67,5924.0,square3,j,0.135,2,N,12.0
NS12,88.0,30.0,50.0,67.0,52.0,67,5991.0,square3,j,0.201,2,N,12.0
NS12,89.0,28.0,41.0,69.0,54.0,69,6060.0,square3,j,0.21,2,N,12.0
NS12,90.0,29.0,41.0,61.0,57.0,61,6121.0,square3,j,0.699,2,N,12.0
NS12,91.0,30.0,36.0,59.0,54.0,59,6180.0,square3,j,0.309,2,N,12.0
NS12,92.0,28.0,29.0,60.0,54.0,60,6240.0,square3,j,0.562,2,N,12.0
NS12,93.0,30.0,35.0,62.0,52.0,62,6302.0,square3,j,0.331,2,N,12.0
NS12,94.0,30.0,36.0,60.0,56.0,60,6362.0,square3,j,0.029,2,N,12.0
NS12,95.0,29.0,33.0,63.0,60.0,63,6425.0,square3,j,1.281,2,N,12.0
NS12,96.0,29.0,30.0,59.0,59.0,59,6484.0,square3,j,0.394,2,N,12.0
NS12,97.0,31.0,35.0,61.0,61.0,61,6545.0,square3,j,0.617,2,N,12.0
NS12,98.0,31.0,40.0,67.0,58.0,67,6612.0,square3,j,0.448,2,N,12.0
NS12,99.0,33.0,37.0,65.0,67.0,65,6677.0,square3,j,0.347,2,N,12.0
NS4,0.0,55.0,53.0,59.0,44.0,99999,0.0,invalid,,,-1,N,4.0
NS4,1.0,49.0,56.0,64.0,41.0,41,41.0,square4,i,1.318,3,N,4.0
NS4,2.0,50.0,54.0,71.0,48.0,50,91.0,square1,j,0.474,0,N,4.0
NS4,3.0,53.0,58.0,67.0,50.0,67,158.0,square3,f,0.282,2,N,4.0
NS4,4.0,49.0,51.0,70.0,55.0,49,207.0,square1,j,0.195,0,N,4.0
NS4,5.0,55.0,59.0,73.0,58.0,59,266.0,square2,r,0.478,1,N,4.0
NS4,6.0,56.0,54.0,71.0,57.0,71,337.0,square3,f,0.315,2,N,4.0
NS4,7.0,60.0,54.0,75.0,52.0,52,389.0,square4,i,0.145,3,N,4.0
NS4,8.0,58.0,53.0,74.0,52.0,74,463.0,square3,f,0.279,2,N,4.0
NS4,9.0,46.0,48.0,78.0,51.0,78,541.0,square3,f,0.243,2,N,4.0
NS4,10.0,55.0,48.0,78.0,51.0,78,619.0,square3,f,0.162,2,N,4.0
NS4,11.0,55.0,44.0,79.0,49.0,79,698.0,square3,f,0.043,2,N,4.0
NS4,12.0,50.0,40.0,79.0,50.0,79,777.0,square3,f,0.5,2,N,4.0
NS4,13.0,45.0,39.0,79.0,53.0,79,856.0,square3,f,0.546,2,N,4.0
NS4,14.0,44.0,38.0,77.0,56.0,77,933.0,square3,f,0.279,2,N,4.0
NS4,15.0,45.0,32.0,68.0,52.0,68,1001.0,square3,f,0.162,2,N,4.0
NS4,16.0,49.0,32.0,74.0,53.0,53,1054.0,square4,i,0.178,3,N,4.0
NS4,17.0,45.0,32.0,69.0,51.0,32,1086.0,square2,r,0.036,1,N,4.0
NS4,18.0,50.0,34.0,69.0,47.0,69,1155.0,square3,f,0.064,2,N,4.0
NS4,19.0,50.0,36.0,65.0,53.0,65,1220.0,square3,f,0.229,2,N,4.0
NS4,20.0,45.0,36.0,62.0,53.0,62,1282.0,square3,f,0.128,2,N,4.0
NS4,21.0,49.0,35.0,62.0,55.0,49,1331.0,square1,j,0.095,0,N,4.0
NS4,22.0,53.0,32.0,61.0,60.0,61,1392.0,square3,f,0.008,2,N,4.0
NS4,23.0,52.0,33.0,58.0,54.0,58,1450.0,square3,f,0.239,2,N,4.0
NS4,24.0,48.0,32.0,52.0,60.0,52,1502.0,square3,f,0.051,2,N,4.0
NS4,25.0,47.0,30.0,53.0,57.0,53,1555.0,square3,f,0.162,2,N,4.0
NS4,26.0,50.0,30.0,60.0,55.0,60,1615.0,square3,f,0.435,2,N,4.0
NS4,27.0,50.0,28.0,62.0,47.0,62,1677.0,square3,f,0.279,2,N,4.0
NS4,28.0,54.0,28.0,58.0,49.0,58,1735.0,square3,f,0.144,2,N,4.0
NS4,29.0,44.0,29.0,50.0,49.0,50,1785.0,square3,f,0.109,2,N,4.0
NS4,30.0,43.0,26.0,55.0,57.0,55,1840.0,square3,f,0.228,2,N,4.0
NS4,31.0,43.0,25.0,60.0,54.0,60,1900.0,square3,f,0.145,2,N,4.0
NS4,32.0,34.0,27.0,58.0,56.0,58,1958.0,square3,f,0.16,2,N,4.0
NS4,33.0,34.0,20.0,60.0,62.0,62,2020.0,square4,i,0.012,3,N,4.0
NS4,34.0,38.0,28.0,58.0,57.0,57,2077.0,square4,i,0.028,3,N,4.0
NS4,35.0,40.0,24.0,63.0,59.0,59,2136.0,square4,i,0.126,3,N,4.0
NS4,36.0,36.0,30.0,56.0,63.0,63,2199.0,square4,i,0.175,3,N,4.0
NS4,37.0,40.0,29.0,54.0,63.0,63,2262.0,square4,i,0.064,3,N,4.0
NS4,38.0,40.0,33.0,53.0,69.0,69,2331.0,square4,i,0.78,3,N,4.0
NS4,39.0,36.0,30.0,57.0,67.0,67,2398.0,square4,i,0.05,3,N,4.0
NS4,40.0,33.0,33.0,58.0,68.0,68,2466.0,square4,i,0.182,3,N,4.0
NS4,41.0,34.0,28.0,58.0,72.0,72,2538.0,square4,i,0.649,3,N,4.0
NS4,42.0,35.0,30.0,60.0,70.0,70,2608.0,square4,i,0.46,3,N,4.0
NS4,43.0,35.0,34.0,57.0,63.0,63,2671.0,square4,i,0.264,3,N,4.0
NS4,44.0,30.0,32.0,59.0,69.0,69,2740.0,square4,i,0.491,3,N,4.0
NS4,45.0,29.0,31.0,60.0,66.0,66,2806.0,square4,i,0.187,3,N,4.0
NS4,46.0,35.0,34.0,66.0,66.0,66,2872.0,square4,i,0.299,3,N,4.0
NS4,47.0,35.0,28.0,63.0,62.0,62,2934.0,square4,i,0.031,3,N,4.0
NS4,48.0,37.0,37.0,61.0,55.0,55,2989.0,square4,i,0.128,3,N,4.0
NS4,49.0,40.0,34.0,59.0,54.0,54,3043.0,square4,i,0.03,3,N,4.0
NS4,50.0,39.0,38.0,68.0,51.0,51,3094.0,square4,i,0.464,3,N,4.0
NS4,51.0,46.0,28.0,69.0,48.0,69,3163.0,square3,f,0.298,2,N,4.0
NS4,52.0,40.0,34.0,62.0,49.0,62,3225.0,square3,f,0.26,2,N,4.0
NS4,53.0,39.0,34.0,63.0,48.0,63,3288.0,square3,f,0.392,2,N,4.0
NS4,54.0,44.0,31.0,58.0,47.0,58,3346.0,square3,f,1.88,2,N,4.0
NS4,55.0,42.0,30.0,68.0,46.0,68,3414.0,square3,f,0.244,2,N,4.0
NS4,56.0,36.0,25.0,69.0,44.0,69,3483.0,square3,f,0.61,2,N,4.0
NS4,57.0,35.0,29.0,71.0,46.0,71,3554.0,square3,f,0.205,2,N,4.0
NS4,58.0,43.0,28.0,68.0,47.0,68,3622.0,square3,f,0.28,2,N,4.0
NS4,59.0,43.0,27.0,67.0,43.0,67,3689.0,square3,f,0.327,2,N,4.0
NS4,60.0,40.0,25.0,72.0,46.0,72,3761.0,square3,f,0.119,2,N,4.0
NS4,61.0,39.0,32.0,63.0,43.0,63,3824.0,square3,f,0.277,2,N,4.0
NS4,62.0,39.0,29.0,61.0,39.0,61,3885.0,square3,f,0.111,2,N,4.0
NS4,63.0,41.0,28.0,59.0,40.0,59,3944.0,square3,f,0.195,2,N,4.0
NS4,64.0,41.0,31.0,57.0,51.0,57,4001.0,square3,f,0.215,2,N,4.0
NS4,65.0,46.0,36.0,59.0,58.0,59,4060.0,square3,f,0.016,2,N,4.0
NS4,66.0,45.0,36.0,53.0,46.0,53,4113.0,square3,f,0.247,2,N,4.0
NS4,67.0,40.0,34.0,49.0,46.0,49,4162.0,square3,f,0.376,2,N,4.0
NS4,68.0,43.0,37.0,48.0,48.0,48,4210.0,square3,f,0.244,2,N,4.0
NS4,69.0,42.0,36.0,44.0,56.0,44,4254.0,square3,f,0.283,2,N,4.0
NS4,70.0,40.0,38.0,47.0,58.0,58,4312.0,square4,i,0.179,3,N,4.0
NS4,71.0,36.0,34.0,42.0,63.0,63,4375.0,square4,i,0.264,3,N,4.0
NS4,72.0,38.0,36.0,36.0,66.0,66,4441.0,square4,i,0.282,3,N,4.0
NS4,73.0,36.0,40.0,40.0,66.0,66,4507.0,square4,i,0.229,3,N,4.0
NS4,74.0,31.0,38.0,46.0,67.0,67,4574.0,square4,i,0.227,3,N,4.0
NS4,75.0,40.0,33.0,42.0,64.0,64,4638.0,square4,i,0.001,3,N,4.0
NS4,76.0,38.0,35.0,42.0,64.0,38,4676.0,square1,j,0.536,0,N,4.0
NS4,77.0,40.0,35.0,39.0,66.0,66,4742.0,square4,i,0.116,3,N,4.0
NS4,78.0,40.0,33.0,38.0,68.0,68,4810.0,square4,i,0.224,3,N,4.0
NS4,79.0,40.0,38.0,31.0,70.0,70,4880.0,square4,i,0.243,3,N,4.0
NS4,80.0,37.0,35.0,33.0,73.0,73,4953.0,square4,i,0.197,3,N,4.0
NS4,81.0,34.0,35.0,30.0,70.0,70,5023.0,square4,i,0.182,3,N,4.0
NS4,82.0,35.0,37.0,31.0,66.0,66,5089.0,square4,i,0.132,3,N,4.0
NS4,83.0,42.0,32.0,28.0,67.0,67,5156.0,square4,i,0.463,3,N,4.0
NS4,84.0,38.0,35.0,30.0,68.0,68,5224.0,square4,i,0.458,3,N,4.0
NS4,85.0,43.0,35.0,32.0,64.0,64,5288.0,square4,i,0.069,3,N,4.0
NS4,86.0,49.0,35.0,32.0,70.0,70,5358.0,square4,i,0.26,3,N,4.0
NS4,87.0,48.0,34.0,32.0,69.0,69,5427.0,square4,i,0.355,3,N,4.0
NS4,88.0,50.0,35.0,30.0,64.0,64,5491.0,square4,i,0.335,3,N,4.0
NS4,89.0,48.0,34.0,32.0,68.0,68,5559.0,square4,i,0.379,3,N,4.0
NS4,90.0,53.0,29.0,27.0,68.0,68,5627.0,square4,i,0.295,3,N,4.0
NS4,91.0,54.0,27.0,34.0,68.0,68,5695.0,square4,i,0.257,3,N,4.0
NS4,92.0,52.0,20.0,35.0,69.0,69,5764.0,square4,i,0.262,3,N,4.0
NS4,93.0,42.0,15.0,33.0,68.0,68,5832.0,square4,i,0.211,3,N,4.0
NS4,94.0,40.0,24.0,37.0,72.0,72,5904.0,square4,i,0.297,3,N,4.0
NS4,95.0,43.0,25.0,43.0,69.0,69,5973.0,square4,i,0.315,3,N,4.0
NS4,96.0,41.0,29.0,43.0,74.0,74,6047.0,square4,i,0.342,3,N,4.0
NS4,97.0,46.0,32.0,42.0,78.0,78,6125.0,square4,i,0.136,3,N,4.0
NS4,98.0,48.0,26.0,46.0,75.0,75,6200.0,square4,i,0.262,3,N,4.0
NS4,99.0,46.0,27.0,45.0,71.0,71,6271.0,square4,i,0.103,3,N,4.0
NS8,0.0,61.0,62.0,34.0,32.0,62,62.0,square2,i,1.253,1,N,8.0
NS8,1.0,57.0,56.0,38.0,27.0,57,119.0,square1,f,0.263,0,N,8.0
NS8,2.0,66.0,55.0,42.0,28.0,28,147.0,square4,j,0.085,3,N,8.0
NS8,3.0,67.0,51.0,37.0,28.0,37,184.0,square3,r,0.175,2,N,8.0
NS8,4.0,65.0,53.0,38.0,32.0,53,237.0,square2,i,0.217,1,N,8.0
NS8,5.0,67.0,52.0,43.0,33.0,52,289.0,square2,i,0.118,1,N,8.0
NS8,6.0,56.0,47.0,41.0,36.0,47,336.0,square2,i,0.216,1,N,8.0
NS8,7.0,58.0,46.0,37.0,31.0,46,382.0,square2,i,0.163,1,N,8.0
NS8,8.0,60.0,58.0,36.0,35.0,60,442.0,square1,f,0.279,0,N,8.0
NS8,9.0,60.0,66.0,41.0,39.0,60,502.0,square1,f,0.253,0,N,8.0
NS8,10.0,60.0,60.0,36.0,33.0,60,562.0,square1,f,0.226,0,N,8.0
NS8,11.0,53.0,63.0,32.0,35.0,53,615.0,square1,f,0.181,0,N,8.0
NS8,12.0,51.0,60.0,32.0,29.0,51,666.0,square1,f,0.089,0,N,8.0
NS8,13.0,53.0,65.0,30.0,32.0,53,719.0,square1,f,0.169,0,N,8.0
NS8,14.0,56.0,69.0,25.0,33.0,56,775.0,square1,f,0.294,0,N,8.0
NS8,15.0,57.0,71.0,29.0,35.0,57,832.0,square1,f,0.093,0,N,8.0
NS8,16.0,55.0,64.0,31.0,33.0,55,887.0,square1,f,0.113,0,N,8.0
NS8,17.0,48.0,65.0,29.0,32.0,48,935.0,square1,f,0.211,0,N,8.0
NS8,18.0,44.0,64.0,28.0,34.0,64,999.0,square2,i,0.03,1,N,8.0
NS8,19.0,46.0,60.0,26.0,33.0,60,1059.0,square2,i,0.178,1,N,8.0
NS8,20.0,41.0,58.0,29.0,35.0,58,1117.0,square2,i,0.301,1,N,8.0
NS8,21.0,45.0,57.0,29.0,35.0,57,1174.0,square2,i,0.431,1,N,8.0
NS8,22.0,47.0,53.0,32.0,32.0,53,1227.0,square2,i,0.244,1,N,8.0
NS8,23.0,49.0,52.0,33.0,35.0,52,1279.0,square2,i,0.269,1,N,8.0
NS8,24.0,56.0,53.0,30.0,37.0,53,1332.0,square2,i,0.784,1,N,8.0
NS8,25.0,57.0,48.0,28.0,42.0,48,1380.0,square2,i,0.329,1,N,8.0
NS8,26.0,52.0,48.0,33.0,43.0,52,1432.0,square1,f,0.128,0,N,8.0
NS8,27.0,53.0,45.0,28.0,47.0,45,1477.0,square2,i,0.219,1,N,8.0
NS8,28.0,50.0,43.0,27.0,41.0,50,1527.0,square1,f,0.065,0,N,8.0
NS8,29.0,53.0,52.0,29.0,43.0,53,1580.0,square1,f,0.144,0,N,8.0
NS8,30.0,54.0,51.0,30.0,41.0,41,1621.0,square4,j,0.146,3,N,8.0
NS8,31.0,50.0,50.0,31.0,42.0,50,1671.0,square1,f,0.213,0,N,8.0
NS8,32.0,50.0,50.0,35.0,43.0,50,1721.0,square1,f,0.396,0,N,8.0
NS8,33.0,46.0,48.0,39.0,41.0,39,1760.0,square3,r,0.269,2,N,8.0
NS8,34.0,47.0,46.0,41.0,40.0,46,1806.0,square2,i,0.143,1,N,8.0
NS8,35.0,57.0,45.0,36.0,37.0,57,1863.0,square1,f,0.485,0,N,8.0
NS8,36.0,53.0,49.0,41.0,38.0,53,1916.0,square1,f,0.2,0,N,8.0
NS8,37.0,57.0,50.0,41.0,39.0,57,1973.0,square1,f,0.201,0,N,8.0
NS8,38.0,61.0,51.0,39.0,43.0,61,2034.0,square1,f,0.31,0,N,8.0
NS8,39.0,59.0,54.0,41.0,36.0,59,2093.0,square1,f,0.502,0,N,8.0
NS8,40.0,53.0,55.0,47.0,40.0,53,2146.0,square1,f,0.216,0,N,8.0
NS8,41.0,53.0,55.0,43.0,39.0,53,2199.0,square1,f,0.321,0,N,8.0
NS8,42.0,59.0,55.0,45.0,40.0,59,2258.0,square1,f,0.282,0,N,8.0
NS8,43.0,54.0,46.0,51.0,37.0,54,2312.0,square1,f,0.11,0,N,8.0
NS8,44.0,56.0,44.0,50.0,35.0,56,2368.0,square1,f,0.094,0,N,8.0
NS8,45.0,51.0,46.0,41.0,37.0,51,2419.0,square1,f,0.582,0,N,8.0
NS8,46.0,52.0,43.0,44.0,34.0,52,2471.0,square1,f,0.548,0,N,8.0
NS8,47.0,46.0,41.0,36.0,37.0,46,2517.0,square1,f,0.528,0,N,8.0
NS8,48.0,47.0,46.0,39.0,37.0,46,2563.0,square2,i,0.261,1,N,8.0
NS8,49.0,48.0,36.0,38.0,40.0,48,2611.0,square1,f,0.001,0,N,8.0
NS8,50.0,51.0,37.0,36.0,46.0,37,2648.0,square2,i,0.134,1,N,8.0
NS8,51.0,53.0,38.0,40.0,43.0,53,2701.0,square1,f,0.547,0,N,8.0
NS8,52.0,47.0,32.0,37.0,44.0,47,2748.0,square1,f,0.525,0,N,8.0
NS8,53.0,52.0,31.0,38.0,46.0,52,2800.0,square1,f,0.41,0,N,8.0
NS8,54.0,44.0,34.0,40.0,45.0,44,2844.0,square1,f,0.279,0,N,8.0
NS8,55.0,46.0,26.0,37.0,41.0,46,2890.0,square1,f,0.296,0,N,8.0
NS8,56.0,42.0,29.0,36.0,40.0,42,2932.0,square1,f,0.21,0,N,8.0
NS8,57.0,39.0,21.0,39.0,40.0,39,2971.0,square3,r,0.096,2,N,8.0
NS8,58.0,42.0,18.0,39.0,40.0,39,3010.0,square3,r,0.078,2,N,8.0
NS8,59.0,46.0,16.0,41.0,39.0,39,3049.0,square4,j,0.629,3,N,8.0
NS8,60.0,45.0,20.0,40.0,39.0,39,3088.0,square4,j,0.043,3,N,8.0
NS8,61.0,45.0,26.0,42.0,39.0,45,3133.0,square1,f,0.28,0,N,8.0
NS8,62.0,46.0,21.0,45.0,37.0,46,3179.0,square1,f,0.12,0,N,8.0
NS8,63.0,50.0,23.0,40.0,38.0,50,3229.0,square1,f,0.147,0,N,8.0
NS8,64.0,46.0,24.0,41.0,33.0,46,3275.0,square1,f,0.061,0,N,8.0
NS8,65.0,48.0,28.0,42.0,32.0,48,3323.0,square1,f,0.061,0,N,8.0
NS8,66.0,47.0,20.0,40.0,35.0,47,3370.0,square1,f,0.295,0,N,8.0
NS8,67.0,49.0,25.0,46.0,34.0,25,3395.0,square2,i,0.047,1,N,8.0
NS8,68.0,47.0,24.0,45.0,33.0,47,3442.0,square1,f,0.544,0,N,8.0
NS8,69.0,45.0,21.0,47.0,35.0,45,3487.0,square1,f,0.128,0,N,8.0
NS8,70.0,44.0,21.0,47.0,37.0,44,3531.0,square1,f,0.034,0,N,8.0
NS8,71.0,44.0,15.0,41.0,38.0,44,3575.0,square1,f,0.333,0,N,8.0
NS8,72.0,47.0,19.0,49.0,40.0,47,3622.0,square1,f,0.051,0,N,8.0
NS8,73.0,39.0,21.0,53.0,38.0,39,3661.0,square1,f,0.171,0,N,8.0
NS8,74.0,42.0,19.0,53.0,35.0,42,3703.0,square1,f,0.216,0,N,8.0
NS8,75.0,37.0,18.0,43.0,35.0,37,3740.0,square1,f,0.228,0,N,8.0
NS8,76.0,35.0,14.0,42.0,38.0,14,3754.0,square2,i,0.096,1,N,8.0
NS8,77.0,38.0,19.0,47.0,44.0,47,3801.0,square3,r,0.552,2,N,8.0
NS8,78.0,38.0,18.0,50.0,46.0,50,3851.0,square3,r,0.301,2,N,8.0
NS8,79.0,33.0,22.0,54.0,44.0,54,3905.0,square3,r,0.285,2,N,8.0
NS8,80.0,38.0,21.0,56.0,52.0,56,3961.0,square3,r,0.194,2,N,8.0
NS8,81.0,37.0,22.0,56.0,43.0,56,4017.0,square3,r,0.083,2,N,8.0
NS8,82.0,30.0,26.0,60.0,42.0,60,4077.0,square3,r,0.364,2,N,8.0
NS8,83.0,38.0,22.0,54.0,46.0,54,4131.0,square3,r,0.001,2,N,8.0
NS8,84.0,33.0,18.0,52.0,46.0,52,4183.0,square3,r,0.097,2,N,8.0
NS8,85.0,42.0,12.0,57.0,48.0,57,4240.0,square3,r,0.656,2,N,8.0
NS8,86.0,45.0,19.0,58.0,42.0,58,4298.0,square3,r,0.129,2,N,8.0
NS8,87.0,46.0,10.0,65.0,44.0,65,4363.0,square3,r,0.252,2,N,8.0
NS8,88.0,45.0,11.0,59.0,45.0,59,4422.0,square3,r,0.146,2,N,8.0
NS8,89.0,42.0,11.0,60.0,47.0,60,4482.0,square3,r,0.11,2,N,8.0
NS8,90.0,40.0,7.0,64.0,49.0,64,4546.0,square3,r,0.082,2,N,8.0
NS8,91.0,42.0,11.0,64.0,48.0,64,4610.0,square3,r,0.579,2,N,8.0
NS8,92.0,43.0,13.0,60.0,43.0,60,4670.0,square3,r,0.119,2,N,8.0
NS8,93.0,44.0,12.0,64.0,45.0,64,4734.0,square3,r,0.433,2,N,8.0
NS8,94.0,45.0,16.0,65.0,49.0,65,4799.0,square3,r,0.243,2,N,8.0
NS8,95.0,45.0,24.0,66.0,42.0,66,4865.0,square3,r,0.262,2,N,8.0
NS8,96.0,53.0,27.0,67.0,44.0,67,4932.0,square3,r,0.196,2,N,8.0
NS8,97.0,50.0,29.0,68.0,43.0,68,5000.0,square3,r,0.297,2,N,8.0
NS8,98.0,52.0,29.0,66.0,37.0,66,5066.0,square3,r,0.234,2,N,8.0
NS8,99.0,53.0,32.0,65.0,37.0,65,5131.0,square3,r,0.033,2,N,8.0
V5,0.0,46.0,21.0,37.0,28.0,28,28.0,square4,i,1.485,3,V,5.0
V5,1.0,43.0,27.0,36.0,31.0,27,55.0,square2,f,0.018,1,V,5.0
V5,2.0,50.0,18.0,43.0,32.0,43,98.0,square3,j,0.003,2,V,5.0
V5,3.0,53.0,23.0,36.0,34.0,53,151.0,square1,r,0.11,0,V,5.0
V5,4.0,52.0,19.0,38.0,34.0,52,203.0,square1,r,0.229,0,V,5.0
V5,5.0,50.0,22.0,41.0,29.0,50,253.0,square1,r,0.112,0,V,5.0
V5,6.0,52.0,19.0,40.0,33.0,52,305.0,square1,r,0.165,0,V,5.0
V5,7.0,48.0,24.0,36.0,27.0,48,353.0,square1,r,0.078,0,V,5.0
V5,8.0,50.0,24.0,35.0,33.0,50,403.0,square1,r,0.014,0,V,5.0
V5,9.0,48.0,25.0,39.0,34.0,48,451.0,square1,r,0.012,0,V,5.0
V5,10.0,52.0,19.0,32.0,34.0,32,483.0,square3,j,0.513,2,V,5.0
V5,11.0,48.0,22.0,32.0,32.0,48,531.0,square1,r,0.483,0,V,5.0
V5,12.0,47.0,17.0,43.0,29.0,47,578.0,square1,r,0.162,0,V,5.0
V5,13.0,46.0,21.0,42.0,29.0,46,624.0,square1,r,0.434,0,V,5.0
V5,14.0,47.0,28.0,42.0,28.0,47,671.0,square1,r,0.261,0,V,5.0
V5,15.0,50.0,29.0,38.0,36.0,50,721.0,square1,r,1.0,0,V,5.0
V5,16.0,49.0,24.0,36.0,34.0,49,770.0,square1,r,0.229,0,V,5.0
V5,17.0,50.0,20.0,38.0,35.0,50,820.0,square1,r,0.463,0,V,5.0
V5,18.0,49.0,22.0,46.0,29.0,49,869.0,square1,r,0.379,0,V,5.0
V5,19.0,46.0,23.0,40.0,31.0,46,915.0,square1,r,0.776,0,V,5.0
V5,20.0,51.0,22.0,41.0,28.0,51,966.0,square1,r,0.398,0,V,5.0
V5,21.0,51.0,26.0,36.0,31.0,51,1017.0,square1,r,0.335,0,V,5.0
V5,22.0,47.0,18.0,41.0,28.0,47,1064.0,square1,r,0.424,0,V,5.0
V5,23.0,52.0,20.0,36.0,29.0,52,1116.0,square1,r,0.346,0,V,5.0
V5,24.0,51.0,21.0,41.0,34.0,34,1150.0,square4,i,0.295,3,V,5.0
V5,25.0,50.0,20.0,41.0,27.0,50,1200.0,square1,r,0.576,0,V,5.0
V5,26.0,49.0,29.0,37.0,28.0,29,1229.0,square2,f,0.167,1,V,5.0
V5,27.0,10.0,13.0,42.0,32.0,10,1239.0,square1,r,0.41,0,V,5.0
V5,28.0,9.0,19.0,40.0,27.0,40,1279.0,square3,j,0.108,2,V,5.0
V5,29.0,17.0,17.0,38.0,29.0,38,1317.0,square3,j,0.202,2,V,5.0
V5,30.0,8.0,18.0,36.0,29.0,36,1353.0,square3,j,0.15,2,V,5.0
V5,31.0,16.0,24.0,34.0,29.0,29,1382.0,square4,i,0.265,3,V,5.0
V5,32.0,9.0,17.0,35.0,31.0,35,1417.0,square3,j,0.459,2,V,5.0
V5,33.0,11.0,19.0,36.0,28.0,36,1453.0,square3,j,0.066,2,V,5.0
V5,34.0,10.0,19.0,38.0,28.0,19,1472.0,square2,f,0.229,1,V,5.0
V5,35.0,5.0,23.0,40.0,34.0,40,1512.0,square3,j,0.263,2,V,5.0
V5,36.0,17.0,20.0,36.0,31.0,36,1548.0,square3,j,0.142,2,V,5.0
V5,37.0,12.0,13.0,36.0,30.0,36,1584.0,square3,j,0.249,2,V,5.0
V5,38.0,14.0,24.0,35.0,27.0,35,1619.0,square3,j,0.31,2,V,5.0
V5,39.0,13.0,20.0,39.0,32.0,39,1658.0,square3,j,0.001,2,V,5.0
V5,40.0,9.0,15.0,37.0,24.0,37,1695.0,square3,j,0.095,2,V,5.0
V5,41.0,9.0,14.0,38.0,31.0,38,1733.0,square3,j,0.617,2,V,5.0
V5,42.0,14.0,17.0,43.0,31.0,43,1776.0,square3,j,0.101,2,V,5.0
V5,43.0,10.0,18.0,39.0,23.0,39,1815.0,square3,j,0.166,2,V,5.0
V5,44.0,10.0,20.0,33.0,32.0,33,1848.0,square3,j,0.15,2,V,5.0
V5,45.0,16.0,17.0,37.0,29.0,37,1885.0,square3,j,0.141,2,V,5.0
V5,46.0,9.0,22.0,37.0,25.0,37,1922.0,square3,j,0.233,2,V,5.0
V5,47.0,10.0,22.0,35.0,26.0,35,1957.0,square3,j,0.178,2,V,5.0
V5,48.0,11.0,16.0,39.0,23.0,11,1968.0,square1,r,0.03,0,V,5.0
V5,49.0,13.0,16.0,33.0,27.0,33,2001.0,square3,j,0.001,2,V,5.0
V5,50.0,12.0,16.0,39.0,24.0,39,2040.0,square3,j,0.098,2,V,5.0
V5,51.0,10.0,21.0,43.0,28.0,43,2083.0,square3,j,0.016,2,V,5.0
V5,52.0,8.0,15.0,36.0,28.0,36,2119.0,square3,j,0.035,2,V,5.0
V5,53.0,38.0,20.0,31.0,54.0,31,2150.0,square3,j,0.386,2,V,5.0
V5,54.0,39.0,20.0,35.0,51.0,35,2185.0,square3,j,0.049,2,V,5.0
V5,55.0,41.0,21.0,27.0,50.0,27,2212.0,square3,j,0.033,2,V,5.0
V5,56.0,39.0,23.0,28.0,49.0,49,2261.0,square4,i,0.117,3,V,5.0
V5,57.0,36.0,28.0,29.0,59.0,59,2320.0,square4,i,0.228,3,V,5.0
V5,58.0,38.0,22.0,28.0,49.0,49,2369.0,square4,i,0.096,3,V,5.0
V5,59.0,44.0,23.0,30.0,51.0,51,2420.0,square4,i,0.084,3,V,5.0
V5,60.0,43.0,21.0,31.0,48.0,48,2468.0,square4,i,0.198,3,V,5.0
V5,61.0,39.0,24.0,35.0,50.0,50,2518.0,square4,i,0.079,3,V,5.0
V5,62.0,38.0,25.0,31.0,52.0,52,2570.0,square4,i,0.126,3,V,5.0
V5,63.0,41.0,14.0,31.0,52.0,52,2622.0,square4,i,0.195,3,V,5.0
V5,64.0,43.0,23.0,30.0,51.0,51,2673.0,square4,i,0.244,3,V,5.0
V5,65.0,41.0,23.0,35.0,52.0,52,2725.0,square4,i,0.085,3,V,5.0
V5,66.0,41.0,17.0,33.0,47.0,47,2772.0,square4,i,0.182,3,V,5.0
V5,67.0,44.0,23.0,32.0,49.0,49,2821.0,square4,i,0.009,3,V,5.0
V5,68.0,44.0,24.0,31.0,44.0,44,2865.0,square4,i,0.095,3,V,5.0
V5,69.0,43.0,28.0,27.0,48.0,48,2913.0,square4,i,0.433,3,V,5.0
V5,70.0,38.0,22.0,26.0,50.0,50,2963.0,square4,i,0.112,3,V,5.0
V5,71.0,41.0,29.0,26.0,53.0,53,3016.0,square4,i,0.198,3,V,5.0
V5,72.0,40.0,20.0,28.0,51.0,51,3067.0,square4,i,0.209,3,V,5.0
V5,73.0,59.0,44.0,51.0,35.0,35,3102.0,square4,i,0.461,3,V,5.0
V5,74.0,60.0,38.0,55.0,43.0,43,3145.0,square4,i,0.472,3,V,5.0
V5,75.0,63.0,45.0,50.0,37.0,37,3182.0,square4,i,0.302,3,V,5.0
V5,76.0,62.0,42.0,50.0,37.0,37,3219.0,square4,i,0.311,3,V,5.0
V5,77.0,57.0,37.0,52.0,35.0,35,3254.0,square4,i,0.199,3,V,5.0
V5,78.0,66.0,45.0,54.0,37.0,45,3299.0,square2,f,0.281,1,V,5.0
V5,79.0,64.0,37.0,48.0,35.0,37,3336.0,square2,f,0.211,1,V,5.0
V5,80.0,63.0,40.0,56.0,38.0,40,3376.0,square2,f,0.296,1,V,5.0
V5,81.0,62.0,41.0,54.0,32.0,41,3417.0,square2,f,0.06,1,V,5.0
V5,82.0,58.0,41.0,59.0,39.0,41,3458.0,square2,f,0.386,1,V,5.0
V5,83.0,66.0,46.0,54.0,35.0,46,3504.0,square2,f,0.065,1,V,5.0
V5,84.0,67.0,44.0,52.0,33.0,44,3548.0,square2,f,0.05,1,V,5.0
V5,85.0,67.0,45.0,46.0,36.0,36,3584.0,square4,i,0.813,3,V,5.0
V5,86.0,65.0,44.0,51.0,38.0,65,3649.0,square1,r,0.227,0,V,5.0
V5,87.0,64.0,49.0,48.0,35.0,64,3713.0,square1,r,0.321,0,V,5.0
V5,88.0,68.0,47.0,56.0,36.0,68,3781.0,square1,r,0.227,0,V,5.0
V5,89.0,60.0,42.0,57.0,32.0,60,3841.0,square1,r,0.33,0,V,5.0
V5,90.0,59.0,43.0,53.0,34.0,59,3900.0,square1,r,0.028,0,V,5.0
V5,91.0,64.0,43.0,51.0,34.0,64,3964.0,square1,r,0.062,0,V,5.0
V5,92.0,65.0,41.0,57.0,38.0,65,4029.0,square1,r,0.764,0,V,5.0
V5,93.0,59.0,48.0,54.0,40.0,59,4088.0,square1,r,0.008,0,V,5.0
V5,94.0,66.0,44.0,53.0,43.0,66,4154.0,square1,r,0.27,0,V,5.0
V5,95.0,63.0,43.0,50.0,40.0,63,4217.0,square1,r,0.911,0,V,5.0
V5,96.0,62.0,44.0,50.0,33.0,62,4279.0,square1,r,0.327,0,V,5.0
V5,97.0,64.0,49.0,55.0,37.0,64,4343.0,square1,r,0.282,0,V,5.0
V5,98.0,65.0,44.0,53.0,36.0,65,4408.0,square1,r,0.011,0,V,5.0
V5,99.0,65.0,42.0,55.0,35.0,65,4473.0,square1,r,0.231,0,V,5.0
V8,0.0,49.0,55.0,64.0,74.0,49,49.0,square1,f,1.637,0,V,8.0
V8,1.0,51.0,54.0,70.0,81.0,54,103.0,square2,i,0.108,1,V,8.0
V8,2.0,46.0,62.0,70.0,77.0,70,173.0,square3,r,0.183,2,V,8.0
V8,3.0,46.0,56.0,67.0,75.0,67,240.0,square3,r,0.351,2,V,8.0
V8,4.0,50.0,59.0,67.0,83.0,83,323.0,square4,j,0.152,3,V,8.0
V8,5.0,51.0,54.0,65.0,78.0,78,401.0,square4,j,0.265,3,V,8.0
V8,6.0,45.0,57.0,66.0,80.0,80,481.0,square4,j,0.111,3,V,8.0
V8,7.0,46.0,64.0,68.0,77.0,77,558.0,square4,j,0.095,3,V,8.0
V8,8.0,50.0,57.0,66.0,73.0,73,631.0,square4,j,0.517,3,V,8.0
V8,9.0,46.0,56.0,71.0,72.0,72,703.0,square4,j,0.43,3,V,8.0
V8,10.0,56.0,58.0,67.0,75.0,75,778.0,square4,j,0.166,3,V,8.0
V8,11.0,50.0,61.0,69.0,74.0,74,852.0,square4,j,0.227,3,V,8.0
V8,12.0,59.0,59.0,69.0,77.0,77,929.0,square4,j,0.409,3,V,8.0
V8,13.0,50.0,56.0,72.0,77.0,77,1006.0,square4,j,0.34,3,V,8.0
V8,14.0,48.0,55.0,65.0,80.0,80,1086.0,square4,j,0.159,3,V,8.0
V8,15.0,48.0,58.0,65.0,76.0,76,1162.0,square4,j,0.163,3,V,8.0
V8,16.0,49.0,58.0,67.0,75.0,75,1237.0,square4,j,0.512,3,V,8.0
V8,17.0,51.0,56.0,68.0,76.0,76,1313.0,square4,j,1.602,3,V,8.0
V8,18.0,52.0,63.0,69.0,80.0,80,1393.0,square4,j,0.581,3,V,8.0
V8,19.0,54.0,54.0,71.0,79.0,79,1472.0,square4,j,0.496,3,V,8.0
V8,20.0,48.0,53.0,62.0,77.0,77,1549.0,square4,j,0.374,3,V,8.0
V8,21.0,44.0,61.0,66.0,77.0,77,1626.0,square4,j,0.063,3,V,8.0
V8,22.0,52.0,58.0,64.0,78.0,78,1704.0,square4,j,0.381,3,V,8.0
V8,23.0,50.0,49.0,67.0,79.0,79,1783.0,square4,j,0.209,3,V,8.0
V8,24.0,49.0,59.0,69.0,74.0,74,1857.0,square4,j,1.609,3,V,8.0
V8,25.0,46.0,61.0,65.0,81.0,81,1938.0,square4,j,0.161,3,V,8.0
V8,26.0,49.0,58.0,63.0,35.0,35,1973.0,square4,j,0.194,3,V,8.0
V8,27.0,48.0,51.0,66.0,41.0,66,2039.0,square3,r,0.109,2,V,8.0
V8,28.0,46.0,55.0,65.0,38.0,65,2104.0,square3,r,0.245,2,V,8.0
V8,29.0,47.0,58.0,69.0,40.0,58,2162.0,square2,i,0.129,1,V,8.0
V8,30.0,42.0,55.0,67.0,43.0,55,2217.0,square2,i,0.661,1,V,8.0
V8,31.0,49.0,56.0,64.0,36.0,49,2266.0,square1,f,0.334,0,V,8.0
V8,32.0,49.0,55.0,69.0,38.0,69,2335.0,square3,r,0.111,2,V,8.0
V8,33.0,44.0,52.0,65.0,48.0,65,2400.0,square3,r,0.448,2,V,8.0
V8,34.0,44.0,57.0,70.0,45.0,70,2470.0,square3,r,0.446,2,V,8.0
V8,35.0,44.0,54.0,68.0,38.0,68,2538.0,square3,r,0.263,2,V,8.0
V8,36.0,45.0,56.0,64.0,40.0,64,2602.0,square3,r,0.29,2,V,8.0
V8,37.0,47.0,57.0,66.0,37.0,66,2668.0,square3,r,0.028,2,V,8.0
V8,38.0,49.0,50.0,66.0,37.0,66,2734.0,square3,r,0.201,2,V,8.0
V8,39.0,51.0,56.0,61.0,39.0,61,2795.0,square3,r,0.175,2,V,8.0
V8,40.0,47.0,59.0,66.0,41.0,66,2861.0,square3,r,0.193,2,V,8.0
V8,41.0,42.0,56.0,69.0,42.0,69,2930.0,square3,r,0.13,2,V,8.0
V8,42.0,47.0,57.0,72.0,35.0,72,3002.0,square3,r,0.144,2,V,8.0
V8,43.0,47.0,57.0,63.0,44.0,63,3065.0,square3,r,0.056,2,V,8.0
V8,44.0,45.0,58.0,67.0,42.0,58,3123.0,square2,i,0.027,1,V,8.0
V8,45.0,44.0,56.0,66.0,43.0,66,3189.0,square3,r,0.281,2,V,8.0
V8,46.0,46.0,53.0,70.0,37.0,37,3226.0,square4,j,0.362,3,V,8.0
V8,47.0,54.0,53.0,71.0,41.0,71,3297.0,square3,r,0.087,2,V,8.0
V8,48.0,49.0,53.0,69.0,37.0,69,3366.0,square3,r,0.091,2,V,8.0
V8,49.0,39.0,57.0,65.0,47.0,65,3431.0,square3,r,0.915,2,V,8.0
V8,50.0,48.0,55.0,65.0,41.0,65,3496.0,square3,r,0.262,2,V,8.0
V8,51.0,45.0,61.0,68.0,43.0,68,3564.0,square3,r,0.162,2,V,8.0
V8,52.0,53.0,52.0,68.0,37.0,68,3632.0,square3,r,0.209,2,V,8.0
V8,53.0,47.0,55.0,66.0,46.0,66,3698.0,square3,r,0.228,2,V,8.0
V8,54.0,49.0,53.0,61.0,39.0,61,3759.0,square3,r,0.294,2,V,8.0
V8,55.0,53.0,70.0,55.0,72.0,55,3814.0,square3,r,0.445,2,V,8.0
V8,56.0,57.0,63.0,48.0,73.0,57,3871.0,square1,f,0.34,0,V,8.0
V8,57.0,53.0,71.0,45.0,80.0,53,3924.0,square1,f,0.175,0,V,8.0
V8,58.0,57.0,69.0,52.0,73.0,57,3981.0,square1,f,0.394,0,V,8.0
V8,59.0,58.0,67.0,54.0,73.0,67,4048.0,square2,i,0.175,1,V,8.0
V8,60.0,55.0,66.0,47.0,76.0,66,4114.0,square2,i,0.242,1,V,8.0
V8,61.0,56.0,65.0,54.0,72.0,65,4179.0,square2,i,0.318,1,V,8.0
V8,62.0,56.0,65.0,49.0,75.0,65,4244.0,square2,i,0.26,1,V,8.0
V8,63.0,61.0,65.0,44.0,78.0,65,4309.0,square2,i,0.15,1,V,8.0
V8,64.0,54.0,66.0,48.0,75.0,66,4375.0,square2,i,0.365,1,V,8.0
V8,65.0,59.0,65.0,46.0,79.0,65,4440.0,square2,i,0.33,1,V,8.0
V8,66.0,51.0,62.0,46.0,73.0,62,4502.0,square2,i,0.276,1,V,8.0
V8,67.0,60.0,70.0,45.0,76.0,70,4572.0,square2,i,0.277,1,V,8.0
V8,68.0,63.0,64.0,47.0,73.0,64,4636.0,square2,i,0.348,1,V,8.0
V8,69.0,58.0,66.0,43.0,77.0,43,4679.0,square3,r,0.259,2,V,8.0
V8,70.0,59.0,65.0,49.0,73.0,65,4744.0,square2,i,0.296,1,V,8.0
V8,71.0,60.0,64.0,49.0,79.0,64,4808.0,square2,i,0.163,1,V,8.0
V8,72.0,96.0,68.0,78.0,67.0,68,4876.0,square2,i,0.351,1,V,8.0
V8,73.0,96.0,68.0,79.0,64.0,68,4944.0,square2,i,0.396,1,V,8.0
V8,74.0,92.0,67.0,81.0,62.0,67,5011.0,square2,i,0.142,1,V,8.0
V8,75.0,96.0,72.0,83.0,62.0,72,5083.0,square2,i,0.236,1,V,8.0
V8,76.0,94.0,70.0,77.0,57.0,70,5153.0,square2,i,0.265,1,V,8.0
V8,77.0,91.0,68.0,81.0,59.0,68,5221.0,square2,i,0.546,1,V,8.0
V8,78.0,90.0,73.0,80.0,63.0,73,5294.0,square2,i,0.278,1,V,8.0
V8,79.0,90.0,73.0,83.0,61.0,73,5367.0,square2,i,0.498,1,V,8.0
V8,80.0,95.0,75.0,81.0,66.0,75,5442.0,square2,i,0.246,1,V,8.0
V8,81.0,92.0,72.0,81.0,57.0,72,5514.0,square2,i,0.131,1,V,8.0
V8,82.0,91.0,71.0,80.0,61.0,71,5585.0,square2,i,0.056,1,V,8.0
V8,83.0,90.0,66.0,83.0,62.0,66,5651.0,square2,i,0.016,1,V,8.0
V8,84.0,93.0,67.0,87.0,65.0,67,5718.0,square2,i,0.33,1,V,8.0
V8,85.0,85.0,70.0,80.0,62.0,70,5788.0,square2,i,0.141,1,V,8.0
V8,86.0,84.0,72.0,85.0,62.0,84,5872.0,square1,f,0.328,0,V,8.0
V8,87.0,91.0,68.0,82.0,65.0,91,5963.0,square1,f,0.16,0,V,8.0
V8,88.0,93.0,67.0,83.0,61.0,93,6056.0,square1,f,0.046,0,V,8.0
V8,89.0,95.0,68.0,78.0,66.0,95,6151.0,square1,f,0.103,0,V,8.0
V8,90.0,91.0,73.0,80.0,60.0,91,6242.0,square1,f,0.597,0,V,8.0
V8,91.0,93.0,68.0,81.0,64.0,93,6335.0,square1,f,0.493,0,V,8.0
V8,92.0,90.0,75.0,82.0,67.0,90,6425.0,square1,f,0.295,0,V,8.0
V8,93.0,92.0,70.0,82.0,66.0,92,6517.0,square1,f,0.842,0,V,8.0
V8,94.0,90.0,71.0,78.0,63.0,90,6607.0,square1,f,0.382,0,V,8.0
V8,95.0,88.0,65.0,78.0,63.0,88,6695.0,square1,f,0.265,0,V,8.0
V8,96.0,89.0,72.0,85.0,62.0,89,6784.0,square1,f,0.58,0,V,8.0
V8,97.0,92.0,72.0,77.0,67.0,92,6876.0,square1,f,0.001,0,V,8.0
V8,98.0,86.0,63.0,82.0,62.0,86,6962.0,square1,f,0.282,0,V,8.0
V8,99.0,90.0,66.0,75.0,61.0,90,7052.0,square1,f,0.594,0,V,8.0
V6,0.0,43.0,59.0,68.0,49.0,99999,0.0,invalid,,,-1,V,6.0
V6,1.0,43.0,62.0,71.0,50.0,43,43.0,square1,r,0.464,0,V,6.0
V6,2.0,48.0,61.0,72.0,51.0,51,94.0,square4,f,0.176,3,V,6.0
V6,3.0,46.0,55.0,71.0,51.0,71,165.0,square3,i,0.027,2,V,6.0
V6,4.0,44.0,61.0,74.0,48.0,61,226.0,square2,j,0.06,1,V,6.0
V6,5.0,45.0,62.0,70.0,51.0,70,296.0,square3,i,0.001,2,V,6.0
V6,6.0,42.0,67.0,73.0,46.0,73,369.0,square3,i,0.323,2,V,6.0
V6,7.0,44.0,63.0,71.0,53.0,71,440.0,square3,i,0.567,2,V,6.0
V6,8.0,41.0,62.0,73.0,52.0,73,513.0,square3,i,0.308,2,V,6.0
V6,9.0,46.0,59.0,72.0,54.0,72,585.0,square3,i,0.93,2,V,6.0
V6,10.0,45.0,59.0,70.0,53.0,70,655.0,square3,i,0.01,2,V,6.0
V6,11.0,45.0,60.0,70.0,49.0,70,725.0,square3,i,0.664,2,V,6.0
V6,12.0,45.0,66.0,64.0,48.0,64,789.0,square3,i,0.163,2,V,6.0
V6,13.0,45.0,61.0,69.0,47.0,69,858.0,square3,i,0.231,2,V,6.0
V6,14.0,47.0,60.0,71.0,56.0,71,929.0,square3,i,0.513,2,V,6.0
V6,15.0,46.0,64.0,67.0,52.0,52,981.0,square4,f,0.111,3,V,6.0
V6,16.0,50.0,60.0,69.0,54.0,60,1041.0,square2,j,0.075,1,V,6.0
V6,17.0,43.0,60.0,70.0,53.0,70,1111.0,square3,i,0.259,2,V,6.0
V6,18.0,46.0,63.0,72.0,55.0,72,1183.0,square3,i,0.364,2,V,6.0
V6,19.0,46.0,65.0,73.0,51.0,73,1256.0,square3,i,0.142,2,V,6.0
V6,20.0,44.0,63.0,66.0,51.0,66,1322.0,square3,i,0.371,2,V,6.0
V6,21.0,43.0,63.0,70.0,49.0,70,1392.0,square3,i,0.258,2,V,6.0
V6,22.0,45.0,63.0,71.0,50.0,71,1463.0,square3,i,0.302,2,V,6.0
V6,23.0,45.0,38.0,28.0,60.0,28,1491.0,square3,i,0.165,2,V,6.0
V6,24.0,46.0,33.0,33.0,53.0,33,1524.0,square2,j,0.184,1,V,6.0
V6,25.0,45.0,36.0,32.0,63.0,45,1569.0,square1,r,0.034,0,V,6.0
V6,26.0,52.0,37.0,28.0,57.0,57,1626.0,square4,f,0.246,3,V,6.0
V6,27.0,45.0,33.0,30.0,62.0,62,1688.0,square4,f,0.126,3,V,6.0
V6,28.0,43.0,37.0,24.0,51.0,51,1739.0,square4,f,0.428,3,V,6.0
V6,29.0,48.0,39.0,34.0,61.0,61,1800.0,square4,f,0.042,3,V,6.0
V6,30.0,48.0,44.0,35.0,59.0,59,1859.0,square4,f,0.551,3,V,6.0
V6,31.0,50.0,39.0,34.0,53.0,53,1912.0,square4,f,1.062,3,V,6.0
V6,32.0,44.0,33.0,33.0,54.0,54,1966.0,square4,f,0.531,3,V,6.0
V6,33.0,48.0,37.0,30.0,56.0,56,2022.0,square4,f,0.496,3,V,6.0
V6,34.0,52.0,37.0,27.0,59.0,59,2081.0,square4,f,1.328,3,V,6.0
V6,35.0,47.0,32.0,29.0,59.0,59,2140.0,square4,f,1.068,3,V,6.0
V6,36.0,45.0,37.0,27.0,56.0,56,2196.0,square4,f,0.261,3,V,6.0
V6,37.0,39.0,37.0,31.0,57.0,57,2253.0,square4,f,0.561,3,V,6.0
V6,38.0,50.0,38.0,29.0,56.0,29,2282.0,square3,i,0.843,2,V,6.0
V6,39.0,48.0,37.0,27.0,57.0,37,2319.0,square2,j,0.427,1,V,6.0
V6,40.0,53.0,37.0,29.0,57.0,53,2372.0,square1,r,0.083,0,V,6.0
V6,41.0,41.0,34.0,33.0,58.0,58,2430.0,square4,f,0.378,3,V,6.0
V6,42.0,50.0,37.0,31.0,57.0,57,2487.0,square4,f,0.396,3,V,6.0
V6,43.0,48.0,34.0,30.0,58.0,58,2545.0,square4,f,0.245,3,V,6.0
V6,44.0,44.0,37.0,33.0,60.0,60,2605.0,square4,f,0.597,3,V,6.0
V6,45.0,44.0,32.0,33.0,55.0,55,2660.0,square4,f,0.359,3,V,6.0
V6,46.0,44.0,36.0,33.0,59.0,59,2719.0,square4,f,0.098,3,V,6.0
V6,47.0,42.0,34.0,29.0,52.0,52,2771.0,square4,f,0.452,3,V,6.0
V6,48.0,46.0,41.0,28.0,60.0,60,2831.0,square4,f,0.417,3,V,6.0
V6,49.0,46.0,40.0,27.0,55.0,55,2886.0,square4,f,0.301,3,V,6.0
V6,50.0,46.0,41.0,32.0,55.0,32,2918.0,square3,i,0.257,2,V,6.0
V6,51.0,41.0,39.0,30.0,55.0,41,2959.0,square1,r,0.259,0,V,6.0
V6,52.0,47.0,37.0,31.0,55.0,37,2996.0,square2,j,0.131,1,V,6.0
V6,53.0,57.0,36.0,30.0,58.0,58,3054.0,square4,f,0.147,3,V,6.0
V6,54.0,42.0,38.0,28.0,50.0,50,3104.0,square4,f,0.295,3,V,6.0
V6,55.0,56.0,42.0,67.0,46.0,46,3150.0,square4,f,0.614,3,V,6.0
V6,56.0,54.0,37.0,68.0,46.0,46,3196.0,square4,f,0.315,3,V,6.0
V6,57.0,57.0,40.0,64.0,52.0,52,3248.0,square4,f,0.877,3,V,6.0
V6,58.0,53.0,45.0,68.0,45.0,45,3293.0,square4,f,0.124,3,V,6.0
V6,59.0,59.0,41.0,69.0,49.0,99999,3293.0,invalid,,,-1,V,6.0
V6,60.0,62.0,41.0,71.0,51.0,71,3364.0,square3,i,0.632,2,V,6.0
V6,61.0,58.0,50.0,72.0,51.0,72,3436.0,square3,i,0.342,2,V,6.0
V6,62.0,61.0,43.0,65.0,47.0,65,3501.0,square3,i,0.548,2,V,6.0
V6,63.0,55.0,40.0,67.0,51.0,67,3568.0,square3,i,0.51,2,V,6.0
V6,64.0,56.0,43.0,67.0,47.0,67,3635.0,square3,i,0.496,2,V,6.0
V6,65.0,62.0,46.0,67.0,48.0,67,3702.0,square3,i,0.345,2,V,6.0
V6,66.0,55.0,44.0,67.0,48.0,67,3769.0,square3,i,0.502,2,V,6.0
V6,67.0,61.0,46.0,70.0,49.0,70,3839.0,square3,i,0.466,2,V,6.0
V6,68.0,63.0,41.0,72.0,46.0,72,3911.0,square3,i,0.36,2,V,6.0
V6,69.0,59.0,41.0,68.0,48.0,68,3979.0,square3,i,0.665,2,V,6.0
V6,70.0,59.0,37.0,70.0,45.0,70,4049.0,square3,i,0.127,2,V,6.0
V6,71.0,83.0,64.0,56.0,70.0,99999,4049.0,invalid,,,-1,V,6.0
V6,72.0,82.0,59.0,53.0,75.0,53,4102.0,square3,i,0.464,2,V,6.0
V6,73.0,85.0,67.0,58.0,73.0,58,4160.0,square3,i,0.998,2,V,6.0
V6,74.0,79.0,67.0,61.0,73.0,61,4221.0,square3,i,0.269,2,V,6.0
V6,75.0,84.0,62.0,53.0,69.0,53,4274.0,square3,i,0.37,2,V,6.0
V6,76.0,81.0,60.0,55.0,76.0,55,4329.0,square3,i,0.295,2,V,6.0
V6,77.0,84.0,61.0,60.0,72.0,60,4389.0,square3,i,0.344,2,V,6.0
V6,78.0,90.0,61.0,54.0,74.0,54,4443.0,square3,i,0.659,2,V,6.0
V6,79.0,80.0,64.0,51.0,75.0,51,4494.0,square3,i,0.509,2,V,6.0
V6,80.0,85.0,62.0,56.0,78.0,56,4550.0,square3,i,0.249,2,V,6.0
V6,81.0,86.0,65.0,58.0,69.0,69,4619.0,square4,f,0.096,3,V,6.0
V6,82.0,83.0,62.0,58.0,77.0,77,4696.0,square4,f,0.267,3,V,6.0
V6,83.0,87.0,61.0,59.0,70.0,70,4766.0,square4,f,1.097,3,V,6.0
V6,84.0,89.0,65.0,54.0,78.0,78,4844.0,square4,f,0.149,3,V,6.0
V6,85.0,78.0,63.0,55.0,75.0,75,4919.0,square4,f,0.882,3,V,6.0
V6,86.0,87.0,67.0,52.0,75.0,75,4994.0,square4,f,0.112,3,V,6.0
V6,87.0,86.0,62.0,60.0,75.0,75,5069.0,square4,f,0.149,3,V,6.0
V6,88.0,79.0,67.0,56.0,76.0,76,5145.0,square4,f,0.256,3,V,6.0
V6,89.0,83.0,61.0,57.0,75.0,75,5220.0,square4,f,0.519,3,V,6.0
V6,90.0,83.0,67.0,51.0,76.0,76,5296.0,square4,f,0.172,3,V,6.0
V6,91.0,83.0,63.0,55.0,69.0,69,5365.0,square4,f,0.233,3,V,6.0
V6,92.0,89.0,56.0,53.0,68.0,68,5433.0,square4,f,0.096,3,V,6.0
V6,93.0,84.0,61.0,59.0,74.0,74,5507.0,square4,f,0.075,3,V,6.0
V6,94.0,77.0,58.0,58.0,76.0,76,5583.0,square4,f,0.078,3,V,6.0
V6,95.0,82.0,60.0,53.0,74.0,74,5657.0,square4,f,0.166,3,V,6.0
V6,96.0,87.0,61.0,56.0,71.0,71,5728.0,square4,f,0.145,3,V,6.0
V6,97.0,83.0,66.0,55.0,75.0,75,5803.0,square4,f,0.577,3,V,6.0
V6,98.0,81.0,63.0,55.0,76.0,76,5879.0,square4,f,0.228,3,V,6.0
V6,99.0,92.0,63.0,61.0,78.0,78,5957.0,square4,f,0.197,3,V,6.0
