block,Trial,square1,square2,square3,square4,currPoints,totalPoints,square,choiceKey.keys,choiceKey.rt,armNum,blockType,blockNum
prac,0.0,100.0,0.0,0.0,0.0,100.0,100.0,square1,,,0,p,0.0
prac,1.0,100.0,0.0,0.0,0.0,100.0,200.0,square1,,,0,p,0.0
prac,2.0,100.0,0.0,0.0,0.0,100.0,300.0,square1,,,0,p,0.0
prac,3.0,100.0,0.0,0.0,0.0,100.0,400.0,square1,,,0,p,0.0
prac,4.0,100.0,0.0,0.0,0.0,100.0,500.0,square1,,,0,p,0.0
prac,5.0,100.0,0.0,0.0,0.0,100.0,600.0,square1,,,0,p,0.0
prac,6.0,100.0,0.0,0.0,0.0,0.0,600.0,square4,,,3,p,0.0
prac,7.0,100.0,0.0,0.0,0.0,100.0,700.0,square1,,,0,p,0.0
prac,8.0,100.0,0.0,0.0,0.0,100.0,800.0,square1,,,0,p,0.0
prac,9.0,100.0,0.0,0.0,0.0,100.0,900.0,square1,,,0,p,0.0
V2,0.0,33.0,24.0,43.0,18.0,18.0,18.0,square4,r,0.566,3,V,2.0
V2,1.0,33.0,29.0,42.0,21.0,42.0,60.0,square3,j,0.0411,2,V,2.0
V2,2.0,37.0,26.0,45.0,22.0,26.0,86.0,square2,f,0.5596,1,V,2.0
V2,3.0,39.0,26.0,41.0,20.0,39.0,125.0,square1,i,0.2429,0,V,2.0
V2,4.0,29.0,32.0,45.0,19.0,45.0,170.0,square3,j,0.0942,2,V,2.0
V2,5.0,33.0,28.0,44.0,17.0,44.0,214.0,square3,j,0.228,2,V,2.0
V2,6.0,32.0,24.0,49.0,20.0,49.0,263.0,square3,j,0.2799,2,V,2.0
V2,7.0,32.0,21.0,42.0,13.0,42.0,305.0,square3,j,0.2639,2,V,2.0
V2,8.0,35.0,23.0,45.0,19.0,45.0,350.0,square3,j,0.2279,2,V,2.0
V2,9.0,33.0,28.0,46.0,17.0,46.0,396.0,square3,j,0.1232,2,V,2.0
V2,10.0,39.0,27.0,45.0,21.0,45.0,441.0,square3,j,0.5425,2,V,2.0
V2,11.0,30.0,23.0,44.0,22.0,44.0,485.0,square3,j,0.0879,2,V,2.0
V2,12.0,31.0,26.0,43.0,16.0,43.0,528.0,square3,j,0.4448,2,V,2.0
V2,13.0,35.0,26.0,43.0,22.0,22.0,550.0,square4,r,0.2306,3,V,2.0
V2,14.0,35.0,29.0,46.0,19.0,46.0,596.0,square3,j,0.2228,2,V,2.0
V2,15.0,36.0,22.0,44.0,20.0,36.0,632.0,square1,i,0.1905,0,V,2.0
V2,16.0,33.0,27.0,45.0,19.0,45.0,677.0,square3,j,0.0005,2,V,2.0
V2,17.0,35.0,25.0,41.0,15.0,25.0,702.0,square2,f,0.5096,1,V,2.0
V2,18.0,37.0,27.0,51.0,21.0,51.0,753.0,square3,j,0.0787,2,V,2.0
V2,19.0,33.0,25.0,43.0,18.0,43.0,796.0,square3,j,0.2441,2,V,2.0
V2,20.0,39.0,25.0,43.0,20.0,43.0,839.0,square3,j,0.1468,2,V,2.0
V2,21.0,27.0,32.0,43.0,24.0,43.0,882.0,square3,j,0.0064,2,V,2.0
V2,22.0,35.0,27.0,50.0,13.0,50.0,932.0,square3,j,0.0501,2,V,2.0
V2,23.0,36.0,25.0,39.0,17.0,39.0,971.0,square3,j,0.1141,2,V,2.0
V2,24.0,32.0,45.0,39.0,59.0,39.0,1010.0,square3,j,0.5895,2,V,2.0
V2,25.0,26.0,43.0,37.0,55.0,37.0,1047.0,square3,j,0.2443,2,V,2.0
V2,26.0,23.0,45.0,39.0,58.0,23.0,1070.0,square1,i,0.2441,0,V,2.0
V2,27.0,30.0,44.0,40.0,56.0,40.0,1110.0,square3,j,0.3495,2,V,2.0
V2,28.0,34.0,48.0,41.0,54.0,41.0,1151.0,square3,j,0.2608,2,V,2.0
V2,29.0,29.0,42.0,35.0,54.0,35.0,1186.0,square3,j,0.2396,2,V,2.0
V2,30.0,22.0,39.0,39.0,55.0,39.0,1225.0,square3,j,0.1774,2,V,2.0
V2,31.0,32.0,48.0,35.0,50.0,35.0,1260.0,square3,j,0.1328,2,V,2.0
V2,32.0,27.0,47.0,40.0,58.0,58.0,1318.0,square4,r,0.1131,3,V,2.0
V2,33.0,28.0,46.0,31.0,54.0,54.0,1372.0,square4,r,0.3284,3,V,2.0
V2,34.0,28.0,44.0,41.0,49.0,49.0,1421.0,square4,r,0.2242,3,V,2.0
V2,35.0,31.0,44.0,33.0,59.0,59.0,1480.0,square4,r,0.3107,3,V,2.0
V2,36.0,29.0,48.0,30.0,55.0,55.0,1535.0,square4,r,0.1826,3,V,2.0
V2,37.0,25.0,45.0,32.0,51.0,51.0,1586.0,square4,r,0.2495,3,V,2.0
V2,38.0,29.0,48.0,33.0,54.0,54.0,1640.0,square4,r,0.3611,3,V,2.0
V2,39.0,29.0,44.0,33.0,54.0,54.0,1694.0,square4,r,0.1903,3,V,2.0
V2,40.0,33.0,42.0,37.0,61.0,61.0,1755.0,square4,r,0.176,3,V,2.0
V2,41.0,28.0,45.0,41.0,57.0,57.0,1812.0,square4,r,0.2437,3,V,2.0
V2,42.0,33.0,46.0,36.0,54.0,54.0,1866.0,square4,r,0.5332,3,V,2.0
V2,43.0,31.0,42.0,40.0,57.0,57.0,1923.0,square4,r,0.2774,3,V,2.0
V2,44.0,27.0,45.0,38.0,56.0,56.0,1979.0,square4,r,0.2279,3,V,2.0
V2,45.0,27.0,44.0,32.0,51.0,51.0,2030.0,square4,r,0.2458,3,V,2.0
V2,46.0,28.0,44.0,39.0,57.0,57.0,2087.0,square4,r,0.2496,3,V,2.0
V2,47.0,30.0,45.0,36.0,56.0,56.0,2143.0,square4,r,0.2328,3,V,2.0
V2,48.0,31.0,47.0,41.0,59.0,59.0,2202.0,square4,r,0.2111,3,V,2.0
V2,49.0,32.0,45.0,33.0,57.0,57.0,2259.0,square4,r,0.2154,3,V,2.0
V2,50.0,24.0,38.0,36.0,52.0,52.0,2311.0,square4,r,0.1641,3,V,2.0
V2,51.0,29.0,48.0,34.0,54.0,54.0,2365.0,square4,r,0.1784,3,V,2.0
V2,52.0,30.0,50.0,38.0,56.0,56.0,2421.0,square4,r,0.378,3,V,2.0
V2,53.0,27.0,47.0,33.0,55.0,55.0,2476.0,square4,r,0.1573,3,V,2.0
V2,54.0,34.0,21.0,45.0,25.0,25.0,2501.0,square4,r,0.1439,3,V,2.0
V2,55.0,36.0,19.0,39.0,24.0,36.0,2537.0,square1,i,0.0958,0,V,2.0
V2,56.0,29.0,19.0,45.0,18.0,45.0,2582.0,square3,j,0.06,2,V,2.0
V2,57.0,29.0,20.0,39.0,20.0,39.0,2621.0,square3,j,0.1106,2,V,2.0
V2,58.0,40.0,18.0,42.0,21.0,18.0,2639.0,square2,f,0.0312,1,V,2.0
V2,59.0,31.0,17.0,44.0,23.0,44.0,2683.0,square3,j,0.1052,2,V,2.0
V2,60.0,31.0,19.0,42.0,20.0,42.0,2725.0,square3,j,0.0772,2,V,2.0
V2,61.0,34.0,16.0,41.0,25.0,41.0,2766.0,square3,j,0.0634,2,V,2.0
V2,62.0,28.0,12.0,41.0,22.0,22.0,2788.0,square4,r,0.1113,3,V,2.0
V2,63.0,32.0,14.0,45.0,26.0,32.0,2820.0,square1,i,0.0229,0,V,2.0
V2,64.0,36.0,21.0,41.0,25.0,41.0,2861.0,square3,j,0.4776,2,V,2.0
V2,65.0,32.0,13.0,39.0,24.0,32.0,2893.0,square1,i,0.3272,0,V,2.0
V2,66.0,35.0,15.0,42.0,20.0,42.0,2935.0,square3,j,0.0963,2,V,2.0
V2,67.0,30.0,23.0,47.0,27.0,47.0,2982.0,square3,j,0.0232,2,V,2.0
V2,68.0,31.0,17.0,43.0,24.0,43.0,3025.0,square3,j,0.0824,2,V,2.0
V2,69.0,33.0,20.0,41.0,20.0,41.0,3066.0,square3,j,0.1279,2,V,2.0
V2,70.0,37.0,17.0,43.0,21.0,43.0,3109.0,square3,j,0.1202,2,V,2.0
V2,71.0,45.0,31.0,36.0,58.0,36.0,3145.0,square3,j,0.5266,2,V,2.0
V2,72.0,47.0,31.0,31.0,54.0,47.0,3192.0,square1,i,0.3109,0,V,2.0
V2,73.0,50.0,30.0,33.0,55.0,50.0,3242.0,square1,i,0.1596,0,V,2.0
V2,74.0,45.0,31.0,36.0,51.0,45.0,3287.0,square1,i,0.1944,0,V,2.0
V2,75.0,47.0,28.0,38.0,54.0,47.0,3334.0,square1,i,0.3777,0,V,2.0
V2,76.0,52.0,33.0,35.0,60.0,52.0,3386.0,square1,i,0.2776,0,V,2.0
V2,77.0,41.0,29.0,37.0,53.0,41.0,3427.0,square1,i,0.3262,0,V,2.0
V2,78.0,51.0,24.0,34.0,56.0,51.0,3478.0,square1,i,0.1612,0,V,2.0
V2,79.0,41.0,34.0,36.0,52.0,41.0,3519.0,square1,i,0.0005,0,V,2.0
V2,80.0,48.0,31.0,37.0,51.0,48.0,3567.0,square1,i,0.2156,0,V,2.0
V2,81.0,43.0,32.0,40.0,53.0,43.0,3610.0,square1,i,0.2134,0,V,2.0
V2,82.0,48.0,25.0,37.0,58.0,48.0,3658.0,square1,i,0.0269,0,V,2.0
V2,83.0,45.0,32.0,36.0,61.0,45.0,3703.0,square1,i,0.2166,0,V,2.0
V2,84.0,47.0,29.0,39.0,60.0,47.0,3750.0,square1,i,0.0814,0,V,2.0
V2,85.0,49.0,30.0,39.0,54.0,49.0,3799.0,square1,i,0.0773,0,V,2.0
V2,86.0,46.0,28.0,33.0,51.0,46.0,3845.0,square1,i,0.1432,0,V,2.0
V2,87.0,45.0,24.0,37.0,55.0,45.0,3890.0,square1,i,0.1268,0,V,2.0
V2,88.0,48.0,29.0,42.0,54.0,48.0,3938.0,square1,i,0.1107,0,V,2.0
V2,89.0,43.0,31.0,38.0,52.0,43.0,3981.0,square1,i,0.0044,0,V,2.0
V2,90.0,51.0,33.0,36.0,56.0,51.0,4032.0,square1,i,0.3114,0,V,2.0
V2,91.0,49.0,32.0,37.0,59.0,49.0,4081.0,square1,i,0.5125,0,V,2.0
V2,92.0,47.0,29.0,37.0,56.0,47.0,4128.0,square1,i,0.261,0,V,2.0
V2,93.0,45.0,27.0,35.0,56.0,45.0,4173.0,square1,i,0.2113,0,V,2.0
V2,94.0,45.0,31.0,31.0,49.0,45.0,4218.0,square1,i,0.1608,0,V,2.0
V2,95.0,47.0,33.0,36.0,52.0,47.0,4265.0,square1,i,0.3295,0,V,2.0
V2,96.0,44.0,28.0,37.0,59.0,44.0,4309.0,square1,i,0.1931,0,V,2.0
V2,97.0,48.0,28.0,33.0,55.0,48.0,4357.0,square1,i,0.301,0,V,2.0
V2,98.0,49.0,29.0,39.0,60.0,49.0,4406.0,square1,i,0.445,0,V,2.0
V2,99.0,44.0,30.0,36.0,50.0,44.0,4450.0,square1,i,0.4108,0,V,2.0
V7,0.0,86.0,61.0,78.0,68.0,78.0,78.0,square3,r,1.0871,2,V,7.0
V7,1.0,95.0,62.0,79.0,70.0,79.0,157.0,square3,r,0.2502,2,V,7.0
V7,2.0,89.0,67.0,81.0,77.0,89.0,246.0,square1,j,0.2745,0,V,7.0
V7,3.0,90.0,56.0,85.0,72.0,90.0,336.0,square1,j,0.2445,0,V,7.0
V7,4.0,91.0,65.0,77.0,71.0,65.0,401.0,square2,i,0.2094,1,V,7.0
V7,5.0,91.0,58.0,84.0,72.0,91.0,492.0,square1,j,0.2467,0,V,7.0
V7,6.0,94.0,65.0,87.0,72.0,94.0,586.0,square1,j,0.1153,0,V,7.0
V7,7.0,89.0,67.0,79.0,67.0,89.0,675.0,square1,j,0.0445,0,V,7.0
V7,8.0,91.0,65.0,84.0,68.0,91.0,766.0,square1,j,0.0812,0,V,7.0
V7,9.0,92.0,60.0,87.0,69.0,92.0,858.0,square1,j,0.0772,0,V,7.0
V7,10.0,90.0,67.0,81.0,76.0,90.0,948.0,square1,j,0.0481,0,V,7.0
V7,11.0,86.0,67.0,83.0,73.0,86.0,1034.0,square1,j,0.1102,0,V,7.0
V7,12.0,90.0,62.0,80.0,72.0,90.0,1124.0,square1,j,0.1278,0,V,7.0
V7,13.0,84.0,60.0,88.0,71.0,84.0,1208.0,square1,j,0.0789,0,V,7.0
V7,14.0,95.0,64.0,80.0,70.0,95.0,1303.0,square1,j,0.0006,0,V,7.0
V7,15.0,86.0,60.0,81.0,70.0,86.0,1389.0,square1,j,0.3298,0,V,7.0
V7,16.0,85.0,65.0,77.0,69.0,85.0,1474.0,square1,j,0.2154,0,V,7.0
V7,17.0,91.0,65.0,81.0,70.0,91.0,1565.0,square1,j,0.5169,0,V,7.0
V7,18.0,95.0,61.0,81.0,76.0,95.0,1660.0,square1,j,0.1906,0,V,7.0
V7,19.0,90.0,58.0,79.0,72.0,90.0,1750.0,square1,j,0.1787,0,V,7.0
V7,20.0,94.0,68.0,80.0,79.0,94.0,1844.0,square1,j,0.0004,0,V,7.0
V7,21.0,92.0,66.0,82.0,70.0,92.0,1936.0,square1,j,0.1275,0,V,7.0
V7,22.0,92.0,64.0,83.0,72.0,92.0,2028.0,square1,j,0.0005,0,V,7.0
V7,23.0,91.0,68.0,82.0,73.0,91.0,2119.0,square1,j,0.0259,0,V,7.0
V7,24.0,87.0,71.0,82.0,72.0,87.0,2206.0,square1,j,0.007,0,V,7.0
V7,25.0,91.0,68.0,90.0,74.0,91.0,2297.0,square1,j,0.0826,0,V,7.0
V7,26.0,89.0,65.0,83.0,72.0,89.0,2386.0,square1,j,0.0446,0,V,7.0
V7,27.0,91.0,61.0,81.0,73.0,91.0,2477.0,square1,j,0.3285,0,V,7.0
V7,28.0,90.0,66.0,81.0,72.0,90.0,2567.0,square1,j,0.0111,0,V,7.0
V7,29.0,89.0,67.0,77.0,71.0,71.0,2638.0,square4,f,0.0961,3,V,7.0
V7,30.0,95.0,68.0,84.0,71.0,95.0,2733.0,square1,j,0.1617,0,V,7.0
V7,31.0,95.0,61.0,81.0,70.0,81.0,2814.0,square3,r,0.0797,2,V,7.0
V7,32.0,89.0,65.0,82.0,75.0,89.0,2903.0,square1,j,0.1603,0,V,7.0
V7,33.0,77.0,50.0,80.0,61.0,77.0,2980.0,square1,j,0.145,0,V,7.0
V7,34.0,76.0,54.0,78.0,61.0,76.0,3056.0,square1,j,0.1111,0,V,7.0
V7,35.0,71.0,51.0,80.0,64.0,51.0,3107.0,square2,i,0.278,1,V,7.0
V7,36.0,75.0,51.0,80.0,62.0,80.0,3187.0,square3,r,0.2574,2,V,7.0
V7,37.0,73.0,58.0,86.0,63.0,73.0,3260.0,square1,j,0.1957,0,V,7.0
V7,38.0,73.0,50.0,86.0,61.0,86.0,3346.0,square3,r,0.1809,2,V,7.0
V7,39.0,67.0,53.0,78.0,61.0,78.0,3424.0,square3,r,0.4772,2,V,7.0
V7,40.0,71.0,53.0,84.0,58.0,84.0,3508.0,square3,r,0.162,2,V,7.0
V7,41.0,75.0,51.0,83.0,63.0,83.0,3591.0,square3,r,0.3308,2,V,7.0
V7,42.0,69.0,48.0,87.0,63.0,87.0,3678.0,square3,r,0.2081,2,V,7.0
V7,43.0,70.0,58.0,81.0,60.0,81.0,3759.0,square3,r,0.177,2,V,7.0
V7,44.0,68.0,56.0,76.0,63.0,76.0,3835.0,square3,r,0.0005,2,V,7.0
V7,45.0,74.0,59.0,76.0,56.0,76.0,3911.0,square3,r,0.0004,2,V,7.0
V7,46.0,72.0,54.0,77.0,61.0,77.0,3988.0,square3,r,0.4274,2,V,7.0
V7,47.0,69.0,47.0,81.0,62.0,69.0,4057.0,square1,j,0.2068,0,V,7.0
V7,48.0,75.0,52.0,81.0,57.0,52.0,4109.0,square2,i,0.1108,1,V,7.0
V7,49.0,74.0,55.0,78.0,60.0,60.0,4169.0,square4,f,0.1436,3,V,7.0
V7,50.0,71.0,51.0,80.0,61.0,80.0,4249.0,square3,r,0.1306,2,V,7.0
V7,51.0,75.0,55.0,85.0,62.0,85.0,4334.0,square3,r,0.1942,2,V,7.0
V7,52.0,75.0,59.0,76.0,59.0,76.0,4410.0,square3,r,0.1166,2,V,7.0
V7,53.0,72.0,53.0,84.0,66.0,84.0,4494.0,square3,r,0.0776,2,V,7.0
V7,54.0,69.0,51.0,81.0,60.0,81.0,4575.0,square3,r,0.3604,2,V,7.0
V7,55.0,74.0,56.0,75.0,54.0,75.0,4650.0,square3,r,0.2246,2,V,7.0
V7,56.0,76.0,51.0,83.0,58.0,83.0,4733.0,square3,r,0.0942,2,V,7.0
V7,57.0,71.0,53.0,80.0,64.0,53.0,4786.0,square2,i,0.1774,1,V,7.0
V7,58.0,81.0,56.0,79.0,61.0,79.0,4865.0,square3,r,0.1445,2,V,7.0
V7,59.0,71.0,55.0,83.0,59.0,71.0,4936.0,square1,j,0.1772,0,V,7.0
V7,60.0,73.0,53.0,83.0,64.0,83.0,5019.0,square3,r,0.1445,2,V,7.0
V7,61.0,70.0,53.0,77.0,63.0,77.0,5096.0,square3,r,0.3294,2,V,7.0
V7,62.0,71.0,54.0,76.0,61.0,76.0,5172.0,square3,r,0.3225,2,V,7.0
V7,63.0,68.0,45.0,79.0,65.0,79.0,5251.0,square3,r,0.1643,2,V,7.0
V7,64.0,65.0,55.0,79.0,59.0,59.0,5310.0,square4,f,0.4944,3,V,7.0
V7,65.0,74.0,54.0,81.0,61.0,81.0,5391.0,square3,r,0.2942,2,V,7.0
V7,66.0,70.0,56.0,81.0,63.0,81.0,5472.0,square3,r,0.2779,2,V,7.0
V7,67.0,70.0,85.0,64.0,92.0,64.0,5536.0,square3,r,0.183,2,V,7.0
V7,68.0,73.0,85.0,68.0,92.0,73.0,5609.0,square1,j,0.0945,0,V,7.0
V7,69.0,75.0,83.0,70.0,91.0,75.0,5684.0,square1,j,0.0459,0,V,7.0
V7,70.0,75.0,85.0,69.0,91.0,75.0,5759.0,square1,j,0.0403,0,V,7.0
V7,71.0,71.0,86.0,65.0,94.0,71.0,5830.0,square1,j,0.35,0,V,7.0
V7,72.0,77.0,86.0,65.0,98.0,77.0,5907.0,square1,j,0.0392,0,V,7.0
V7,73.0,77.0,84.0,63.0,94.0,77.0,5984.0,square1,j,0.3573,0,V,7.0
V7,74.0,71.0,86.0,64.0,91.0,71.0,6055.0,square1,j,0.0438,0,V,7.0
V7,75.0,73.0,90.0,60.0,90.0,73.0,6128.0,square1,j,0.1433,0,V,7.0
V7,76.0,79.0,84.0,68.0,95.0,79.0,6207.0,square1,j,0.0496,0,V,7.0
V7,77.0,73.0,85.0,66.0,89.0,73.0,6280.0,square1,j,0.1598,0,V,7.0
V7,78.0,75.0,82.0,67.0,91.0,75.0,6355.0,square1,j,0.1295,0,V,7.0
V7,79.0,72.0,85.0,60.0,90.0,72.0,6427.0,square1,j,0.2125,0,V,7.0
V7,80.0,73.0,83.0,66.0,97.0,73.0,6500.0,square1,j,0.1108,0,V,7.0
V7,81.0,73.0,84.0,67.0,92.0,73.0,6573.0,square1,j,0.1948,0,V,7.0
V7,82.0,69.0,84.0,65.0,91.0,69.0,6642.0,square1,j,0.08,0,V,7.0
V7,83.0,76.0,83.0,72.0,99.0,76.0,6718.0,square1,j,0.0659,0,V,7.0
V7,84.0,72.0,84.0,70.0,94.0,72.0,6790.0,square1,j,0.1776,0,V,7.0
V7,85.0,77.0,83.0,67.0,88.0,77.0,6867.0,square1,j,0.1497,0,V,7.0
V7,86.0,76.0,80.0,67.0,90.0,76.0,6943.0,square1,j,0.0155,0,V,7.0
V7,87.0,70.0,86.0,67.0,95.0,67.0,7010.0,square3,r,0.2948,2,V,7.0
V7,88.0,76.0,84.0,67.0,100.0,76.0,7086.0,square1,j,0.3607,0,V,7.0
V7,89.0,71.0,88.0,60.0,97.0,88.0,7174.0,square2,i,0.1945,1,V,7.0
V7,90.0,69.0,82.0,71.0,95.0,82.0,7256.0,square2,i,0.2948,1,V,7.0
V7,91.0,80.0,84.0,65.0,92.0,84.0,7340.0,square2,i,0.1984,1,V,7.0
V7,92.0,77.0,85.0,68.0,85.0,85.0,7425.0,square2,i,0.2186,1,V,7.0
V7,93.0,72.0,84.0,66.0,91.0,84.0,7509.0,square2,i,0.1232,1,V,7.0
V7,94.0,69.0,83.0,66.0,95.0,83.0,7592.0,square2,i,0.1611,1,V,7.0
V7,95.0,70.0,86.0,75.0,91.0,86.0,7678.0,square2,i,0.0945,1,V,7.0
V7,96.0,74.0,85.0,66.0,88.0,85.0,7763.0,square2,i,0.3735,1,V,7.0
V7,97.0,77.0,82.0,73.0,91.0,82.0,7845.0,square2,i,0.173,1,V,7.0
V7,98.0,76.0,91.0,62.0,94.0,91.0,7936.0,square2,i,0.1443,1,V,7.0
V7,99.0,74.0,84.0,67.0,88.0,84.0,8020.0,square2,i,0.1108,1,V,7.0
V8,0.0,49.0,55.0,64.0,74.0,74.0,74.0,square4,r,0.7384,3,V,8.0
V8,1.0,51.0,54.0,70.0,81.0,51.0,125.0,square1,f,0.0407,0,V,8.0
V8,2.0,46.0,62.0,70.0,77.0,70.0,195.0,square3,i,0.1442,2,V,8.0
V8,3.0,46.0,56.0,67.0,75.0,56.0,251.0,square2,j,0.1612,1,V,8.0
V8,4.0,50.0,59.0,67.0,83.0,83.0,334.0,square4,r,0.1111,3,V,8.0
V8,5.0,51.0,54.0,65.0,78.0,78.0,412.0,square4,r,0.0005,3,V,8.0
V8,6.0,45.0,57.0,66.0,80.0,66.0,478.0,square3,i,0.132,2,V,8.0
V8,7.0,46.0,64.0,68.0,77.0,77.0,555.0,square4,r,0.3273,3,V,8.0
V8,8.0,50.0,57.0,66.0,73.0,50.0,605.0,square1,f,0.0441,0,V,8.0
V8,9.0,46.0,56.0,71.0,72.0,72.0,677.0,square4,r,0.2456,3,V,8.0
V8,10.0,56.0,58.0,67.0,75.0,75.0,752.0,square4,r,0.211,3,V,8.0
V8,11.0,50.0,61.0,69.0,74.0,74.0,826.0,square4,r,0.1137,3,V,8.0
V8,12.0,59.0,59.0,69.0,77.0,77.0,903.0,square4,r,0.1099,3,V,8.0
V8,13.0,50.0,56.0,72.0,77.0,77.0,980.0,square4,r,0.0437,3,V,8.0
V8,14.0,48.0,55.0,65.0,80.0,80.0,1060.0,square4,r,0.0251,3,V,8.0
V8,15.0,48.0,58.0,65.0,76.0,76.0,1136.0,square4,r,0.0271,3,V,8.0
V8,16.0,49.0,58.0,67.0,75.0,75.0,1211.0,square4,r,0.3678,3,V,8.0
V8,17.0,51.0,56.0,68.0,76.0,76.0,1287.0,square4,r,0.0368,3,V,8.0
V8,18.0,52.0,63.0,69.0,80.0,80.0,1367.0,square4,r,0.0728,3,V,8.0
V8,19.0,54.0,54.0,71.0,79.0,54.0,1421.0,square2,j,0.3107,1,V,8.0
V8,20.0,48.0,53.0,62.0,77.0,77.0,1498.0,square4,r,0.2281,3,V,8.0
V8,21.0,44.0,61.0,66.0,77.0,66.0,1564.0,square3,i,0.2098,2,V,8.0
V8,22.0,52.0,58.0,64.0,78.0,78.0,1642.0,square4,r,0.2275,3,V,8.0
V8,23.0,50.0,49.0,67.0,79.0,50.0,1692.0,square1,f,0.2131,0,V,8.0
V8,24.0,49.0,59.0,69.0,74.0,74.0,1766.0,square4,r,0.0495,3,V,8.0
V8,25.0,46.0,61.0,65.0,81.0,81.0,1847.0,square4,r,0.0654,3,V,8.0
V8,26.0,49.0,58.0,63.0,35.0,35.0,1882.0,square4,r,0.2603,3,V,8.0
V8,27.0,48.0,51.0,66.0,41.0,41.0,1923.0,square4,r,0.1059,3,V,8.0
V8,28.0,46.0,55.0,65.0,38.0,38.0,1961.0,square4,r,0.1641,3,V,8.0
V8,29.0,47.0,58.0,69.0,40.0,69.0,2030.0,square3,i,0.1453,2,V,8.0
V8,30.0,42.0,55.0,67.0,43.0,55.0,2085.0,square2,j,0.2283,1,V,8.0
V8,31.0,49.0,56.0,64.0,36.0,49.0,2134.0,square1,f,0.1825,0,V,8.0
V8,32.0,49.0,55.0,69.0,38.0,69.0,2203.0,square3,i,0.1959,2,V,8.0
V8,33.0,44.0,52.0,65.0,48.0,65.0,2268.0,square3,i,0.1614,2,V,8.0
V8,34.0,44.0,57.0,70.0,45.0,70.0,2338.0,square3,i,0.1153,2,V,8.0
V8,35.0,44.0,54.0,68.0,38.0,68.0,2406.0,square3,i,0.227,2,V,8.0
V8,36.0,45.0,56.0,64.0,40.0,64.0,2470.0,square3,i,0.1174,2,V,8.0
V8,37.0,47.0,57.0,66.0,37.0,66.0,2536.0,square3,i,0.0444,2,V,8.0
V8,38.0,49.0,50.0,66.0,37.0,66.0,2602.0,square3,i,0.0289,2,V,8.0
V8,39.0,51.0,56.0,61.0,39.0,56.0,2658.0,square2,j,0.2927,1,V,8.0
V8,40.0,47.0,59.0,66.0,41.0,66.0,2724.0,square3,i,0.0779,2,V,8.0
V8,41.0,42.0,56.0,69.0,42.0,42.0,2766.0,square4,r,0.2613,3,V,8.0
V8,42.0,47.0,57.0,72.0,35.0,72.0,2838.0,square3,i,0.0651,2,V,8.0
V8,43.0,47.0,57.0,63.0,44.0,63.0,2901.0,square3,i,0.0901,2,V,8.0
V8,44.0,45.0,58.0,67.0,42.0,67.0,2968.0,square3,i,0.1268,2,V,8.0
V8,45.0,44.0,56.0,66.0,43.0,66.0,3034.0,square3,i,0.0499,2,V,8.0
V8,46.0,46.0,53.0,70.0,37.0,46.0,3080.0,square1,f,0.0097,0,V,8.0
V8,47.0,54.0,53.0,71.0,41.0,71.0,3151.0,square3,i,0.2765,2,V,8.0
V8,48.0,49.0,53.0,69.0,37.0,69.0,3220.0,square3,i,0.0282,2,V,8.0
V8,49.0,39.0,57.0,65.0,47.0,65.0,3285.0,square3,i,0.0259,2,V,8.0
V8,50.0,48.0,55.0,65.0,41.0,65.0,3350.0,square3,i,0.0085,2,V,8.0
V8,51.0,45.0,61.0,68.0,43.0,68.0,3418.0,square3,i,0.0039,2,V,8.0
V8,52.0,53.0,52.0,68.0,37.0,68.0,3486.0,square3,i,0.0268,2,V,8.0
V8,53.0,47.0,55.0,66.0,46.0,66.0,3552.0,square3,i,0.3471,2,V,8.0
V8,54.0,49.0,53.0,61.0,39.0,61.0,3613.0,square3,i,0.0651,2,V,8.0
V8,55.0,53.0,70.0,55.0,72.0,55.0,3668.0,square3,i,0.2114,2,V,8.0
V8,56.0,57.0,63.0,48.0,73.0,73.0,3741.0,square4,r,0.2132,3,V,8.0
V8,57.0,53.0,71.0,45.0,80.0,80.0,3821.0,square4,r,0.1105,3,V,8.0
V8,58.0,57.0,69.0,52.0,73.0,73.0,3894.0,square4,r,0.0278,3,V,8.0
V8,59.0,58.0,67.0,54.0,73.0,73.0,3967.0,square4,r,0.0004,3,V,8.0
V8,60.0,55.0,66.0,47.0,76.0,76.0,4043.0,square4,r,0.3574,3,V,8.0
V8,61.0,56.0,65.0,54.0,72.0,72.0,4115.0,square4,r,0.5403,3,V,8.0
V8,62.0,56.0,65.0,49.0,75.0,75.0,4190.0,square4,r,0.0442,3,V,8.0
V8,63.0,61.0,65.0,44.0,78.0,78.0,4268.0,square4,r,0.0278,3,V,8.0
V8,64.0,54.0,66.0,48.0,75.0,75.0,4343.0,square4,r,0.031,3,V,8.0
V8,65.0,59.0,65.0,46.0,79.0,79.0,4422.0,square4,r,0.1278,3,V,8.0
V8,66.0,51.0,62.0,46.0,73.0,73.0,4495.0,square4,r,0.0032,3,V,8.0
V8,67.0,60.0,70.0,45.0,76.0,76.0,4571.0,square4,r,0.0947,3,V,8.0
V8,68.0,63.0,64.0,47.0,73.0,73.0,4644.0,square4,r,0.0005,3,V,8.0
V8,69.0,58.0,66.0,43.0,77.0,77.0,4721.0,square4,r,0.127,3,V,8.0
V8,70.0,59.0,65.0,49.0,73.0,73.0,4794.0,square4,r,0.117,3,V,8.0
V8,71.0,60.0,64.0,49.0,79.0,79.0,4873.0,square4,r,0.0993,3,V,8.0
V8,72.0,96.0,68.0,78.0,67.0,67.0,4940.0,square4,r,0.027,3,V,8.0
V8,73.0,96.0,68.0,79.0,64.0,68.0,5008.0,square2,j,0.0826,1,V,8.0
V8,74.0,92.0,67.0,81.0,62.0,67.0,5075.0,square2,j,0.1559,1,V,8.0
V8,75.0,96.0,72.0,83.0,62.0,72.0,5147.0,square2,j,0.1437,1,V,8.0
V8,76.0,94.0,70.0,77.0,57.0,70.0,5217.0,square2,j,0.1766,1,V,8.0
V8,77.0,91.0,68.0,81.0,59.0,68.0,5285.0,square2,j,0.0022,1,V,8.0
V8,78.0,90.0,73.0,80.0,63.0,90.0,5375.0,square1,f,0.3949,0,V,8.0
V8,79.0,90.0,73.0,83.0,61.0,90.0,5465.0,square1,f,0.0945,0,V,8.0
V8,80.0,95.0,75.0,81.0,66.0,95.0,5560.0,square1,f,0.2609,0,V,8.0
V8,81.0,92.0,72.0,81.0,57.0,92.0,5652.0,square1,f,0.0632,0,V,8.0
V8,82.0,91.0,71.0,80.0,61.0,91.0,5743.0,square1,f,0.0621,0,V,8.0
V8,83.0,90.0,66.0,83.0,62.0,90.0,5833.0,square1,f,0.0622,0,V,8.0
V8,84.0,93.0,67.0,87.0,65.0,93.0,5926.0,square1,f,0.0031,0,V,8.0
V8,85.0,85.0,70.0,80.0,62.0,85.0,6011.0,square1,f,0.2782,0,V,8.0
V8,86.0,84.0,72.0,85.0,62.0,84.0,6095.0,square1,f,0.0438,0,V,8.0
V8,87.0,91.0,68.0,82.0,65.0,91.0,6186.0,square1,f,0.161,0,V,8.0
V8,88.0,93.0,67.0,83.0,61.0,93.0,6279.0,square1,f,0.2109,0,V,8.0
V8,89.0,95.0,68.0,78.0,66.0,95.0,6374.0,square1,f,0.0238,0,V,8.0
V8,90.0,91.0,73.0,80.0,60.0,91.0,6465.0,square1,f,0.2146,0,V,8.0
V8,91.0,93.0,68.0,81.0,64.0,93.0,6558.0,square1,f,0.1946,0,V,8.0
V8,92.0,90.0,75.0,82.0,67.0,67.0,6625.0,square4,r,0.1306,3,V,8.0
V8,93.0,92.0,70.0,82.0,66.0,92.0,6717.0,square1,f,0.0294,0,V,8.0
V8,94.0,90.0,71.0,78.0,63.0,90.0,6807.0,square1,f,0.161,0,V,8.0
V8,95.0,88.0,65.0,78.0,63.0,88.0,6895.0,square1,f,0.1275,0,V,8.0
V8,96.0,89.0,72.0,85.0,62.0,89.0,6984.0,square1,f,0.0054,0,V,8.0
V8,97.0,92.0,72.0,77.0,67.0,92.0,7076.0,square1,f,0.2394,0,V,8.0
V8,98.0,86.0,63.0,82.0,62.0,86.0,7162.0,square1,f,0.0568,0,V,8.0
V8,99.0,90.0,66.0,75.0,61.0,90.0,7252.0,square1,f,0.6617,0,V,8.0
NS1,0.0,60.0,65.0,21.0,53.0,60.0,60.0,square1,r,1.0722,0,N,1.0
NS1,1.0,56.0,62.0,31.0,51.0,62.0,122.0,square2,i,0.0317,1,N,1.0
NS1,2.0,58.0,62.0,24.0,57.0,24.0,146.0,square3,f,0.044,2,N,1.0
NS1,3.0,56.0,58.0,33.0,58.0,58.0,204.0,square4,j,0.2805,3,N,1.0
NS1,4.0,60.0,58.0,32.0,58.0,60.0,264.0,square1,r,0.039,0,N,1.0
NS1,5.0,56.0,59.0,31.0,54.0,59.0,323.0,square2,i,0.2624,1,N,1.0
NS1,6.0,58.0,57.0,37.0,56.0,58.0,381.0,square1,r,0.0774,0,N,1.0
NS1,7.0,57.0,53.0,37.0,57.0,57.0,438.0,square1,r,0.0121,0,N,1.0
NS1,8.0,58.0,57.0,37.0,54.0,58.0,496.0,square1,r,0.1265,0,N,1.0
NS1,9.0,53.0,50.0,36.0,55.0,53.0,549.0,square1,r,0.2106,0,N,1.0
NS1,10.0,58.0,47.0,32.0,53.0,58.0,607.0,square1,r,0.2092,0,N,1.0
NS1,11.0,55.0,44.0,34.0,53.0,55.0,662.0,square1,r,0.2158,0,N,1.0
NS1,12.0,56.0,44.0,30.0,45.0,56.0,718.0,square1,r,0.1264,0,N,1.0
NS1,13.0,60.0,47.0,34.0,48.0,60.0,778.0,square1,r,0.1608,0,N,1.0
NS1,14.0,54.0,48.0,37.0,54.0,54.0,832.0,square1,r,0.1323,0,N,1.0
NS1,15.0,53.0,44.0,35.0,51.0,53.0,885.0,square1,r,0.1667,0,N,1.0
NS1,16.0,50.0,50.0,35.0,43.0,50.0,935.0,square1,r,0.059,0,N,1.0
NS1,17.0,53.0,46.0,35.0,44.0,53.0,988.0,square1,r,0.1434,0,N,1.0
NS1,18.0,54.0,51.0,42.0,48.0,54.0,1042.0,square1,r,0.1989,0,N,1.0
NS1,19.0,62.0,51.0,44.0,53.0,62.0,1104.0,square1,r,0.1094,0,N,1.0
NS1,20.0,63.0,47.0,42.0,47.0,63.0,1167.0,square1,r,0.0427,0,N,1.0
NS1,21.0,67.0,51.0,41.0,46.0,67.0,1234.0,square1,r,0.2974,0,N,1.0
NS1,22.0,75.0,44.0,45.0,43.0,75.0,1309.0,square1,r,0.0053,0,N,1.0
NS1,23.0,64.0,42.0,41.0,47.0,64.0,1373.0,square1,r,0.058,0,N,1.0
NS1,24.0,68.0,41.0,39.0,49.0,68.0,1441.0,square1,r,0.0047,0,N,1.0
NS1,25.0,71.0,43.0,33.0,42.0,71.0,1512.0,square1,r,0.0635,0,N,1.0
NS1,26.0,70.0,41.0,26.0,45.0,70.0,1582.0,square1,r,0.0784,0,N,1.0
NS1,27.0,72.0,42.0,34.0,48.0,34.0,1616.0,square3,f,0.0288,2,N,1.0
NS1,28.0,71.0,41.0,33.0,45.0,71.0,1687.0,square1,r,0.0049,0,N,1.0
NS1,29.0,77.0,42.0,31.0,48.0,48.0,1735.0,square4,j,0.0135,3,N,1.0
NS1,30.0,73.0,41.0,33.0,51.0,73.0,1808.0,square1,r,0.0062,0,N,1.0
NS1,31.0,71.0,44.0,35.0,48.0,44.0,1852.0,square2,i,0.3765,1,N,1.0
NS1,32.0,81.0,47.0,33.0,50.0,81.0,1933.0,square1,r,0.459,0,N,1.0
NS1,33.0,75.0,50.0,27.0,42.0,75.0,2008.0,square1,r,0.2109,0,N,1.0
NS1,34.0,71.0,49.0,27.0,44.0,71.0,2079.0,square1,r,0.2116,0,N,1.0
NS1,35.0,69.0,47.0,23.0,47.0,69.0,2148.0,square1,r,0.0968,0,N,1.0
NS1,36.0,71.0,50.0,32.0,45.0,71.0,2219.0,square1,r,0.1143,0,N,1.0
NS1,37.0,66.0,48.0,33.0,52.0,66.0,2285.0,square1,r,0.1611,0,N,1.0
NS1,38.0,64.0,50.0,34.0,51.0,64.0,2349.0,square1,r,0.1099,0,N,1.0
NS1,39.0,65.0,49.0,25.0,47.0,65.0,2414.0,square1,r,0.092,0,N,1.0
NS1,40.0,66.0,46.0,23.0,50.0,66.0,2480.0,square1,r,0.2617,0,N,1.0
NS1,41.0,68.0,45.0,22.0,50.0,68.0,2548.0,square1,r,0.013,0,N,1.0
NS1,42.0,74.0,41.0,28.0,50.0,74.0,2622.0,square1,r,0.0561,0,N,1.0
NS1,43.0,69.0,42.0,27.0,52.0,69.0,2691.0,square1,r,0.1121,0,N,1.0
NS1,44.0,71.0,38.0,32.0,49.0,71.0,2762.0,square1,r,0.0438,0,N,1.0
NS1,45.0,68.0,38.0,30.0,55.0,68.0,2830.0,square1,r,0.276,0,N,1.0
NS1,46.0,66.0,39.0,30.0,56.0,66.0,2896.0,square1,r,0.0234,0,N,1.0
NS1,47.0,62.0,35.0,31.0,50.0,62.0,2958.0,square1,r,0.1977,0,N,1.0
NS1,48.0,68.0,31.0,32.0,49.0,68.0,3026.0,square1,r,0.0603,0,N,1.0
NS1,49.0,66.0,33.0,35.0,46.0,66.0,3092.0,square1,r,0.216,0,N,1.0
NS1,50.0,64.0,30.0,32.0,46.0,64.0,3156.0,square1,r,0.4643,0,N,1.0
NS1,51.0,66.0,35.0,39.0,43.0,66.0,3222.0,square1,r,0.1214,0,N,1.0
NS1,52.0,67.0,33.0,37.0,49.0,67.0,3289.0,square1,r,0.1931,0,N,1.0
NS1,53.0,70.0,32.0,35.0,47.0,70.0,3359.0,square1,r,0.0937,0,N,1.0
NS1,54.0,62.0,40.0,28.0,43.0,62.0,3421.0,square1,r,0.0954,0,N,1.0
NS1,55.0,66.0,39.0,26.0,43.0,66.0,3487.0,square1,r,0.284,0,N,1.0
NS1,56.0,64.0,38.0,26.0,44.0,64.0,3551.0,square1,r,0.1975,0,N,1.0
NS1,57.0,63.0,41.0,24.0,48.0,63.0,3614.0,square1,r,0.2763,0,N,1.0
NS1,58.0,67.0,49.0,24.0,48.0,67.0,3681.0,square1,r,1.7782,0,N,1.0
NS1,59.0,57.0,51.0,27.0,43.0,57.0,3738.0,square1,r,0.8559,0,N,1.0
NS1,60.0,56.0,51.0,31.0,42.0,56.0,3794.0,square1,r,0.0965,0,N,1.0
NS1,61.0,55.0,50.0,25.0,49.0,55.0,3849.0,square1,r,0.107,0,N,1.0
NS1,62.0,55.0,51.0,27.0,50.0,51.0,3900.0,square2,i,0.2497,1,N,1.0
NS1,63.0,53.0,51.0,27.0,50.0,53.0,3953.0,square1,r,0.044,0,N,1.0
NS1,64.0,53.0,56.0,27.0,50.0,50.0,4003.0,square4,j,0.2275,3,N,1.0
NS1,65.0,49.0,56.0,26.0,49.0,49.0,4052.0,square1,r,0.0787,0,N,1.0
NS1,66.0,47.0,61.0,29.0,50.0,29.0,4081.0,square3,f,0.1619,2,N,1.0
NS1,67.0,47.0,56.0,27.0,50.0,56.0,4137.0,square2,i,0.2644,1,N,1.0
NS1,68.0,47.0,64.0,29.0,48.0,48.0,4185.0,square4,j,0.2598,3,N,1.0
NS1,69.0,54.0,67.0,24.0,53.0,67.0,4252.0,square2,i,0.3769,1,N,1.0
NS1,70.0,44.0,70.0,21.0,48.0,70.0,4322.0,square2,i,0.0337,1,N,1.0
NS1,71.0,45.0,67.0,26.0,52.0,67.0,4389.0,square2,i,0.1624,1,N,1.0
NS1,72.0,44.0,64.0,22.0,49.0,64.0,4453.0,square2,i,0.1106,1,N,1.0
NS1,73.0,43.0,60.0,23.0,51.0,60.0,4513.0,square2,i,0.2567,1,N,1.0
NS1,74.0,47.0,59.0,26.0,57.0,59.0,4572.0,square2,i,0.1276,1,N,1.0
NS1,75.0,44.0,56.0,27.0,51.0,56.0,4628.0,square2,i,0.1232,1,N,1.0
NS1,76.0,34.0,55.0,21.0,52.0,52.0,4680.0,square4,j,0.4442,3,N,1.0
NS1,77.0,39.0,64.0,17.0,55.0,55.0,4735.0,square4,j,0.0626,3,N,1.0
NS1,78.0,38.0,64.0,25.0,52.0,52.0,4787.0,square4,j,0.0766,3,N,1.0
NS1,79.0,40.0,65.0,24.0,54.0,54.0,4841.0,square4,j,0.2106,3,N,1.0
NS1,80.0,44.0,66.0,21.0,53.0,53.0,4894.0,square4,j,0.0004,3,N,1.0
NS1,81.0,50.0,60.0,27.0,54.0,60.0,4954.0,square2,i,0.3278,1,N,1.0
NS1,82.0,43.0,62.0,20.0,57.0,62.0,5016.0,square2,i,0.0003,1,N,1.0
NS1,83.0,44.0,55.0,24.0,59.0,55.0,5071.0,square2,i,0.1452,1,N,1.0
NS1,84.0,41.0,51.0,28.0,61.0,41.0,5112.0,square1,r,0.0066,0,N,1.0
NS1,85.0,49.0,49.0,29.0,70.0,49.0,5161.0,square2,i,0.4125,1,N,1.0
NS1,86.0,47.0,44.0,26.0,66.0,44.0,5205.0,square2,i,0.0828,1,N,1.0
NS1,87.0,48.0,48.0,23.0,68.0,68.0,5273.0,square4,j,0.1906,3,N,1.0
NS1,88.0,46.0,51.0,20.0,70.0,70.0,5343.0,square4,j,0.0433,3,N,1.0
NS1,89.0,45.0,50.0,17.0,75.0,75.0,5418.0,square4,j,0.1608,3,N,1.0
NS1,90.0,50.0,48.0,18.0,74.0,74.0,5492.0,square4,j,0.0556,3,N,1.0
NS1,91.0,46.0,53.0,17.0,67.0,67.0,5559.0,square4,j,0.1953,3,N,1.0
NS1,92.0,38.0,56.0,22.0,65.0,65.0,5624.0,square4,j,0.1484,3,N,1.0
NS1,93.0,38.0,53.0,22.0,66.0,66.0,5690.0,square4,j,0.2793,3,N,1.0
NS1,94.0,42.0,49.0,24.0,72.0,72.0,5762.0,square4,j,0.0148,3,N,1.0
NS1,95.0,44.0,48.0,25.0,70.0,70.0,5832.0,square4,j,0.1778,3,N,1.0
NS1,96.0,35.0,50.0,21.0,67.0,67.0,5899.0,square4,j,0.0884,3,N,1.0
NS1,97.0,43.0,55.0,16.0,72.0,72.0,5971.0,square4,j,0.2813,3,N,1.0
NS1,98.0,46.0,50.0,21.0,73.0,73.0,6044.0,square4,j,0.0149,3,N,1.0
NS1,99.0,43.0,46.0,27.0,71.0,71.0,6115.0,square4,j,0.2103,3,N,1.0
NS12,0.0,80.0,24.0,40.0,79.0,40.0,40.0,square3,r,0.7861,2,N,12.0
NS12,1.0,78.0,28.0,44.0,78.0,78.0,118.0,square4,f,0.0443,3,N,12.0
NS12,2.0,77.0,28.0,37.0,82.0,77.0,195.0,square1,i,0.0774,0,N,12.0
NS12,3.0,76.0,33.0,39.0,82.0,33.0,228.0,square2,j,0.0026,1,N,12.0
NS12,4.0,79.0,37.0,34.0,78.0,78.0,306.0,square4,f,0.057,3,N,12.0
NS12,5.0,83.0,33.0,28.0,81.0,81.0,387.0,square4,f,0.0606,3,N,12.0
NS12,6.0,77.0,39.0,33.0,80.0,80.0,467.0,square4,f,0.111,3,N,12.0
NS12,7.0,77.0,40.0,25.0,85.0,77.0,544.0,square1,i,0.2218,0,N,12.0
NS12,8.0,77.0,40.0,29.0,87.0,77.0,621.0,square1,i,0.05,0,N,12.0
NS12,9.0,70.0,42.0,29.0,88.0,88.0,709.0,square4,f,0.212,3,N,12.0
NS12,10.0,65.0,47.0,31.0,86.0,86.0,795.0,square4,f,0.0487,3,N,12.0
NS12,11.0,67.0,46.0,26.0,84.0,84.0,879.0,square4,f,0.0427,3,N,12.0
NS12,12.0,67.0,36.0,26.0,84.0,84.0,963.0,square4,f,0.2616,3,N,12.0
NS12,13.0,69.0,33.0,23.0,82.0,82.0,1045.0,square4,f,0.2625,3,N,12.0
NS12,14.0,66.0,35.0,20.0,81.0,81.0,1126.0,square4,f,0.361,3,N,12.0
NS12,15.0,66.0,30.0,23.0,78.0,78.0,1204.0,square4,f,0.2437,3,N,12.0
NS12,16.0,69.0,28.0,17.0,74.0,74.0,1278.0,square4,f,0.0723,3,N,12.0
NS12,17.0,66.0,32.0,20.0,78.0,66.0,1344.0,square1,i,0.1473,0,N,12.0
NS12,18.0,60.0,33.0,26.0,76.0,76.0,1420.0,square4,f,0.2794,3,N,12.0
NS12,19.0,63.0,37.0,23.0,76.0,23.0,1443.0,square3,r,0.0665,2,N,12.0
NS12,20.0,59.0,36.0,24.0,78.0,78.0,1521.0,square4,f,0.2822,3,N,12.0
NS12,21.0,59.0,35.0,25.0,79.0,35.0,1556.0,square2,j,0.0822,1,N,12.0
NS12,22.0,61.0,37.0,26.0,88.0,88.0,1644.0,square4,f,0.0004,3,N,12.0
NS12,23.0,61.0,37.0,25.0,83.0,83.0,1727.0,square4,f,0.5111,3,N,12.0
NS12,24.0,61.0,39.0,26.0,85.0,85.0,1812.0,square4,f,0.3567,3,N,12.0
NS12,25.0,63.0,30.0,29.0,77.0,77.0,1889.0,square4,f,0.2646,3,N,12.0
NS12,26.0,58.0,39.0,29.0,83.0,83.0,1972.0,square4,f,0.8148,3,N,12.0
NS12,27.0,60.0,34.0,32.0,85.0,85.0,2057.0,square4,f,0.2567,3,N,12.0
NS12,28.0,63.0,32.0,35.0,77.0,77.0,2134.0,square4,f,0.1924,3,N,12.0
NS12,29.0,61.0,35.0,23.0,79.0,79.0,2213.0,square4,f,0.2592,3,N,12.0
NS12,30.0,57.0,27.0,30.0,69.0,69.0,2282.0,square4,f,0.2103,3,N,12.0
NS12,31.0,64.0,29.0,26.0,69.0,69.0,2351.0,square4,f,0.0655,3,N,12.0
NS12,32.0,65.0,29.0,33.0,69.0,65.0,2416.0,square1,i,0.1919,0,N,12.0
NS12,33.0,68.0,29.0,33.0,73.0,73.0,2489.0,square4,f,0.0462,3,N,12.0
NS12,34.0,69.0,29.0,29.0,67.0,67.0,2556.0,square4,f,0.3434,3,N,12.0
NS12,35.0,66.0,32.0,30.0,61.0,61.0,2617.0,square4,f,0.1442,3,N,12.0
NS12,36.0,64.0,27.0,26.0,58.0,64.0,2681.0,square1,i,0.0437,0,N,12.0
NS12,37.0,65.0,32.0,27.0,67.0,65.0,2746.0,square1,i,0.1104,0,N,12.0
NS12,38.0,63.0,32.0,30.0,64.0,63.0,2809.0,square1,i,0.1821,0,N,12.0
NS12,39.0,65.0,30.0,30.0,70.0,70.0,2879.0,square4,f,0.3943,3,N,12.0
NS12,40.0,71.0,37.0,32.0,69.0,69.0,2948.0,square4,f,0.2056,3,N,12.0
NS12,41.0,66.0,45.0,37.0,69.0,69.0,3017.0,square4,f,0.1318,3,N,12.0
NS12,42.0,75.0,42.0,35.0,65.0,65.0,3082.0,square4,f,0.0278,3,N,12.0
NS12,43.0,82.0,39.0,35.0,57.0,57.0,3139.0,square4,f,0.0221,3,N,12.0
NS12,44.0,81.0,34.0,34.0,61.0,81.0,3220.0,square1,i,0.1286,0,N,12.0
NS12,45.0,74.0,33.0,36.0,59.0,74.0,3294.0,square1,i,0.1105,0,N,12.0
NS12,46.0,77.0,32.0,40.0,57.0,77.0,3371.0,square1,i,0.4091,0,N,12.0
NS12,47.0,79.0,32.0,39.0,60.0,79.0,3450.0,square1,i,0.1776,0,N,12.0
NS12,48.0,80.0,28.0,34.0,62.0,80.0,3530.0,square1,i,0.2789,0,N,12.0
NS12,49.0,76.0,23.0,37.0,64.0,76.0,3606.0,square1,i,0.28,0,N,12.0
NS12,50.0,75.0,25.0,37.0,65.0,75.0,3681.0,square1,i,0.1108,0,N,12.0
NS12,51.0,74.0,25.0,39.0,70.0,74.0,3755.0,square1,i,0.244,0,N,12.0
NS12,52.0,79.0,26.0,40.0,73.0,79.0,3834.0,square1,i,0.1951,0,N,12.0
NS12,53.0,75.0,25.0,33.0,69.0,75.0,3909.0,square1,i,0.2607,0,N,12.0
NS12,54.0,79.0,25.0,38.0,68.0,79.0,3988.0,square1,i,0.216,0,N,12.0
NS12,55.0,81.0,22.0,34.0,68.0,81.0,4069.0,square1,i,0.1239,0,N,12.0
NS12,56.0,72.0,29.0,39.0,69.0,72.0,4141.0,square1,i,0.1573,0,N,12.0
NS12,57.0,72.0,28.0,38.0,73.0,72.0,4213.0,square1,i,0.2143,0,N,12.0
NS12,58.0,69.0,25.0,32.0,71.0,69.0,4282.0,square1,i,0.0059,0,N,12.0
NS12,59.0,75.0,30.0,33.0,69.0,75.0,4357.0,square1,i,0.1112,0,N,12.0
NS12,60.0,68.0,28.0,39.0,68.0,68.0,4425.0,square4,f,0.061,3,N,12.0
NS12,61.0,69.0,32.0,37.0,60.0,69.0,4494.0,square1,i,0.0076,0,N,12.0
NS12,62.0,63.0,37.0,39.0,55.0,63.0,4557.0,square1,i,0.1578,0,N,12.0
NS12,63.0,63.0,38.0,43.0,54.0,63.0,4620.0,square1,i,0.0164,0,N,12.0
NS12,64.0,60.0,30.0,35.0,55.0,55.0,4675.0,square4,f,0.2452,3,N,12.0
NS12,65.0,60.0,37.0,34.0,55.0,60.0,4735.0,square1,i,0.2284,0,N,12.0
NS12,66.0,61.0,40.0,35.0,51.0,61.0,4796.0,square1,i,0.4128,0,N,12.0
NS12,67.0,65.0,37.0,35.0,53.0,65.0,4861.0,square1,i,0.2298,0,N,12.0
NS12,68.0,62.0,33.0,38.0,50.0,62.0,4923.0,square1,i,0.294,0,N,12.0
NS12,69.0,56.0,41.0,29.0,54.0,56.0,4979.0,square1,i,0.0429,0,N,12.0
NS12,70.0,56.0,39.0,30.0,57.0,57.0,5036.0,square4,f,0.0807,3,N,12.0
NS12,71.0,61.0,40.0,33.0,64.0,64.0,5100.0,square4,f,0.1653,3,N,12.0
NS12,72.0,51.0,42.0,35.0,67.0,67.0,5167.0,square4,f,0.2636,3,N,12.0
NS12,73.0,56.0,39.0,39.0,67.0,56.0,5223.0,square1,i,0.1269,0,N,12.0
NS12,74.0,50.0,38.0,40.0,63.0,50.0,5273.0,square1,i,0.1821,0,N,12.0
NS12,75.0,52.0,37.0,41.0,67.0,67.0,5340.0,square4,f,0.1291,3,N,12.0
NS12,76.0,47.0,40.0,46.0,67.0,67.0,5407.0,square4,f,0.0604,3,N,12.0
NS12,77.0,45.0,35.0,47.0,67.0,67.0,5474.0,square4,f,0.182,3,N,12.0
NS12,78.0,44.0,38.0,52.0,66.0,66.0,5540.0,square4,f,0.0766,3,N,12.0
NS12,79.0,41.0,38.0,52.0,64.0,64.0,5604.0,square4,f,0.0765,3,N,12.0
NS12,80.0,36.0,41.0,57.0,58.0,36.0,5640.0,square1,i,0.1621,0,N,12.0
NS12,81.0,36.0,42.0,66.0,63.0,42.0,5682.0,square2,j,0.2271,1,N,12.0
NS12,82.0,35.0,44.0,65.0,62.0,65.0,5747.0,square3,r,0.134,2,N,12.0
NS12,83.0,37.0,42.0,70.0,65.0,70.0,5817.0,square3,r,0.2721,2,N,12.0
NS12,84.0,35.0,39.0,72.0,58.0,72.0,5889.0,square3,r,0.2095,2,N,12.0
NS12,85.0,30.0,40.0,62.0,55.0,62.0,5951.0,square3,r,0.3272,2,N,12.0
NS12,86.0,36.0,40.0,65.0,59.0,65.0,6016.0,square3,r,0.1781,2,N,12.0
NS12,87.0,31.0,41.0,67.0,57.0,57.0,6073.0,square4,f,0.1407,3,N,12.0
NS12,88.0,30.0,50.0,67.0,52.0,30.0,6103.0,square1,i,0.2616,0,N,12.0
NS12,89.0,28.0,41.0,69.0,54.0,69.0,6172.0,square3,r,0.0637,2,N,12.0
NS12,90.0,29.0,41.0,61.0,57.0,61.0,6233.0,square3,r,0.0936,2,N,12.0
NS12,91.0,30.0,36.0,59.0,54.0,59.0,6292.0,square3,r,0.1994,2,N,12.0
NS12,92.0,28.0,29.0,60.0,54.0,60.0,6352.0,square3,r,0.0441,2,N,12.0
NS12,93.0,30.0,35.0,62.0,52.0,62.0,6414.0,square3,r,0.2638,2,N,12.0
NS12,94.0,30.0,36.0,60.0,56.0,56.0,6470.0,square4,f,0.0767,3,N,12.0
NS12,95.0,29.0,33.0,63.0,60.0,63.0,6533.0,square3,r,0.2586,2,N,12.0
NS12,96.0,29.0,30.0,59.0,59.0,59.0,6592.0,square3,r,0.3058,2,N,12.0
NS12,97.0,31.0,35.0,61.0,61.0,61.0,6653.0,square3,r,0.6105,2,N,12.0
NS12,98.0,31.0,40.0,67.0,58.0,67.0,6720.0,square3,r,0.328,2,N,12.0
NS12,99.0,33.0,37.0,65.0,67.0,65.0,6785.0,square3,r,0.2107,2,N,12.0
NS5,0.0,26.0,19.0,54.0,39.0,26.0,26.0,square1,j,0.491,0,N,5.0
NS5,1.0,21.0,17.0,51.0,42.0,17.0,43.0,square2,r,0.394,1,N,5.0
NS5,2.0,19.0,17.0,52.0,42.0,42.0,85.0,square4,i,0.2442,3,N,5.0
NS5,3.0,21.0,16.0,55.0,38.0,55.0,140.0,square3,f,0.547,2,N,5.0
NS5,4.0,14.0,26.0,52.0,44.0,52.0,192.0,square3,f,0.4942,2,N,5.0
NS5,5.0,18.0,25.0,47.0,42.0,18.0,210.0,square1,j,0.1977,0,N,5.0
NS5,6.0,23.0,21.0,54.0,38.0,21.0,231.0,square2,r,0.4606,1,N,5.0
NS5,7.0,18.0,27.0,56.0,39.0,39.0,270.0,square4,i,0.2447,3,N,5.0
NS5,8.0,18.0,28.0,57.0,40.0,57.0,327.0,square3,f,0.111,2,N,5.0
NS5,9.0,15.0,29.0,53.0,38.0,53.0,380.0,square3,f,0.1273,2,N,5.0
NS5,10.0,13.0,26.0,56.0,41.0,56.0,436.0,square3,f,0.0022,2,N,5.0
NS5,11.0,11.0,25.0,58.0,41.0,58.0,494.0,square3,f,0.5277,2,N,5.0
NS5,12.0,9.0,22.0,53.0,40.0,53.0,547.0,square3,f,0.0481,2,N,5.0
NS5,13.0,11.0,21.0,55.0,39.0,55.0,602.0,square3,f,0.1437,2,N,5.0
NS5,14.0,12.0,17.0,49.0,38.0,49.0,651.0,square3,f,0.1065,2,N,5.0
NS5,15.0,18.0,19.0,52.0,37.0,52.0,703.0,square3,f,0.0649,2,N,5.0
NS5,16.0,18.0,20.0,49.0,40.0,49.0,752.0,square3,f,0.1275,2,N,5.0
NS5,17.0,16.0,16.0,50.0,41.0,16.0,768.0,square1,j,0.511,0,N,5.0
NS5,18.0,16.0,18.0,51.0,43.0,43.0,811.0,square4,i,0.0993,3,N,5.0
NS5,19.0,14.0,20.0,44.0,45.0,20.0,831.0,square2,r,0.2482,1,N,5.0
NS5,20.0,19.0,21.0,42.0,48.0,42.0,873.0,square3,f,0.2079,2,N,5.0
NS5,21.0,19.0,22.0,43.0,47.0,43.0,916.0,square3,f,0.1099,2,N,5.0
NS5,22.0,17.0,15.0,43.0,47.0,47.0,963.0,square4,i,0.0005,3,N,5.0
NS5,23.0,16.0,28.0,37.0,47.0,47.0,1010.0,square4,i,0.1459,3,N,5.0
NS5,24.0,20.0,21.0,38.0,49.0,49.0,1059.0,square4,i,0.0972,3,N,5.0
NS5,25.0,22.0,17.0,34.0,46.0,46.0,1105.0,square4,i,0.0264,3,N,5.0
NS5,26.0,30.0,16.0,32.0,50.0,50.0,1155.0,square4,i,0.1146,3,N,5.0
NS5,27.0,21.0,20.0,35.0,42.0,42.0,1197.0,square4,i,0.1975,3,N,5.0
NS5,28.0,20.0,23.0,39.0,42.0,23.0,1220.0,square2,r,0.2798,1,N,5.0
NS5,29.0,21.0,18.0,39.0,41.0,21.0,1241.0,square1,j,0.0625,0,N,5.0
NS5,30.0,20.0,11.0,41.0,44.0,41.0,1282.0,square3,f,0.0769,2,N,5.0
NS5,31.0,20.0,9.0,36.0,43.0,43.0,1325.0,square4,i,0.094,3,N,5.0
NS5,32.0,21.0,13.0,35.0,46.0,46.0,1371.0,square4,i,0.044,3,N,5.0
NS5,33.0,16.0,22.0,32.0,44.0,44.0,1415.0,square4,i,0.1139,3,N,5.0
NS5,34.0,20.0,20.0,33.0,37.0,37.0,1452.0,square4,i,0.1438,3,N,5.0
NS5,35.0,19.0,27.0,34.0,40.0,34.0,1486.0,square3,f,0.1292,2,N,5.0
NS5,36.0,20.0,23.0,31.0,37.0,20.0,1506.0,square1,j,0.0604,0,N,5.0
NS5,37.0,15.0,28.0,41.0,40.0,28.0,1534.0,square2,r,0.0296,1,N,5.0
NS5,38.0,18.0,21.0,45.0,37.0,37.0,1571.0,square4,i,0.3463,3,N,5.0
NS5,39.0,23.0,22.0,40.0,34.0,34.0,1605.0,square4,i,0.1603,3,N,5.0
NS5,40.0,22.0,25.0,44.0,26.0,26.0,1631.0,square4,i,0.0961,3,N,5.0
NS5,41.0,28.0,25.0,39.0,29.0,39.0,1670.0,square3,f,0.345,2,N,5.0
NS5,42.0,27.0,27.0,42.0,35.0,42.0,1712.0,square3,f,0.1959,2,N,5.0
NS5,43.0,25.0,25.0,49.0,38.0,49.0,1761.0,square3,f,0.1275,2,N,5.0
NS5,44.0,24.0,26.0,42.0,30.0,42.0,1803.0,square3,f,0.0118,2,N,5.0
NS5,45.0,33.0,22.0,43.0,37.0,43.0,1846.0,square3,f,0.0785,2,N,5.0
NS5,46.0,32.0,24.0,50.0,38.0,50.0,1896.0,square3,f,0.179,2,N,5.0
NS5,47.0,39.0,25.0,52.0,29.0,52.0,1948.0,square3,f,0.0637,2,N,5.0
NS5,48.0,42.0,22.0,46.0,33.0,46.0,1994.0,square3,f,0.1293,2,N,5.0
NS5,49.0,40.0,26.0,40.0,33.0,40.0,2034.0,square3,f,0.1312,2,N,5.0
NS5,50.0,34.0,19.0,47.0,33.0,33.0,2067.0,square4,i,0.2284,3,N,5.0
NS5,51.0,29.0,25.0,45.0,29.0,29.0,2096.0,square1,j,0.1265,0,N,5.0
NS5,52.0,29.0,24.0,48.0,35.0,24.0,2120.0,square2,r,0.0582,1,N,5.0
NS5,53.0,24.0,25.0,45.0,40.0,45.0,2165.0,square3,f,0.446,2,N,5.0
NS5,54.0,26.0,25.0,51.0,36.0,51.0,2216.0,square3,f,0.2294,2,N,5.0
NS5,55.0,25.0,28.0,56.0,34.0,56.0,2272.0,square3,f,0.128,2,N,5.0
NS5,56.0,23.0,27.0,54.0,36.0,54.0,2326.0,square3,f,0.01,2,N,5.0
NS5,57.0,19.0,25.0,51.0,31.0,51.0,2377.0,square3,f,0.0559,2,N,5.0
NS5,58.0,20.0,30.0,53.0,29.0,53.0,2430.0,square3,f,0.0127,2,N,5.0
NS5,59.0,17.0,30.0,52.0,28.0,52.0,2482.0,square3,f,0.0475,2,N,5.0
NS5,60.0,15.0,30.0,55.0,30.0,55.0,2537.0,square3,f,0.0676,2,N,5.0
NS5,61.0,22.0,29.0,54.0,30.0,54.0,2591.0,square3,f,0.079,2,N,5.0
NS5,62.0,18.0,31.0,55.0,32.0,55.0,2646.0,square3,f,0.6135,2,N,5.0
NS5,63.0,19.0,31.0,51.0,37.0,51.0,2697.0,square3,f,0.16,2,N,5.0
NS5,64.0,20.0,30.0,45.0,35.0,45.0,2742.0,square3,f,0.1606,2,N,5.0
NS5,65.0,24.0,21.0,55.0,38.0,55.0,2797.0,square3,f,0.2947,2,N,5.0
NS5,66.0,22.0,29.0,58.0,36.0,58.0,2855.0,square3,f,0.1613,2,N,5.0
NS5,67.0,22.0,26.0,51.0,36.0,51.0,2906.0,square3,f,0.1902,2,N,5.0
NS5,68.0,20.0,28.0,52.0,36.0,52.0,2958.0,square3,f,0.1616,2,N,5.0
NS5,69.0,18.0,27.0,52.0,40.0,52.0,3010.0,square3,f,0.1959,2,N,5.0
NS5,70.0,22.0,34.0,55.0,39.0,55.0,3065.0,square3,f,0.1791,2,N,5.0
NS5,71.0,27.0,37.0,59.0,41.0,59.0,3124.0,square3,f,0.1432,2,N,5.0
NS5,72.0,27.0,37.0,57.0,40.0,57.0,3181.0,square3,f,0.061,2,N,5.0
NS5,73.0,35.0,36.0,55.0,38.0,55.0,3236.0,square3,f,0.0926,2,N,5.0
NS5,74.0,27.0,36.0,52.0,36.0,52.0,3288.0,square3,f,0.1441,2,N,5.0
NS5,75.0,31.0,40.0,53.0,38.0,53.0,3341.0,square3,f,0.008,2,N,5.0
NS5,76.0,33.0,41.0,59.0,35.0,59.0,3400.0,square3,f,0.3976,2,N,5.0
NS5,77.0,33.0,42.0,56.0,38.0,56.0,3456.0,square3,f,0.345,2,N,5.0
NS5,78.0,30.0,42.0,53.0,37.0,53.0,3509.0,square3,f,0.0432,2,N,5.0
NS5,79.0,27.0,49.0,51.0,44.0,51.0,3560.0,square3,f,0.1305,2,N,5.0
NS5,80.0,31.0,49.0,45.0,44.0,45.0,3605.0,square3,f,0.0785,2,N,5.0
NS5,81.0,33.0,51.0,48.0,43.0,43.0,3648.0,square4,i,0.0442,3,N,5.0
NS5,82.0,31.0,54.0,41.0,43.0,54.0,3702.0,square2,r,0.0448,1,N,5.0
NS5,83.0,25.0,57.0,42.0,40.0,57.0,3759.0,square2,r,0.0234,1,N,5.0
NS5,84.0,36.0,57.0,45.0,38.0,57.0,3816.0,square2,r,0.1438,1,N,5.0
NS5,85.0,36.0,62.0,44.0,42.0,62.0,3878.0,square2,r,0.1242,1,N,5.0
NS5,86.0,33.0,55.0,48.0,43.0,55.0,3933.0,square2,r,0.0813,1,N,5.0
NS5,87.0,37.0,53.0,44.0,46.0,53.0,3986.0,square2,r,0.0387,1,N,5.0
NS5,88.0,36.0,54.0,41.0,48.0,54.0,4040.0,square2,r,0.1066,1,N,5.0
NS5,89.0,39.0,62.0,47.0,47.0,62.0,4102.0,square2,r,0.1309,1,N,5.0
NS5,90.0,37.0,62.0,51.0,48.0,62.0,4164.0,square2,r,0.2282,1,N,5.0
NS5,91.0,40.0,64.0,48.0,53.0,64.0,4228.0,square2,r,0.0935,1,N,5.0
NS5,92.0,42.0,64.0,51.0,55.0,64.0,4292.0,square2,r,0.1304,1,N,5.0
NS5,93.0,39.0,63.0,51.0,53.0,63.0,4355.0,square2,r,0.0791,1,N,5.0
NS5,94.0,41.0,60.0,50.0,58.0,60.0,4415.0,square2,r,0.0153,1,N,5.0
NS5,95.0,36.0,55.0,53.0,52.0,55.0,4470.0,square2,r,0.1612,1,N,5.0
NS5,96.0,36.0,56.0,55.0,56.0,56.0,4526.0,square2,r,0.0273,1,N,5.0
NS5,97.0,28.0,52.0,57.0,53.0,52.0,4578.0,square2,r,0.0004,1,N,5.0
NS5,98.0,29.0,53.0,53.0,43.0,53.0,4631.0,square2,r,0.0958,1,N,5.0
NS5,99.0,25.0,55.0,53.0,46.0,55.0,4686.0,square2,r,0.0006,1,N,5.0
