block,Trial,square1,square2,square3,square4,currPoints,totalPoints,square,choiceKey.keys,choiceKey.rt,armNum,blockType,blockNum
prac,0.0,100.0,0.0,0.0,0.0,0,0.0,square2,,,1,p,0.0
prac,1.0,100.0,0.0,0.0,0.0,100,100.0,square1,,,0,p,0.0
prac,2.0,100.0,0.0,0.0,0.0,0,100.0,square4,,,3,p,0.0
prac,3.0,100.0,0.0,0.0,0.0,0,100.0,square3,,,2,p,0.0
prac,4.0,100.0,0.0,0.0,0.0,100,200.0,square1,,,0,p,0.0
prac,5.0,100.0,0.0,0.0,0.0,100,300.0,square1,,,0,p,0.0
prac,6.0,100.0,0.0,0.0,0.0,100,400.0,square1,,,0,p,0.0
prac,7.0,100.0,0.0,0.0,0.0,100,500.0,square1,,,0,p,0.0
prac,8.0,100.0,0.0,0.0,0.0,0,500.0,square2,,,1,p,0.0
prac,9.0,100.0,0.0,0.0,0.0,100,600.0,square1,,,0,p,0.0
V12,0.0,47.0,30.0,38.0,55.0,55,55.0,square4,r,1.45,3,V,12.0
V12,1.0,46.0,33.0,39.0,57.0,46,101.0,square1,f,0.466,0,V,12.0
V12,2.0,51.0,29.0,42.0,52.0,42,143.0,square3,j,1.01,2,V,12.0
V12,3.0,52.0,30.0,38.0,62.0,30,173.0,square2,i,0.333,1,V,12.0
V12,4.0,48.0,30.0,39.0,62.0,62,235.0,square4,r,0.315,3,V,12.0
V12,5.0,55.0,34.0,43.0,61.0,61,296.0,square4,r,0.277,3,V,12.0
V12,6.0,45.0,35.0,42.0,56.0,56,352.0,square4,r,0.158,3,V,12.0
V12,7.0,48.0,29.0,35.0,57.0,57,409.0,square4,r,0.283,3,V,12.0
V12,8.0,46.0,33.0,38.0,59.0,59,468.0,square4,r,0.329,3,V,12.0
V12,9.0,44.0,31.0,42.0,56.0,56,524.0,square4,r,0.424,3,V,12.0
V12,10.0,48.0,34.0,45.0,55.0,55,579.0,square4,r,0.793,3,V,12.0
V12,11.0,45.0,32.0,41.0,55.0,32,611.0,square2,i,0.867,1,V,12.0
V12,12.0,52.0,26.0,42.0,57.0,42,653.0,square3,j,0.337,2,V,12.0
V12,13.0,56.0,31.0,41.0,54.0,56,709.0,square1,f,0.309,0,V,12.0
V12,14.0,44.0,34.0,40.0,64.0,44,753.0,square1,f,0.067,0,V,12.0
V12,15.0,48.0,32.0,39.0,61.0,61,814.0,square4,r,0.659,3,V,12.0
V12,16.0,49.0,33.0,37.0,58.0,58,872.0,square4,r,0.51,3,V,12.0
V12,17.0,45.0,33.0,43.0,57.0,57,929.0,square4,r,0.573,3,V,12.0
V12,18.0,45.0,28.0,40.0,58.0,58,987.0,square4,r,0.311,3,V,12.0
V12,19.0,42.0,33.0,43.0,59.0,59,1046.0,square4,r,0.257,3,V,12.0
V12,20.0,46.0,30.0,38.0,62.0,62,1108.0,square4,r,0.29,3,V,12.0
V12,21.0,46.0,35.0,40.0,55.0,55,1163.0,square4,r,0.305,3,V,12.0
V12,22.0,46.0,34.0,36.0,63.0,34,1197.0,square2,i,0.706,1,V,12.0
V12,23.0,54.0,34.0,42.0,56.0,42,1239.0,square3,j,0.598,2,V,12.0
V12,24.0,44.0,30.0,41.0,59.0,44,1283.0,square1,f,0.376,0,V,12.0
V12,25.0,49.0,33.0,37.0,64.0,64,1347.0,square4,r,0.279,3,V,12.0
V12,26.0,52.0,34.0,39.0,57.0,57,1404.0,square4,r,0.395,3,V,12.0
V12,27.0,50.0,26.0,37.0,55.0,55,1459.0,square4,r,0.272,3,V,12.0
V12,28.0,41.0,29.0,46.0,21.0,41,1500.0,square1,f,0.635,0,V,12.0
V12,29.0,41.0,28.0,51.0,20.0,20,1520.0,square4,r,0.159,3,V,12.0
V12,30.0,32.0,31.0,46.0,22.0,22,1542.0,square4,r,0.27,3,V,12.0
V12,31.0,38.0,28.0,45.0,22.0,22,1564.0,square4,r,0.214,3,V,12.0
V12,32.0,35.0,27.0,44.0,16.0,16,1580.0,square4,r,0.306,3,V,12.0
V12,33.0,39.0,29.0,49.0,21.0,29,1609.0,square2,i,1.299,1,V,12.0
V12,34.0,39.0,28.0,49.0,15.0,49,1658.0,square3,j,0.525,2,V,12.0
V12,35.0,36.0,29.0,50.0,17.0,36,1694.0,square1,f,0.841,0,V,12.0
V12,36.0,41.0,28.0,48.0,12.0,48,1742.0,square3,j,0.017,2,V,12.0
V12,37.0,34.0,29.0,46.0,25.0,46,1788.0,square3,j,0.091,2,V,12.0
V12,38.0,38.0,28.0,51.0,19.0,51,1839.0,square3,j,0.341,2,V,12.0
V12,39.0,39.0,31.0,45.0,13.0,45,1884.0,square3,j,0.36,2,V,12.0
V12,40.0,35.0,28.0,46.0,26.0,46,1930.0,square3,j,0.365,2,V,12.0
V12,41.0,38.0,27.0,46.0,20.0,46,1976.0,square3,j,0.691,2,V,12.0
V12,42.0,40.0,26.0,50.0,23.0,50,2026.0,square3,j,0.327,2,V,12.0
V12,43.0,33.0,30.0,45.0,18.0,45,2071.0,square3,j,0.391,2,V,12.0
V12,44.0,39.0,31.0,46.0,22.0,22,2093.0,square4,r,0.719,3,V,12.0
V12,45.0,32.0,26.0,42.0,20.0,26,2119.0,square2,i,0.509,1,V,12.0
V12,46.0,36.0,29.0,43.0,24.0,36,2155.0,square1,f,0.756,0,V,12.0
V12,47.0,37.0,30.0,46.0,21.0,46,2201.0,square3,j,0.546,2,V,12.0
V12,48.0,37.0,27.0,44.0,19.0,44,2245.0,square3,j,0.242,2,V,12.0
V12,49.0,36.0,33.0,55.0,16.0,55,2300.0,square3,j,0.175,2,V,12.0
V12,50.0,45.0,28.0,44.0,18.0,44,2344.0,square3,j,0.013,2,V,12.0
V12,51.0,35.0,32.0,49.0,19.0,49,2393.0,square3,j,0.078,2,V,12.0
V12,52.0,36.0,56.0,31.0,52.0,31,2424.0,square3,j,0.017,2,V,12.0
V12,53.0,36.0,57.0,29.0,45.0,29,2453.0,square3,j,0.09,2,V,12.0
V12,54.0,38.0,61.0,28.0,51.0,28,2481.0,square3,j,0.318,2,V,12.0
V12,55.0,35.0,60.0,29.0,47.0,29,2510.0,square3,j,0.225,2,V,12.0
V12,56.0,34.0,62.0,29.0,46.0,62,2572.0,square2,i,0.545,1,V,12.0
V12,57.0,43.0,57.0,32.0,46.0,57,2629.0,square2,i,0.342,1,V,12.0
V12,58.0,40.0,59.0,32.0,50.0,59,2688.0,square2,i,0.277,1,V,12.0
V12,59.0,41.0,62.0,33.0,48.0,62,2750.0,square2,i,0.215,1,V,12.0
V12,60.0,36.0,61.0,32.0,49.0,61,2811.0,square2,i,0.309,1,V,12.0
V12,61.0,39.0,56.0,32.0,44.0,56,2867.0,square2,i,0.063,1,V,12.0
V12,62.0,39.0,57.0,30.0,46.0,57,2924.0,square2,i,0.309,1,V,12.0
V12,63.0,42.0,53.0,29.0,46.0,53,2977.0,square2,i,0.293,1,V,12.0
V12,64.0,35.0,57.0,32.0,50.0,57,3034.0,square2,i,0.275,1,V,12.0
V12,65.0,44.0,58.0,32.0,49.0,58,3092.0,square2,i,0.176,1,V,12.0
V12,66.0,44.0,56.0,29.0,52.0,56,3148.0,square2,i,0.685,1,V,12.0
V12,67.0,41.0,60.0,30.0,49.0,60,3208.0,square2,i,0.376,1,V,12.0
V12,68.0,42.0,58.0,32.0,45.0,58,3266.0,square2,i,0.459,1,V,12.0
V12,69.0,36.0,60.0,33.0,50.0,60,3326.0,square2,i,0.108,1,V,12.0
V12,70.0,36.0,57.0,27.0,46.0,57,3383.0,square2,i,0.175,1,V,12.0
V12,71.0,41.0,59.0,32.0,48.0,59,3442.0,square2,i,1.126,1,V,12.0
V12,72.0,34.0,59.0,31.0,49.0,59,3501.0,square2,i,0.81,1,V,12.0
V12,73.0,71.0,53.0,65.0,49.0,53,3554.0,square2,i,0.957,1,V,12.0
V12,74.0,69.0,49.0,63.0,45.0,49,3603.0,square2,i,1.25,1,V,12.0
V12,75.0,72.0,51.0,56.0,46.0,51,3654.0,square2,i,0.228,1,V,12.0
V12,76.0,72.0,48.0,58.0,43.0,48,3702.0,square2,i,0.575,1,V,12.0
V12,77.0,74.0,57.0,59.0,44.0,57,3759.0,square2,i,0.307,1,V,12.0
V12,78.0,69.0,55.0,63.0,50.0,55,3814.0,square2,i,0.379,1,V,12.0
V12,79.0,73.0,53.0,58.0,43.0,53,3867.0,square2,i,0.342,1,V,12.0
V12,80.0,71.0,47.0,65.0,40.0,47,3914.0,square2,i,0.591,1,V,12.0
V12,81.0,66.0,49.0,57.0,40.0,49,3963.0,square2,i,0.226,1,V,12.0
V12,82.0,71.0,53.0,57.0,48.0,53,4016.0,square2,i,0.585,1,V,12.0
V12,83.0,70.0,50.0,56.0,49.0,50,4066.0,square2,i,0.143,1,V,12.0
V12,84.0,69.0,45.0,64.0,43.0,45,4111.0,square2,i,1.19,1,V,12.0
V12,85.0,64.0,48.0,54.0,42.0,48,4159.0,square2,i,0.803,1,V,12.0
V12,86.0,71.0,49.0,63.0,44.0,49,4208.0,square2,i,0.333,1,V,12.0
V12,87.0,72.0,52.0,55.0,42.0,52,4260.0,square2,i,0.626,1,V,12.0
V12,88.0,64.0,48.0,59.0,44.0,48,4308.0,square2,i,0.833,1,V,12.0
V12,89.0,69.0,48.0,62.0,45.0,48,4356.0,square2,i,0.762,1,V,12.0
V12,90.0,68.0,56.0,60.0,42.0,56,4412.0,square2,i,1.209,1,V,12.0
V12,91.0,69.0,52.0,62.0,45.0,52,4464.0,square2,i,0.185,1,V,12.0
V12,92.0,65.0,50.0,64.0,47.0,50,4514.0,square2,i,0.692,1,V,12.0
V12,93.0,68.0,51.0,62.0,43.0,51,4565.0,square2,i,0.515,1,V,12.0
V12,94.0,68.0,52.0,60.0,38.0,52,4617.0,square2,i,0.036,1,V,12.0
V12,95.0,71.0,52.0,58.0,47.0,52,4669.0,square2,i,0.482,1,V,12.0
V12,96.0,66.0,49.0,59.0,44.0,49,4718.0,square2,i,0.625,1,V,12.0
V12,97.0,74.0,47.0,54.0,47.0,47,4765.0,square2,i,0.607,1,V,12.0
V12,98.0,68.0,43.0,64.0,41.0,43,4808.0,square2,i,0.423,1,V,12.0
V12,99.0,71.0,53.0,62.0,44.0,53,4861.0,square2,i,0.366,1,V,12.0
V11,0.0,42.0,67.0,57.0,49.0,49,49.0,square4,i,0.917,3,V,11.0
V11,1.0,42.0,71.0,60.0,53.0,71,120.0,square2,j,1.33,1,V,11.0
V11,2.0,45.0,76.0,58.0,51.0,45,165.0,square1,r,0.523,0,V,11.0
V11,3.0,44.0,65.0,60.0,49.0,60,225.0,square3,f,0.381,2,V,11.0
V11,4.0,46.0,73.0,64.0,51.0,73,298.0,square2,j,0.392,1,V,11.0
V11,5.0,47.0,67.0,58.0,54.0,67,365.0,square2,j,0.235,1,V,11.0
V11,6.0,43.0,68.0,58.0,50.0,68,433.0,square2,j,0.525,1,V,11.0
V11,7.0,42.0,67.0,60.0,58.0,67,500.0,square2,j,0.698,1,V,11.0
V11,8.0,44.0,67.0,60.0,53.0,67,567.0,square2,j,0.601,1,V,11.0
V11,9.0,44.0,67.0,59.0,54.0,67,634.0,square2,j,0.559,1,V,11.0
V11,10.0,49.0,76.0,57.0,52.0,76,710.0,square2,j,0.675,1,V,11.0
V11,11.0,45.0,71.0,58.0,51.0,71,781.0,square2,j,0.075,1,V,11.0
V11,12.0,45.0,72.0,58.0,56.0,72,853.0,square2,j,0.917,1,V,11.0
V11,13.0,49.0,67.0,63.0,54.0,67,920.0,square2,j,0.33,1,V,11.0
V11,14.0,50.0,75.0,57.0,48.0,75,995.0,square2,j,0.393,1,V,11.0
V11,15.0,40.0,71.0,61.0,51.0,71,1066.0,square2,j,0.383,1,V,11.0
V11,16.0,47.0,72.0,56.0,54.0,72,1138.0,square2,j,0.561,1,V,11.0
V11,17.0,40.0,71.0,61.0,46.0,71,1209.0,square2,j,0.18,1,V,11.0
V11,18.0,44.0,69.0,59.0,51.0,69,1278.0,square2,j,0.275,1,V,11.0
V11,19.0,44.0,73.0,59.0,47.0,73,1351.0,square2,j,0.285,1,V,11.0
V11,20.0,47.0,69.0,64.0,54.0,69,1420.0,square2,j,0.058,1,V,11.0
V11,21.0,78.0,49.0,70.0,65.0,49,1469.0,square2,j,0.197,1,V,11.0
V11,22.0,78.0,56.0,73.0,62.0,73,1542.0,square3,f,0.291,2,V,11.0
V11,23.0,84.0,54.0,71.0,65.0,65,1607.0,square4,i,0.584,3,V,11.0
V11,24.0,80.0,55.0,72.0,67.0,80,1687.0,square1,r,0.336,0,V,11.0
V11,25.0,80.0,55.0,75.0,63.0,80,1767.0,square1,r,0.004,0,V,11.0
V11,26.0,80.0,56.0,67.0,62.0,80,1847.0,square1,r,0.356,0,V,11.0
V11,27.0,80.0,51.0,68.0,62.0,80,1927.0,square1,r,0.341,0,V,11.0
V11,28.0,79.0,57.0,67.0,57.0,79,2006.0,square1,r,0.709,0,V,11.0
V11,29.0,79.0,50.0,67.0,62.0,62,2068.0,square4,i,0.62,3,V,11.0
V11,30.0,88.0,54.0,74.0,61.0,74,2142.0,square3,f,0.427,2,V,11.0
V11,31.0,81.0,51.0,75.0,63.0,51,2193.0,square2,j,0.376,1,V,11.0
V11,32.0,76.0,51.0,69.0,65.0,69,2262.0,square3,f,0.649,2,V,11.0
V11,33.0,78.0,54.0,72.0,64.0,78,2340.0,square1,r,0.414,0,V,11.0
V11,34.0,77.0,53.0,71.0,62.0,77,2417.0,square1,r,0.575,0,V,11.0
V11,35.0,74.0,59.0,75.0,62.0,74,2491.0,square1,r,0.292,0,V,11.0
V11,36.0,79.0,50.0,72.0,62.0,79,2570.0,square1,r,0.125,0,V,11.0
V11,37.0,74.0,54.0,68.0,62.0,74,2644.0,square1,r,0.51,0,V,11.0
V11,38.0,80.0,57.0,65.0,58.0,80,2724.0,square1,r,0.09,0,V,11.0
V11,39.0,73.0,52.0,75.0,66.0,73,2797.0,square1,r,0.001,0,V,11.0
V11,40.0,82.0,57.0,71.0,57.0,82,2879.0,square1,r,0.292,0,V,11.0
V11,41.0,78.0,53.0,73.0,64.0,78,2957.0,square1,r,0.236,0,V,11.0
V11,42.0,72.0,56.0,67.0,59.0,72,3029.0,square1,r,0.276,0,V,11.0
V11,43.0,81.0,54.0,73.0,63.0,73,3102.0,square3,f,0.092,2,V,11.0
V11,44.0,76.0,54.0,75.0,59.0,76,3178.0,square1,r,0.356,0,V,11.0
V11,45.0,79.0,59.0,71.0,64.0,79,3257.0,square1,r,0.242,0,V,11.0
V11,46.0,80.0,55.0,67.0,57.0,57,3314.0,square4,i,0.01,3,V,11.0
V11,47.0,84.0,53.0,75.0,56.0,84,3398.0,square1,r,0.073,0,V,11.0
V11,48.0,83.0,57.0,71.0,60.0,83,3481.0,square1,r,0.014,0,V,11.0
V11,49.0,79.0,52.0,71.0,60.0,79,3560.0,square1,r,0.06,0,V,11.0
V11,50.0,76.0,50.0,69.0,60.0,76,3636.0,square1,r,0.001,0,V,11.0
V11,51.0,79.0,54.0,72.0,57.0,79,3715.0,square1,r,1.095,0,V,11.0
V11,52.0,80.0,54.0,72.0,64.0,80,3795.0,square1,r,0.192,0,V,11.0
V11,53.0,35.0,50.0,55.0,69.0,35,3830.0,square1,r,0.433,0,V,11.0
V11,54.0,45.0,48.0,55.0,73.0,45,3875.0,square1,r,0.296,0,V,11.0
V11,55.0,43.0,53.0,58.0,70.0,43,3918.0,square1,r,0.493,0,V,11.0
V11,56.0,40.0,46.0,60.0,62.0,46,3964.0,square2,j,0.527,1,V,11.0
V11,57.0,44.0,46.0,53.0,71.0,53,4017.0,square3,f,0.4,2,V,11.0
V11,58.0,44.0,52.0,55.0,68.0,68,4085.0,square4,i,0.407,3,V,11.0
V11,59.0,44.0,44.0,57.0,66.0,66,4151.0,square4,i,0.134,3,V,11.0
V11,60.0,40.0,46.0,57.0,62.0,62,4213.0,square4,i,0.201,3,V,11.0
V11,61.0,42.0,52.0,58.0,62.0,62,4275.0,square4,i,0.248,3,V,11.0
V11,62.0,40.0,49.0,56.0,71.0,71,4346.0,square4,i,0.333,3,V,11.0
V11,63.0,40.0,54.0,60.0,66.0,40,4386.0,square1,r,0.401,0,V,11.0
V11,64.0,41.0,43.0,51.0,66.0,43,4429.0,square2,j,0.513,1,V,11.0
V11,65.0,39.0,48.0,59.0,66.0,59,4488.0,square3,f,0.519,2,V,11.0
V11,66.0,40.0,48.0,59.0,69.0,69,4557.0,square4,i,0.146,3,V,11.0
V11,67.0,46.0,45.0,58.0,69.0,69,4626.0,square4,i,0.001,3,V,11.0
V11,68.0,41.0,50.0,56.0,69.0,69,4695.0,square4,i,0.345,3,V,11.0
V11,69.0,48.0,49.0,57.0,71.0,71,4766.0,square4,i,0.6,3,V,11.0
V11,70.0,41.0,47.0,58.0,65.0,65,4831.0,square4,i,0.29,3,V,11.0
V11,71.0,37.0,46.0,58.0,60.0,60,4891.0,square4,i,0.391,3,V,11.0
V11,72.0,41.0,47.0,54.0,65.0,54,4945.0,square3,f,0.516,2,V,11.0
V11,73.0,42.0,47.0,60.0,67.0,42,4987.0,square1,r,0.426,0,V,11.0
V11,74.0,43.0,49.0,57.0,64.0,49,5036.0,square2,j,0.624,1,V,11.0
V11,75.0,38.0,46.0,57.0,66.0,66,5102.0,square4,i,0.557,3,V,11.0
V11,76.0,42.0,50.0,58.0,68.0,68,5170.0,square4,i,0.075,3,V,11.0
V11,77.0,36.0,49.0,58.0,64.0,64,5234.0,square4,i,0.005,3,V,11.0
V11,78.0,40.0,50.0,56.0,67.0,67,5301.0,square4,i,0.774,3,V,11.0
V11,79.0,39.0,48.0,56.0,67.0,67,5368.0,square4,i,0.285,3,V,11.0
V11,80.0,51.0,33.0,30.0,45.0,45,5413.0,square4,i,0.565,3,V,11.0
V11,81.0,49.0,31.0,23.0,48.0,31,5444.0,square2,j,0.212,1,V,11.0
V11,82.0,55.0,30.0,25.0,42.0,25,5469.0,square3,f,0.242,2,V,11.0
V11,83.0,50.0,33.0,27.0,48.0,50,5519.0,square1,r,0.358,0,V,11.0
V11,84.0,52.0,34.0,25.0,43.0,43,5562.0,square4,i,0.294,3,V,11.0
V11,85.0,49.0,28.0,28.0,44.0,49,5611.0,square1,r,0.208,0,V,11.0
V11,86.0,57.0,29.0,27.0,48.0,57,5668.0,square1,r,0.144,0,V,11.0
V11,87.0,49.0,29.0,21.0,38.0,49,5717.0,square1,r,0.545,0,V,11.0
V11,88.0,55.0,32.0,29.0,46.0,55,5772.0,square1,r,0.466,0,V,11.0
V11,89.0,50.0,28.0,23.0,43.0,50,5822.0,square1,r,0.309,0,V,11.0
V11,90.0,54.0,34.0,32.0,41.0,54,5876.0,square1,r,0.429,0,V,11.0
V11,91.0,50.0,34.0,26.0,44.0,44,5920.0,square4,i,0.369,3,V,11.0
V11,92.0,51.0,31.0,27.0,50.0,31,5951.0,square2,j,0.0,1,V,11.0
V11,93.0,49.0,38.0,28.0,42.0,28,5979.0,square3,f,0.276,2,V,11.0
V11,94.0,50.0,29.0,25.0,46.0,50,6029.0,square1,r,0.265,0,V,11.0
V11,95.0,51.0,36.0,22.0,40.0,51,6080.0,square1,r,0.128,0,V,11.0
V11,96.0,52.0,34.0,32.0,45.0,52,6132.0,square1,r,0.443,0,V,11.0
V11,97.0,53.0,27.0,32.0,44.0,53,6185.0,square1,r,0.059,0,V,11.0
V11,98.0,60.0,31.0,25.0,48.0,60,6245.0,square1,r,0.429,0,V,11.0
V11,99.0,53.0,33.0,23.0,42.0,53,6298.0,square1,r,0.382,0,V,11.0
V8,0.0,49.0,55.0,64.0,74.0,55,55.0,square2,i,0.856,1,V,8.0
V8,1.0,51.0,54.0,70.0,81.0,70,125.0,square3,r,0.364,2,V,8.0
V8,2.0,46.0,62.0,70.0,77.0,46,171.0,square1,j,0.31,0,V,8.0
V8,3.0,46.0,56.0,67.0,75.0,75,246.0,square4,f,1.285,3,V,8.0
V8,4.0,50.0,59.0,67.0,83.0,67,313.0,square3,r,0.27,2,V,8.0
V8,5.0,51.0,54.0,65.0,78.0,78,391.0,square4,f,0.615,3,V,8.0
V8,6.0,45.0,57.0,66.0,80.0,80,471.0,square4,f,0.109,3,V,8.0
V8,7.0,46.0,64.0,68.0,77.0,77,548.0,square4,f,0.433,3,V,8.0
V8,8.0,50.0,57.0,66.0,73.0,73,621.0,square4,f,0.057,3,V,8.0
V8,9.0,46.0,56.0,71.0,72.0,72,693.0,square4,f,0.022,3,V,8.0
V8,10.0,56.0,58.0,67.0,75.0,75,768.0,square4,f,0.032,3,V,8.0
V8,11.0,50.0,61.0,69.0,74.0,74,842.0,square4,f,0.276,3,V,8.0
V8,12.0,59.0,59.0,69.0,77.0,77,919.0,square4,f,0.036,3,V,8.0
V8,13.0,50.0,56.0,72.0,77.0,72,991.0,square3,r,0.548,2,V,8.0
V8,14.0,48.0,55.0,65.0,80.0,55,1046.0,square2,i,0.285,1,V,8.0
V8,15.0,48.0,58.0,65.0,76.0,48,1094.0,square1,j,1.148,0,V,8.0
V8,16.0,49.0,58.0,67.0,75.0,67,1161.0,square3,r,0.459,2,V,8.0
V8,17.0,51.0,56.0,68.0,76.0,76,1237.0,square4,f,0.028,3,V,8.0
V8,18.0,52.0,63.0,69.0,80.0,80,1317.0,square4,f,0.239,3,V,8.0
V8,19.0,54.0,54.0,71.0,79.0,79,1396.0,square4,f,0.058,3,V,8.0
V8,20.0,48.0,53.0,62.0,77.0,77,1473.0,square4,f,0.519,3,V,8.0
V8,21.0,44.0,61.0,66.0,77.0,77,1550.0,square4,f,0.576,3,V,8.0
V8,22.0,52.0,58.0,64.0,78.0,78,1628.0,square4,f,0.376,3,V,8.0
V8,23.0,50.0,49.0,67.0,79.0,79,1707.0,square4,f,0.009,3,V,8.0
V8,24.0,49.0,59.0,69.0,74.0,74,1781.0,square4,f,0.0,3,V,8.0
V8,25.0,46.0,61.0,65.0,81.0,81,1862.0,square4,f,0.214,3,V,8.0
V8,26.0,49.0,58.0,63.0,35.0,35,1897.0,square4,f,0.191,3,V,8.0
V8,27.0,48.0,51.0,66.0,41.0,66,1963.0,square3,r,0.658,2,V,8.0
V8,28.0,46.0,55.0,65.0,38.0,55,2018.0,square2,i,0.098,1,V,8.0
V8,29.0,47.0,58.0,69.0,40.0,47,2065.0,square1,j,0.293,0,V,8.0
V8,30.0,42.0,55.0,67.0,43.0,67,2132.0,square3,r,0.323,2,V,8.0
V8,31.0,49.0,56.0,64.0,36.0,64,2196.0,square3,r,0.438,2,V,8.0
V8,32.0,49.0,55.0,69.0,38.0,69,2265.0,square3,r,0.5,2,V,8.0
V8,33.0,44.0,52.0,65.0,48.0,48,2313.0,square4,f,0.932,3,V,8.0
V8,34.0,44.0,57.0,70.0,45.0,70,2383.0,square3,r,0.217,2,V,8.0
V8,35.0,44.0,54.0,68.0,38.0,68,2451.0,square3,r,0.034,2,V,8.0
V8,36.0,45.0,56.0,64.0,40.0,64,2515.0,square3,r,0.332,2,V,8.0
V8,37.0,47.0,57.0,66.0,37.0,57,2572.0,square2,i,0.501,1,V,8.0
V8,38.0,49.0,50.0,66.0,37.0,66,2638.0,square3,r,0.223,2,V,8.0
V8,39.0,51.0,56.0,61.0,39.0,61,2699.0,square3,r,0.19,2,V,8.0
V8,40.0,47.0,59.0,66.0,41.0,47,2746.0,square1,j,0.461,0,V,8.0
V8,41.0,42.0,56.0,69.0,42.0,42,2788.0,square4,f,0.325,3,V,8.0
V8,42.0,47.0,57.0,72.0,35.0,57,2845.0,square2,i,0.467,1,V,8.0
V8,43.0,47.0,57.0,63.0,44.0,63,2908.0,square3,r,0.309,2,V,8.0
V8,44.0,45.0,58.0,67.0,42.0,67,2975.0,square3,r,0.165,2,V,8.0
V8,45.0,44.0,56.0,66.0,43.0,66,3041.0,square3,r,0.25,2,V,8.0
V8,46.0,46.0,53.0,70.0,37.0,70,3111.0,square3,r,0.089,2,V,8.0
V8,47.0,54.0,53.0,71.0,41.0,71,3182.0,square3,r,0.096,2,V,8.0
V8,48.0,49.0,53.0,69.0,37.0,69,3251.0,square3,r,0.266,2,V,8.0
V8,49.0,39.0,57.0,65.0,47.0,65,3316.0,square3,r,0.43,2,V,8.0
V8,50.0,48.0,55.0,65.0,41.0,55,3371.0,square2,i,0.022,1,V,8.0
V8,51.0,45.0,61.0,68.0,43.0,68,3439.0,square3,r,0.26,2,V,8.0
V8,52.0,53.0,52.0,68.0,37.0,53,3492.0,square1,j,0.058,0,V,8.0
V8,53.0,47.0,55.0,66.0,46.0,46,3538.0,square4,f,0.959,3,V,8.0
V8,54.0,49.0,53.0,61.0,39.0,61,3599.0,square3,r,0.279,2,V,8.0
V8,55.0,53.0,70.0,55.0,72.0,55,3654.0,square3,r,0.001,2,V,8.0
V8,56.0,57.0,63.0,48.0,73.0,48,3702.0,square3,r,0.034,2,V,8.0
V8,57.0,53.0,71.0,45.0,80.0,45,3747.0,square3,r,0.206,2,V,8.0
V8,58.0,57.0,69.0,52.0,73.0,69,3816.0,square2,i,0.117,1,V,8.0
V8,59.0,58.0,67.0,54.0,73.0,58,3874.0,square1,j,0.391,0,V,8.0
V8,60.0,55.0,66.0,47.0,76.0,66,3940.0,square2,i,0.268,1,V,8.0
V8,61.0,56.0,65.0,54.0,72.0,65,4005.0,square2,i,0.292,1,V,8.0
V8,62.0,56.0,65.0,49.0,75.0,65,4070.0,square2,i,0.039,1,V,8.0
V8,63.0,61.0,65.0,44.0,78.0,65,4135.0,square2,i,0.03,1,V,8.0
V8,64.0,54.0,66.0,48.0,75.0,66,4201.0,square2,i,0.79,1,V,8.0
V8,65.0,59.0,65.0,46.0,79.0,65,4266.0,square2,i,0.241,1,V,8.0
V8,66.0,51.0,62.0,46.0,73.0,62,4328.0,square2,i,0.148,1,V,8.0
V8,67.0,60.0,70.0,45.0,76.0,70,4398.0,square2,i,0.168,1,V,8.0
V8,68.0,63.0,64.0,47.0,73.0,64,4462.0,square2,i,0.324,1,V,8.0
V8,69.0,58.0,66.0,43.0,77.0,66,4528.0,square2,i,0.213,1,V,8.0
V8,70.0,59.0,65.0,49.0,73.0,65,4593.0,square2,i,0.157,1,V,8.0
V8,71.0,60.0,64.0,49.0,79.0,64,4657.0,square2,i,0.269,1,V,8.0
V8,72.0,96.0,68.0,78.0,67.0,99999,4657.0,invalid,,,-1,V,8.0
V8,73.0,96.0,68.0,79.0,64.0,68,4725.0,square2,i,0.022,1,V,8.0
V8,74.0,92.0,67.0,81.0,62.0,67,4792.0,square2,i,0.744,1,V,8.0
V8,75.0,96.0,72.0,83.0,62.0,72,4864.0,square2,i,0.374,1,V,8.0
V8,76.0,94.0,70.0,77.0,57.0,70,4934.0,square2,i,0.36,1,V,8.0
V8,77.0,91.0,68.0,81.0,59.0,68,5002.0,square2,i,0.222,1,V,8.0
V8,78.0,90.0,73.0,80.0,63.0,73,5075.0,square2,i,0.359,1,V,8.0
V8,79.0,90.0,73.0,83.0,61.0,73,5148.0,square2,i,0.325,1,V,8.0
V8,80.0,95.0,75.0,81.0,66.0,75,5223.0,square2,i,0.003,1,V,8.0
V8,81.0,92.0,72.0,81.0,57.0,72,5295.0,square2,i,0.541,1,V,8.0
V8,82.0,91.0,71.0,80.0,61.0,71,5366.0,square2,i,0.001,1,V,8.0
V8,83.0,90.0,66.0,83.0,62.0,66,5432.0,square2,i,0.608,1,V,8.0
V8,84.0,93.0,67.0,87.0,65.0,67,5499.0,square2,i,0.392,1,V,8.0
V8,85.0,85.0,70.0,80.0,62.0,70,5569.0,square2,i,0.078,1,V,8.0
V8,86.0,84.0,72.0,85.0,62.0,72,5641.0,square2,i,0.065,1,V,8.0
V8,87.0,91.0,68.0,82.0,65.0,68,5709.0,square2,i,0.064,1,V,8.0
V8,88.0,93.0,67.0,83.0,61.0,67,5776.0,square2,i,0.267,1,V,8.0
V8,89.0,95.0,68.0,78.0,66.0,95,5871.0,square1,j,0.483,0,V,8.0
V8,90.0,91.0,73.0,80.0,60.0,91,5962.0,square1,j,0.24,0,V,8.0
V8,91.0,93.0,68.0,81.0,64.0,64,6026.0,square4,f,0.541,3,V,8.0
V8,92.0,90.0,75.0,82.0,67.0,82,6108.0,square3,r,0.4,2,V,8.0
V8,93.0,92.0,70.0,82.0,66.0,92,6200.0,square1,j,0.487,0,V,8.0
V8,94.0,90.0,71.0,78.0,63.0,90,6290.0,square1,j,0.173,0,V,8.0
V8,95.0,88.0,65.0,78.0,63.0,88,6378.0,square1,j,0.009,0,V,8.0
V8,96.0,89.0,72.0,85.0,62.0,89,6467.0,square1,j,0.29,0,V,8.0
V8,97.0,92.0,72.0,77.0,67.0,92,6559.0,square1,j,0.094,0,V,8.0
V8,98.0,86.0,63.0,82.0,62.0,86,6645.0,square1,j,0.337,0,V,8.0
V8,99.0,90.0,66.0,75.0,61.0,90,6735.0,square1,j,0.047,0,V,8.0
NS5,0.0,26.0,19.0,54.0,39.0,26,26.0,square1,i,0.788,0,N,5.0
NS5,1.0,21.0,17.0,51.0,42.0,42,68.0,square4,j,0.441,3,N,5.0
NS5,2.0,19.0,17.0,52.0,42.0,17,85.0,square2,r,0.745,1,N,5.0
NS5,3.0,21.0,16.0,55.0,38.0,55,140.0,square3,f,0.125,2,N,5.0
NS5,4.0,14.0,26.0,52.0,44.0,44,184.0,square4,j,0.364,3,N,5.0
NS5,5.0,18.0,25.0,47.0,42.0,18,202.0,square1,i,0.196,0,N,5.0
NS5,6.0,23.0,21.0,54.0,38.0,54,256.0,square3,f,0.284,2,N,5.0
NS5,7.0,18.0,27.0,56.0,39.0,56,312.0,square3,f,0.322,2,N,5.0
NS5,8.0,18.0,28.0,57.0,40.0,57,369.0,square3,f,0.008,2,N,5.0
NS5,9.0,15.0,29.0,53.0,38.0,53,422.0,square3,f,0.258,2,N,5.0
NS5,10.0,13.0,26.0,56.0,41.0,56,478.0,square3,f,0.091,2,N,5.0
NS5,11.0,11.0,25.0,58.0,41.0,58,536.0,square3,f,0.017,2,N,5.0
NS5,12.0,9.0,22.0,53.0,40.0,53,589.0,square3,f,0.304,2,N,5.0
NS5,13.0,11.0,21.0,55.0,39.0,21,610.0,square2,r,0.457,1,N,5.0
NS5,14.0,12.0,17.0,49.0,38.0,12,622.0,square1,i,0.027,0,N,5.0
NS5,15.0,18.0,19.0,52.0,37.0,37,659.0,square4,j,0.126,3,N,5.0
NS5,16.0,18.0,20.0,49.0,40.0,49,708.0,square3,f,0.268,2,N,5.0
NS5,17.0,16.0,16.0,50.0,41.0,50,758.0,square3,f,0.366,2,N,5.0
NS5,18.0,16.0,18.0,51.0,43.0,51,809.0,square3,f,0.477,2,N,5.0
NS5,19.0,14.0,20.0,44.0,45.0,44,853.0,square3,f,0.312,2,N,5.0
NS5,20.0,19.0,21.0,42.0,48.0,42,895.0,square3,f,0.18,2,N,5.0
NS5,21.0,19.0,22.0,43.0,47.0,43,938.0,square3,f,0.217,2,N,5.0
NS5,22.0,17.0,15.0,43.0,47.0,43,981.0,square3,f,0.198,2,N,5.0
NS5,23.0,16.0,28.0,37.0,47.0,37,1018.0,square3,f,0.038,2,N,5.0
NS5,24.0,20.0,21.0,38.0,49.0,38,1056.0,square3,f,0.074,2,N,5.0
NS5,25.0,22.0,17.0,34.0,46.0,34,1090.0,square3,f,0.308,2,N,5.0
NS5,26.0,30.0,16.0,32.0,50.0,16,1106.0,square2,r,0.326,1,N,5.0
NS5,27.0,21.0,20.0,35.0,42.0,42,1148.0,square4,j,0.199,3,N,5.0
NS5,28.0,20.0,23.0,39.0,42.0,20,1168.0,square1,i,0.392,0,N,5.0
NS5,29.0,21.0,18.0,39.0,41.0,41,1209.0,square4,j,0.302,3,N,5.0
NS5,30.0,20.0,11.0,41.0,44.0,41,1250.0,square3,f,0.314,2,N,5.0
NS5,31.0,20.0,9.0,36.0,43.0,43,1293.0,square4,j,0.044,3,N,5.0
NS5,32.0,21.0,13.0,35.0,46.0,46,1339.0,square4,j,0.257,3,N,5.0
NS5,33.0,16.0,22.0,32.0,44.0,44,1383.0,square4,j,0.05,3,N,5.0
NS5,34.0,20.0,20.0,33.0,37.0,37,1420.0,square4,j,0.057,3,N,5.0
NS5,35.0,19.0,27.0,34.0,40.0,40,1460.0,square4,j,0.042,3,N,5.0
NS5,36.0,20.0,23.0,31.0,37.0,31,1491.0,square3,f,0.311,2,N,5.0
NS5,37.0,15.0,28.0,41.0,40.0,40,1531.0,square4,j,0.116,3,N,5.0
NS5,38.0,18.0,21.0,45.0,37.0,37,1568.0,square4,j,0.025,3,N,5.0
NS5,39.0,23.0,22.0,40.0,34.0,34,1602.0,square4,j,0.058,3,N,5.0
NS5,40.0,22.0,25.0,44.0,26.0,26,1628.0,square4,j,0.049,3,N,5.0
NS5,41.0,28.0,25.0,39.0,29.0,39,1667.0,square3,f,0.469,2,N,5.0
NS5,42.0,27.0,27.0,42.0,35.0,27,1694.0,square2,r,0.116,1,N,5.0
NS5,43.0,25.0,25.0,49.0,38.0,25,1719.0,square1,i,0.612,0,N,5.0
NS5,44.0,24.0,26.0,42.0,30.0,42,1761.0,square3,f,0.357,2,N,5.0
NS5,45.0,33.0,22.0,43.0,37.0,43,1804.0,square3,f,0.258,2,N,5.0
NS5,46.0,32.0,24.0,50.0,38.0,50,1854.0,square3,f,0.096,2,N,5.0
NS5,47.0,39.0,25.0,52.0,29.0,52,1906.0,square3,f,0.225,2,N,5.0
NS5,48.0,42.0,22.0,46.0,33.0,46,1952.0,square3,f,0.299,2,N,5.0
NS5,49.0,40.0,26.0,40.0,33.0,40,1992.0,square3,f,0.345,2,N,5.0
NS5,50.0,34.0,19.0,47.0,33.0,47,2039.0,square3,f,0.388,2,N,5.0
NS5,51.0,29.0,25.0,45.0,29.0,45,2084.0,square3,f,0.496,2,N,5.0
NS5,52.0,29.0,24.0,48.0,35.0,48,2132.0,square3,f,0.341,2,N,5.0
NS5,53.0,24.0,25.0,45.0,40.0,45,2177.0,square3,f,0.468,2,N,5.0
NS5,54.0,26.0,25.0,51.0,36.0,51,2228.0,square3,f,0.607,2,N,5.0
NS5,55.0,25.0,28.0,56.0,34.0,56,2284.0,square3,f,0.243,2,N,5.0
NS5,56.0,23.0,27.0,54.0,36.0,54,2338.0,square3,f,0.41,2,N,5.0
NS5,57.0,19.0,25.0,51.0,31.0,51,2389.0,square3,f,0.167,2,N,5.0
NS5,58.0,20.0,30.0,53.0,29.0,53,2442.0,square3,f,0.048,2,N,5.0
NS5,59.0,17.0,30.0,52.0,28.0,52,2494.0,square3,f,0.081,2,N,5.0
NS5,60.0,15.0,30.0,55.0,30.0,55,2549.0,square3,f,0.0,2,N,5.0
NS5,61.0,22.0,29.0,54.0,30.0,54,2603.0,square3,f,0.709,2,N,5.0
NS5,62.0,18.0,31.0,55.0,32.0,55,2658.0,square3,f,0.025,2,N,5.0
NS5,63.0,19.0,31.0,51.0,37.0,51,2709.0,square3,f,0.599,2,N,5.0
NS5,64.0,20.0,30.0,45.0,35.0,45,2754.0,square3,f,0.194,2,N,5.0
NS5,65.0,24.0,21.0,55.0,38.0,55,2809.0,square3,f,0.391,2,N,5.0
NS5,66.0,22.0,29.0,58.0,36.0,36,2845.0,square4,j,0.5,3,N,5.0
NS5,67.0,22.0,26.0,51.0,36.0,22,2867.0,square1,i,0.358,0,N,5.0
NS5,68.0,20.0,28.0,52.0,36.0,28,2895.0,square2,r,0.441,1,N,5.0
NS5,69.0,18.0,27.0,52.0,40.0,52,2947.0,square3,f,0.041,2,N,5.0
NS5,70.0,22.0,34.0,55.0,39.0,55,3002.0,square3,f,0.278,2,N,5.0
NS5,71.0,27.0,37.0,59.0,41.0,59,3061.0,square3,f,0.358,2,N,5.0
NS5,72.0,27.0,37.0,57.0,40.0,57,3118.0,square3,f,0.381,2,N,5.0
NS5,73.0,35.0,36.0,55.0,38.0,55,3173.0,square3,f,0.024,2,N,5.0
NS5,74.0,27.0,36.0,52.0,36.0,52,3225.0,square3,f,0.025,2,N,5.0
NS5,75.0,31.0,40.0,53.0,38.0,53,3278.0,square3,f,0.357,2,N,5.0
NS5,76.0,33.0,41.0,59.0,35.0,59,3337.0,square3,f,0.257,2,N,5.0
NS5,77.0,33.0,42.0,56.0,38.0,56,3393.0,square3,f,0.309,2,N,5.0
NS5,78.0,30.0,42.0,53.0,37.0,53,3446.0,square3,f,0.306,2,N,5.0
NS5,79.0,27.0,49.0,51.0,44.0,51,3497.0,square3,f,0.331,2,N,5.0
NS5,80.0,31.0,49.0,45.0,44.0,49,3546.0,square2,r,0.029,1,N,5.0
NS5,81.0,33.0,51.0,48.0,43.0,33,3579.0,square1,i,0.359,0,N,5.0
NS5,82.0,31.0,54.0,41.0,43.0,43,3622.0,square4,j,0.375,3,N,5.0
NS5,83.0,25.0,57.0,42.0,40.0,42,3664.0,square3,f,0.215,2,N,5.0
NS5,84.0,36.0,57.0,45.0,38.0,57,3721.0,square2,r,0.103,1,N,5.0
NS5,85.0,36.0,62.0,44.0,42.0,62,3783.0,square2,r,0.358,1,N,5.0
NS5,86.0,33.0,55.0,48.0,43.0,55,3838.0,square2,r,0.187,1,N,5.0
NS5,87.0,37.0,53.0,44.0,46.0,53,3891.0,square2,r,0.143,1,N,5.0
NS5,88.0,36.0,54.0,41.0,48.0,54,3945.0,square2,r,0.125,1,N,5.0
NS5,89.0,39.0,62.0,47.0,47.0,62,4007.0,square2,r,0.061,1,N,5.0
NS5,90.0,37.0,62.0,51.0,48.0,62,4069.0,square2,r,0.239,1,N,5.0
NS5,91.0,40.0,64.0,48.0,53.0,64,4133.0,square2,r,0.214,1,N,5.0
NS5,92.0,42.0,64.0,51.0,55.0,64,4197.0,square2,r,0.457,1,N,5.0
NS5,93.0,39.0,63.0,51.0,53.0,63,4260.0,square2,r,0.295,1,N,5.0
NS5,94.0,41.0,60.0,50.0,58.0,60,4320.0,square2,r,0.424,1,N,5.0
NS5,95.0,36.0,55.0,53.0,52.0,55,4375.0,square2,r,0.341,1,N,5.0
NS5,96.0,36.0,56.0,55.0,56.0,56,4431.0,square2,r,0.332,1,N,5.0
NS5,97.0,28.0,52.0,57.0,53.0,52,4483.0,square2,r,0.463,1,N,5.0
NS5,98.0,29.0,53.0,53.0,43.0,53,4536.0,square2,r,0.047,1,N,5.0
NS5,99.0,25.0,55.0,53.0,46.0,55,4591.0,square2,r,0.159,1,N,5.0
NS4,0.0,55.0,53.0,59.0,44.0,53,53.0,square2,i,0.473,1,N,4.0
NS4,1.0,49.0,56.0,64.0,41.0,49,102.0,square1,j,0.272,0,N,4.0
NS4,2.0,50.0,54.0,71.0,48.0,48,150.0,square4,f,1.49,3,N,4.0
NS4,3.0,53.0,58.0,67.0,50.0,67,217.0,square3,r,0.326,2,N,4.0
NS4,4.0,49.0,51.0,70.0,55.0,70,287.0,square3,r,0.276,2,N,4.0
NS4,5.0,55.0,59.0,73.0,58.0,73,360.0,square3,r,0.0,2,N,4.0
NS4,6.0,56.0,54.0,71.0,57.0,71,431.0,square3,r,0.059,2,N,4.0
NS4,7.0,60.0,54.0,75.0,52.0,75,506.0,square3,r,0.141,2,N,4.0
NS4,8.0,58.0,53.0,74.0,52.0,53,559.0,square2,i,0.308,1,N,4.0
NS4,9.0,46.0,48.0,78.0,51.0,51,610.0,square4,f,0.359,3,N,4.0
NS4,10.0,55.0,48.0,78.0,51.0,55,665.0,square1,j,0.054,0,N,4.0
NS4,11.0,55.0,44.0,79.0,49.0,79,744.0,square3,r,0.016,2,N,4.0
NS4,12.0,50.0,40.0,79.0,50.0,79,823.0,square3,r,0.061,2,N,4.0
NS4,13.0,45.0,39.0,79.0,53.0,79,902.0,square3,r,0.394,2,N,4.0
NS4,14.0,44.0,38.0,77.0,56.0,77,979.0,square3,r,0.06,2,N,4.0
NS4,15.0,45.0,32.0,68.0,52.0,68,1047.0,square3,r,0.061,2,N,4.0
NS4,16.0,49.0,32.0,74.0,53.0,74,1121.0,square3,r,0.046,2,N,4.0
NS4,17.0,45.0,32.0,69.0,51.0,69,1190.0,square3,r,0.335,2,N,4.0
NS4,18.0,50.0,34.0,69.0,47.0,69,1259.0,square3,r,0.307,2,N,4.0
NS4,19.0,50.0,36.0,65.0,53.0,65,1324.0,square3,r,0.36,2,N,4.0
NS4,20.0,45.0,36.0,62.0,53.0,62,1386.0,square3,r,0.194,2,N,4.0
NS4,21.0,49.0,35.0,62.0,55.0,62,1448.0,square3,r,0.1,2,N,4.0
NS4,22.0,53.0,32.0,61.0,60.0,61,1509.0,square3,r,0.107,2,N,4.0
NS4,23.0,52.0,33.0,58.0,54.0,58,1567.0,square3,r,0.196,2,N,4.0
NS4,24.0,48.0,32.0,52.0,60.0,52,1619.0,square3,r,0.244,2,N,4.0
NS4,25.0,47.0,30.0,53.0,57.0,53,1672.0,square3,r,0.387,2,N,4.0
NS4,26.0,50.0,30.0,60.0,55.0,30,1702.0,square2,i,0.448,1,N,4.0
NS4,27.0,50.0,28.0,62.0,47.0,50,1752.0,square1,j,0.165,0,N,4.0
NS4,28.0,54.0,28.0,58.0,49.0,49,1801.0,square4,f,0.253,3,N,4.0
NS4,29.0,44.0,29.0,50.0,49.0,44,1845.0,square1,j,0.363,0,N,4.0
NS4,30.0,43.0,26.0,55.0,57.0,43,1888.0,square1,j,0.497,0,N,4.0
NS4,31.0,43.0,25.0,60.0,54.0,54,1942.0,square4,f,0.173,3,N,4.0
NS4,32.0,34.0,27.0,58.0,56.0,56,1998.0,square4,f,0.0,3,N,4.0
NS4,33.0,34.0,20.0,60.0,62.0,62,2060.0,square4,f,0.075,3,N,4.0
NS4,34.0,38.0,28.0,58.0,57.0,57,2117.0,square4,f,0.207,3,N,4.0
NS4,35.0,40.0,24.0,63.0,59.0,59,2176.0,square4,f,0.143,3,N,4.0
NS4,36.0,36.0,30.0,56.0,63.0,56,2232.0,square3,r,0.089,2,N,4.0
NS4,37.0,40.0,29.0,54.0,63.0,63,2295.0,square4,f,0.033,3,N,4.0
NS4,38.0,40.0,33.0,53.0,69.0,69,2364.0,square4,f,0.059,3,N,4.0
NS4,39.0,36.0,30.0,57.0,67.0,67,2431.0,square4,f,0.166,3,N,4.0
NS4,40.0,33.0,33.0,58.0,68.0,68,2499.0,square4,f,0.069,3,N,4.0
NS4,41.0,34.0,28.0,58.0,72.0,72,2571.0,square4,f,0.068,3,N,4.0
NS4,42.0,35.0,30.0,60.0,70.0,70,2641.0,square4,f,0.297,3,N,4.0
NS4,43.0,35.0,34.0,57.0,63.0,63,2704.0,square4,f,0.164,3,N,4.0
NS4,44.0,30.0,32.0,59.0,69.0,69,2773.0,square4,f,0.091,3,N,4.0
NS4,45.0,29.0,31.0,60.0,66.0,66,2839.0,square4,f,0.113,3,N,4.0
NS4,46.0,35.0,34.0,66.0,66.0,66,2905.0,square4,f,0.015,3,N,4.0
NS4,47.0,35.0,28.0,63.0,62.0,62,2967.0,square4,f,0.096,3,N,4.0
NS4,48.0,37.0,37.0,61.0,55.0,55,3022.0,square4,f,0.106,3,N,4.0
NS4,49.0,40.0,34.0,59.0,54.0,54,3076.0,square4,f,0.095,3,N,4.0
NS4,50.0,39.0,38.0,68.0,51.0,51,3127.0,square4,f,0.058,3,N,4.0
NS4,51.0,46.0,28.0,69.0,48.0,48,3175.0,square4,f,0.08,3,N,4.0
NS4,52.0,40.0,34.0,62.0,49.0,62,3237.0,square3,r,0.45,2,N,4.0
NS4,53.0,39.0,34.0,63.0,48.0,39,3276.0,square1,j,0.366,0,N,4.0
NS4,54.0,44.0,31.0,58.0,47.0,31,3307.0,square2,i,0.189,1,N,4.0
NS4,55.0,42.0,30.0,68.0,46.0,68,3375.0,square3,r,0.183,2,N,4.0
NS4,56.0,36.0,25.0,69.0,44.0,69,3444.0,square3,r,0.188,2,N,4.0
NS4,57.0,35.0,29.0,71.0,46.0,71,3515.0,square3,r,0.141,2,N,4.0
NS4,58.0,43.0,28.0,68.0,47.0,68,3583.0,square3,r,0.098,2,N,4.0
NS4,59.0,43.0,27.0,67.0,43.0,67,3650.0,square3,r,0.009,2,N,4.0
NS4,60.0,40.0,25.0,72.0,46.0,72,3722.0,square3,r,0.049,2,N,4.0
NS4,61.0,39.0,32.0,63.0,43.0,63,3785.0,square3,r,0.026,2,N,4.0
NS4,62.0,39.0,29.0,61.0,39.0,61,3846.0,square3,r,0.144,2,N,4.0
NS4,63.0,41.0,28.0,59.0,40.0,59,3905.0,square3,r,0.129,2,N,4.0
NS4,64.0,41.0,31.0,57.0,51.0,57,3962.0,square3,r,0.34,2,N,4.0
NS4,65.0,46.0,36.0,59.0,58.0,58,4020.0,square4,f,0.188,3,N,4.0
NS4,66.0,45.0,36.0,53.0,46.0,46,4066.0,square4,f,0.774,3,N,4.0
NS4,67.0,40.0,34.0,49.0,46.0,49,4115.0,square3,r,0.174,2,N,4.0
NS4,68.0,43.0,37.0,48.0,48.0,48,4163.0,square3,r,0.331,2,N,4.0
NS4,69.0,42.0,36.0,44.0,56.0,44,4207.0,square3,r,0.233,2,N,4.0
NS4,70.0,40.0,38.0,47.0,58.0,58,4265.0,square4,f,0.015,3,N,4.0
NS4,71.0,36.0,34.0,42.0,63.0,63,4328.0,square4,f,0.04,3,N,4.0
NS4,72.0,38.0,36.0,36.0,66.0,66,4394.0,square4,f,0.029,3,N,4.0
NS4,73.0,36.0,40.0,40.0,66.0,66,4460.0,square4,f,0.066,3,N,4.0
NS4,74.0,31.0,38.0,46.0,67.0,67,4527.0,square4,f,0.14,3,N,4.0
NS4,75.0,40.0,33.0,42.0,64.0,64,4591.0,square4,f,0.136,3,N,4.0
NS4,76.0,38.0,35.0,42.0,64.0,64,4655.0,square4,f,0.082,3,N,4.0
NS4,77.0,40.0,35.0,39.0,66.0,66,4721.0,square4,f,0.142,3,N,4.0
NS4,78.0,40.0,33.0,38.0,68.0,68,4789.0,square4,f,0.056,3,N,4.0
NS4,79.0,40.0,38.0,31.0,70.0,70,4859.0,square4,f,0.001,3,N,4.0
NS4,80.0,37.0,35.0,33.0,73.0,73,4932.0,square4,f,0.126,3,N,4.0
NS4,81.0,34.0,35.0,30.0,70.0,70,5002.0,square4,f,0.095,3,N,4.0
NS4,82.0,35.0,37.0,31.0,66.0,66,5068.0,square4,f,0.078,3,N,4.0
NS4,83.0,42.0,32.0,28.0,67.0,67,5135.0,square4,f,0.212,3,N,4.0
NS4,84.0,38.0,35.0,30.0,68.0,68,5203.0,square4,f,0.144,3,N,4.0
NS4,85.0,43.0,35.0,32.0,64.0,43,5246.0,square1,j,0.092,0,N,4.0
NS4,86.0,49.0,35.0,32.0,70.0,35,5281.0,square2,i,0.384,1,N,4.0
NS4,87.0,48.0,34.0,32.0,69.0,32,5313.0,square3,r,0.045,2,N,4.0
NS4,88.0,50.0,35.0,30.0,64.0,64,5377.0,square4,f,0.108,3,N,4.0
NS4,89.0,48.0,34.0,32.0,68.0,68,5445.0,square4,f,0.001,3,N,4.0
NS4,90.0,53.0,29.0,27.0,68.0,68,5513.0,square4,f,0.001,3,N,4.0
NS4,91.0,54.0,27.0,34.0,68.0,68,5581.0,square4,f,0.001,3,N,4.0
NS4,92.0,52.0,20.0,35.0,69.0,69,5650.0,square4,f,0.027,3,N,4.0
NS4,93.0,42.0,15.0,33.0,68.0,68,5718.0,square4,f,0.392,3,N,4.0
NS4,94.0,40.0,24.0,37.0,72.0,72,5790.0,square4,f,0.491,3,N,4.0
NS4,95.0,43.0,25.0,43.0,69.0,69,5859.0,square4,f,0.411,3,N,4.0
NS4,96.0,41.0,29.0,43.0,74.0,74,5933.0,square4,f,0.224,3,N,4.0
NS4,97.0,46.0,32.0,42.0,78.0,78,6011.0,square4,f,0.246,3,N,4.0
NS4,98.0,48.0,26.0,46.0,75.0,75,6086.0,square4,f,0.615,3,N,4.0
NS4,99.0,46.0,27.0,45.0,71.0,71,6157.0,square4,f,1.589,3,N,4.0
NS10,0.0,61.0,42.0,19.0,80.0,19,19.0,square3,i,0.648,2,N,10.0
NS10,1.0,62.0,41.0,25.0,78.0,41,60.0,square2,j,0.183,1,N,10.0
NS10,2.0,64.0,42.0,22.0,80.0,64,124.0,square1,f,0.531,0,N,10.0
NS10,3.0,66.0,50.0,21.0,73.0,73,197.0,square4,r,0.258,3,N,10.0
NS10,4.0,65.0,48.0,19.0,80.0,80,277.0,square4,r,0.0,3,N,10.0
NS10,5.0,66.0,48.0,23.0,75.0,75,352.0,square4,r,0.091,3,N,10.0
NS10,6.0,60.0,47.0,26.0,77.0,77,429.0,square4,r,0.015,3,N,10.0
NS10,7.0,66.0,43.0,25.0,81.0,81,510.0,square4,r,0.225,3,N,10.0
NS10,8.0,72.0,42.0,23.0,80.0,80,590.0,square4,r,0.224,3,N,10.0
NS10,9.0,66.0,45.0,21.0,81.0,81,671.0,square4,r,0.357,3,N,10.0
NS10,10.0,69.0,46.0,29.0,77.0,77,748.0,square4,r,0.23,3,N,10.0
NS10,11.0,68.0,44.0,27.0,70.0,70,818.0,square4,r,0.336,3,N,10.0
NS10,12.0,68.0,46.0,27.0,65.0,65,883.0,square4,r,0.24,3,N,10.0
NS10,13.0,67.0,50.0,23.0,65.0,23,906.0,square3,i,0.229,2,N,10.0
NS10,14.0,67.0,49.0,31.0,61.0,49,955.0,square2,j,0.112,1,N,10.0
NS10,15.0,71.0,51.0,28.0,69.0,71,1026.0,square1,f,0.136,0,N,10.0
NS10,16.0,71.0,48.0,25.0,64.0,64,1090.0,square4,r,0.393,3,N,10.0
NS10,17.0,68.0,48.0,25.0,60.0,68,1158.0,square1,f,0.19,0,N,10.0
NS10,18.0,68.0,49.0,23.0,66.0,68,1226.0,square1,f,0.058,0,N,10.0
NS10,19.0,67.0,51.0,23.0,64.0,67,1293.0,square1,f,0.181,0,N,10.0
NS10,20.0,65.0,54.0,29.0,58.0,65,1358.0,square1,f,0.223,0,N,10.0
NS10,21.0,61.0,58.0,22.0,61.0,61,1419.0,square1,f,0.14,0,N,10.0
NS10,22.0,67.0,51.0,23.0,60.0,67,1486.0,square1,f,0.157,0,N,10.0
NS10,23.0,65.0,57.0,22.0,60.0,60,1546.0,square4,r,0.002,3,N,10.0
NS10,24.0,67.0,58.0,26.0,56.0,67,1613.0,square1,f,0.026,0,N,10.0
NS10,25.0,70.0,67.0,26.0,60.0,70,1683.0,square1,f,0.177,0,N,10.0
NS10,26.0,71.0,58.0,24.0,55.0,71,1754.0,square1,f,0.523,0,N,10.0
NS10,27.0,74.0,57.0,24.0,59.0,74,1828.0,square1,f,0.457,0,N,10.0
NS10,28.0,76.0,62.0,24.0,56.0,76,1904.0,square1,f,0.546,0,N,10.0
NS10,29.0,78.0,66.0,21.0,61.0,78,1982.0,square1,f,0.267,0,N,10.0
NS10,30.0,74.0,62.0,20.0,52.0,74,2056.0,square1,f,0.042,0,N,10.0
NS10,31.0,74.0,63.0,21.0,53.0,74,2130.0,square1,f,0.199,0,N,10.0
NS10,32.0,77.0,62.0,19.0,50.0,77,2207.0,square1,f,0.348,0,N,10.0
NS10,33.0,74.0,63.0,21.0,50.0,74,2281.0,square1,f,0.341,0,N,10.0
NS10,34.0,69.0,64.0,16.0,47.0,69,2350.0,square1,f,0.191,0,N,10.0
NS10,35.0,68.0,60.0,14.0,51.0,68,2418.0,square1,f,0.282,0,N,10.0
NS10,36.0,76.0,59.0,13.0,52.0,76,2494.0,square1,f,0.333,0,N,10.0
NS10,37.0,71.0,60.0,16.0,50.0,71,2565.0,square1,f,0.247,0,N,10.0
NS10,38.0,70.0,56.0,27.0,49.0,70,2635.0,square1,f,0.308,0,N,10.0
NS10,39.0,75.0,59.0,22.0,49.0,75,2710.0,square1,f,0.256,0,N,10.0
NS10,40.0,70.0,56.0,27.0,51.0,70,2780.0,square1,f,0.291,0,N,10.0
NS10,41.0,73.0,57.0,24.0,54.0,54,2834.0,square4,r,0.308,3,N,10.0
NS10,42.0,70.0,58.0,24.0,51.0,24,2858.0,square3,i,0.748,2,N,10.0
NS10,43.0,70.0,60.0,26.0,45.0,60,2918.0,square2,j,0.292,1,N,10.0
NS10,44.0,68.0,58.0,27.0,53.0,68,2986.0,square1,f,0.094,0,N,10.0
NS10,45.0,70.0,61.0,31.0,49.0,70,3056.0,square1,f,0.176,0,N,10.0
NS10,46.0,65.0,60.0,29.0,43.0,65,3121.0,square1,f,0.145,0,N,10.0
NS10,47.0,65.0,61.0,32.0,44.0,65,3186.0,square1,f,0.125,0,N,10.0
NS10,48.0,67.0,58.0,31.0,46.0,67,3253.0,square1,f,0.178,0,N,10.0
NS10,49.0,76.0,55.0,38.0,43.0,76,3329.0,square1,f,0.012,0,N,10.0
NS10,50.0,74.0,65.0,36.0,40.0,74,3403.0,square1,f,0.029,0,N,10.0
NS10,51.0,74.0,58.0,34.0,40.0,74,3477.0,square1,f,0.249,0,N,10.0
NS10,52.0,69.0,65.0,28.0,43.0,69,3546.0,square1,f,0.257,0,N,10.0
NS10,53.0,69.0,65.0,32.0,40.0,69,3615.0,square1,f,0.325,0,N,10.0
NS10,54.0,72.0,61.0,32.0,41.0,72,3687.0,square1,f,0.441,0,N,10.0
NS10,55.0,65.0,64.0,36.0,33.0,65,3752.0,square1,f,0.418,0,N,10.0
NS10,56.0,75.0,64.0,37.0,37.0,75,3827.0,square1,f,0.218,0,N,10.0
NS10,57.0,72.0,62.0,36.0,38.0,72,3899.0,square1,f,0.357,0,N,10.0
NS10,58.0,63.0,68.0,38.0,33.0,63,3962.0,square1,f,0.126,0,N,10.0
NS10,59.0,65.0,64.0,43.0,34.0,34,3996.0,square4,r,0.28,3,N,10.0
NS10,60.0,62.0,64.0,51.0,40.0,51,4047.0,square3,i,0.447,2,N,10.0
NS10,61.0,61.0,65.0,45.0,38.0,65,4112.0,square2,j,0.123,1,N,10.0
NS10,62.0,66.0,63.0,41.0,37.0,66,4178.0,square1,f,0.027,0,N,10.0
NS10,63.0,67.0,62.0,45.0,41.0,67,4245.0,square1,f,0.144,0,N,10.0
NS10,64.0,72.0,60.0,44.0,36.0,72,4317.0,square1,f,0.311,0,N,10.0
NS10,65.0,73.0,65.0,42.0,39.0,73,4390.0,square1,f,0.35,0,N,10.0
NS10,66.0,72.0,67.0,45.0,43.0,72,4462.0,square1,f,0.291,0,N,10.0
NS10,67.0,66.0,70.0,44.0,40.0,66,4528.0,square1,f,0.075,0,N,10.0
NS10,68.0,61.0,69.0,45.0,44.0,61,4589.0,square1,f,0.346,0,N,10.0
NS10,69.0,64.0,68.0,42.0,43.0,64,4653.0,square1,f,0.215,0,N,10.0
NS10,70.0,66.0,72.0,41.0,42.0,72,4725.0,square2,j,0.348,1,N,10.0
NS10,71.0,64.0,72.0,46.0,45.0,72,4797.0,square2,j,0.377,1,N,10.0
NS10,72.0,64.0,69.0,44.0,39.0,69,4866.0,square2,j,0.516,1,N,10.0
NS10,73.0,60.0,74.0,48.0,45.0,74,4940.0,square2,j,0.155,1,N,10.0
NS10,74.0,57.0,75.0,48.0,41.0,75,5015.0,square2,j,0.174,1,N,10.0
NS10,75.0,66.0,75.0,46.0,40.0,75,5090.0,square2,j,0.413,1,N,10.0
NS10,76.0,63.0,77.0,46.0,40.0,77,5167.0,square2,j,0.168,1,N,10.0
NS10,77.0,62.0,74.0,43.0,34.0,74,5241.0,square2,j,0.42,1,N,10.0
NS10,78.0,60.0,71.0,48.0,33.0,71,5312.0,square2,j,0.277,1,N,10.0
NS10,79.0,63.0,68.0,47.0,29.0,29,5341.0,square4,r,0.107,3,N,10.0
NS10,80.0,54.0,71.0,42.0,32.0,42,5383.0,square3,i,1.274,2,N,10.0
NS10,81.0,52.0,72.0,44.0,30.0,52,5435.0,square1,f,0.363,0,N,10.0
NS10,82.0,51.0,77.0,41.0,31.0,77,5512.0,square2,j,0.341,1,N,10.0
NS10,83.0,52.0,63.0,41.0,35.0,63,5575.0,square2,j,0.02,1,N,10.0
NS10,84.0,48.0,70.0,37.0,34.0,70,5645.0,square2,j,0.091,1,N,10.0
NS10,85.0,51.0,73.0,38.0,30.0,73,5718.0,square2,j,0.293,1,N,10.0
NS10,86.0,55.0,79.0,45.0,27.0,79,5797.0,square2,j,0.027,1,N,10.0
NS10,87.0,54.0,83.0,47.0,21.0,83,5880.0,square2,j,0.457,1,N,10.0
NS10,88.0,59.0,78.0,45.0,21.0,78,5958.0,square2,j,0.358,1,N,10.0
NS10,89.0,60.0,74.0,45.0,21.0,74,6032.0,square2,j,0.104,1,N,10.0
NS10,90.0,55.0,71.0,50.0,18.0,71,6103.0,square2,j,0.03,1,N,10.0
NS10,91.0,56.0,71.0,46.0,14.0,99999,6103.0,invalid,,,-1,N,10.0
NS10,92.0,59.0,70.0,46.0,20.0,70,6173.0,square2,j,0.028,1,N,10.0
NS10,93.0,65.0,72.0,46.0,21.0,72,6245.0,square2,j,0.127,1,N,10.0
NS10,94.0,63.0,68.0,46.0,20.0,99999,6245.0,invalid,,,-1,N,10.0
NS10,95.0,69.0,70.0,48.0,22.0,70,6315.0,square2,j,0.103,1,N,10.0
NS10,96.0,68.0,69.0,45.0,27.0,69,6384.0,square2,j,0.374,1,N,10.0
NS10,97.0,74.0,69.0,43.0,35.0,69,6453.0,square2,j,0.002,1,N,10.0
NS10,98.0,73.0,68.0,43.0,30.0,68,6521.0,square2,j,0.341,1,N,10.0
NS10,99.0,70.0,61.0,39.0,32.0,61,6582.0,square2,j,0.311,1,N,10.0
