block,Trial,square1,square2,square3,square4,currPoints,totalPoints,square,choiceKey.keys,choiceKey.rt,armNum,blockType,blockNum
prac,0.0,100.0,0.0,0.0,0.0,0.0,0.0,square2,,,1,p,0.0
prac,1.0,100.0,0.0,0.0,0.0,100.0,100.0,square1,,,0,p,0.0
prac,2.0,100.0,0.0,0.0,0.0,100.0,200.0,square1,,,0,p,0.0
prac,3.0,100.0,0.0,0.0,0.0,100.0,300.0,square1,,,0,p,0.0
prac,4.0,100.0,0.0,0.0,0.0,0.0,300.0,square3,,,2,p,0.0
prac,5.0,100.0,0.0,0.0,0.0,0.0,300.0,square4,,,3,p,0.0
prac,6.0,100.0,0.0,0.0,0.0,100.0,400.0,square1,,,0,p,0.0
prac,7.0,100.0,0.0,0.0,0.0,100.0,500.0,square1,,,0,p,0.0
prac,8.0,100.0,0.0,0.0,0.0,100.0,600.0,square1,,,0,p,0.0
prac,9.0,100.0,0.0,0.0,0.0,100.0,700.0,square1,,,0,p,0.0
NS1,0.0,60.0,65.0,21.0,53.0,21.0,21.0,square3,r,0.878,2,N,1.0
NS1,1.0,56.0,62.0,31.0,51.0,51.0,72.0,square4,i,0.281,3,N,1.0
NS1,2.0,58.0,62.0,24.0,57.0,62.0,134.0,square2,j,0.311,1,N,1.0
NS1,3.0,56.0,58.0,33.0,58.0,56.0,190.0,square1,f,0.327,0,N,1.0
NS1,4.0,60.0,58.0,32.0,58.0,58.0,248.0,square2,j,0.234,1,N,1.0
NS1,5.0,56.0,59.0,31.0,54.0,54.0,302.0,square4,i,0.318,3,N,1.0
NS1,6.0,58.0,57.0,37.0,56.0,58.0,360.0,square1,f,0.282,0,N,1.0
NS1,7.0,57.0,53.0,37.0,57.0,57.0,417.0,square1,f,0.452,0,N,1.0
NS1,8.0,58.0,57.0,37.0,54.0,57.0,474.0,square2,j,0.688,1,N,1.0
NS1,9.0,53.0,50.0,36.0,55.0,36.0,510.0,square3,r,0.179,2,N,1.0
NS1,10.0,58.0,47.0,32.0,53.0,47.0,557.0,square2,j,0.332,1,N,1.0
NS1,11.0,55.0,44.0,34.0,53.0,53.0,610.0,square4,i,0.379,3,N,1.0
NS1,12.0,56.0,44.0,30.0,45.0,56.0,666.0,square1,f,0.069,0,N,1.0
NS1,13.0,60.0,47.0,34.0,48.0,60.0,726.0,square1,f,0.253,0,N,1.0
NS1,14.0,54.0,48.0,37.0,54.0,54.0,780.0,square1,f,0.296,0,N,1.0
NS1,15.0,53.0,44.0,35.0,51.0,44.0,824.0,square2,j,0.436,1,N,1.0
NS1,16.0,50.0,50.0,35.0,43.0,43.0,867.0,square4,i,0.293,3,N,1.0
NS1,17.0,53.0,46.0,35.0,44.0,53.0,920.0,square1,f,0.246,0,N,1.0
NS1,18.0,54.0,51.0,42.0,48.0,42.0,962.0,square3,r,0.045,2,N,1.0
NS1,19.0,62.0,51.0,44.0,53.0,51.0,1013.0,square2,j,0.244,1,N,1.0
NS1,20.0,63.0,47.0,42.0,47.0,47.0,1060.0,square4,i,0.106,3,N,1.0
NS1,21.0,67.0,51.0,41.0,46.0,67.0,1127.0,square1,f,0.362,0,N,1.0
NS1,22.0,75.0,44.0,45.0,43.0,75.0,1202.0,square1,f,0.396,0,N,1.0
NS1,23.0,64.0,42.0,41.0,47.0,64.0,1266.0,square1,f,0.299,0,N,1.0
NS1,24.0,68.0,41.0,39.0,49.0,41.0,1307.0,square2,j,0.228,1,N,1.0
NS1,25.0,71.0,43.0,33.0,42.0,42.0,1349.0,square4,i,0.095,3,N,1.0
NS1,26.0,70.0,41.0,26.0,45.0,26.0,1375.0,square3,r,0.298,2,N,1.0
NS1,27.0,72.0,42.0,34.0,48.0,72.0,1447.0,square1,f,0.097,0,N,1.0
NS1,28.0,71.0,41.0,33.0,45.0,71.0,1518.0,square1,f,0.231,0,N,1.0
NS1,29.0,77.0,42.0,31.0,48.0,77.0,1595.0,square1,f,0.277,0,N,1.0
NS1,30.0,73.0,41.0,33.0,51.0,73.0,1668.0,square1,f,0.278,0,N,1.0
NS1,31.0,71.0,44.0,35.0,48.0,71.0,1739.0,square1,f,0.273,0,N,1.0
NS1,32.0,81.0,47.0,33.0,50.0,81.0,1820.0,square1,f,0.345,0,N,1.0
NS1,33.0,75.0,50.0,27.0,42.0,75.0,1895.0,square1,f,0.28,0,N,1.0
NS1,34.0,71.0,49.0,27.0,44.0,71.0,1966.0,square1,f,0.178,0,N,1.0
NS1,35.0,69.0,47.0,23.0,47.0,69.0,2035.0,square1,f,0.214,0,N,1.0
NS1,36.0,71.0,50.0,32.0,45.0,71.0,2106.0,square1,f,0.445,0,N,1.0
NS1,37.0,66.0,48.0,33.0,52.0,66.0,2172.0,square1,f,0.199,0,N,1.0
NS1,38.0,64.0,50.0,34.0,51.0,50.0,2222.0,square2,j,0.305,1,N,1.0
NS1,39.0,65.0,49.0,25.0,47.0,65.0,2287.0,square1,f,0.315,0,N,1.0
NS1,40.0,66.0,46.0,23.0,50.0,50.0,2337.0,square4,i,0.414,3,N,1.0
NS1,41.0,68.0,45.0,22.0,50.0,68.0,2405.0,square1,f,0.2,0,N,1.0
NS1,42.0,74.0,41.0,28.0,50.0,74.0,2479.0,square1,f,0.318,0,N,1.0
NS1,43.0,69.0,42.0,27.0,52.0,69.0,2548.0,square1,f,0.26,0,N,1.0
NS1,44.0,71.0,38.0,32.0,49.0,71.0,2619.0,square1,f,0.337,0,N,1.0
NS1,45.0,68.0,38.0,30.0,55.0,68.0,2687.0,square1,f,0.114,0,N,1.0
NS1,46.0,66.0,39.0,30.0,56.0,66.0,2753.0,square1,f,0.451,0,N,1.0
NS1,47.0,62.0,35.0,31.0,50.0,62.0,2815.0,square1,f,0.354,0,N,1.0
NS1,48.0,68.0,31.0,32.0,49.0,68.0,2883.0,square1,f,0.294,0,N,1.0
NS1,49.0,66.0,33.0,35.0,46.0,66.0,2949.0,square1,f,0.253,0,N,1.0
NS1,50.0,64.0,30.0,32.0,46.0,32.0,2981.0,square3,r,0.33,2,N,1.0
NS1,51.0,66.0,35.0,39.0,43.0,66.0,3047.0,square1,f,0.248,0,N,1.0
NS1,52.0,67.0,33.0,37.0,49.0,67.0,3114.0,square1,f,0.307,0,N,1.0
NS1,53.0,70.0,32.0,35.0,47.0,70.0,3184.0,square1,f,0.284,0,N,1.0
NS1,54.0,62.0,40.0,28.0,43.0,62.0,3246.0,square1,f,0.233,0,N,1.0
NS1,55.0,66.0,39.0,26.0,43.0,66.0,3312.0,square1,f,0.234,0,N,1.0
NS1,56.0,64.0,38.0,26.0,44.0,38.0,3350.0,square2,j,0.269,1,N,1.0
NS1,57.0,63.0,41.0,24.0,48.0,48.0,3398.0,square4,i,0.299,3,N,1.0
NS1,58.0,67.0,49.0,24.0,48.0,24.0,3422.0,square3,r,0.086,2,N,1.0
NS1,59.0,57.0,51.0,27.0,43.0,57.0,3479.0,square1,f,0.032,0,N,1.0
NS1,60.0,56.0,51.0,31.0,42.0,56.0,3535.0,square1,f,0.285,0,N,1.0
NS1,61.0,55.0,50.0,25.0,49.0,55.0,3590.0,square1,f,0.376,0,N,1.0
NS1,62.0,55.0,51.0,27.0,50.0,55.0,3645.0,square1,f,0.251,0,N,1.0
NS1,63.0,53.0,51.0,27.0,50.0,53.0,3698.0,square1,f,0.136,0,N,1.0
NS1,64.0,53.0,56.0,27.0,50.0,53.0,3751.0,square1,f,0.08,0,N,1.0
NS1,65.0,49.0,56.0,26.0,49.0,49.0,3800.0,square1,f,0.0,0,N,1.0
NS1,66.0,47.0,61.0,29.0,50.0,47.0,3847.0,square1,f,0.545,0,N,1.0
NS1,67.0,47.0,56.0,27.0,50.0,47.0,3894.0,square1,f,0.23,0,N,1.0
NS1,68.0,47.0,64.0,29.0,48.0,47.0,3941.0,square1,f,0.28,0,N,1.0
NS1,69.0,54.0,67.0,24.0,53.0,67.0,4008.0,square2,j,0.232,1,N,1.0
NS1,70.0,44.0,70.0,21.0,48.0,70.0,4078.0,square2,j,0.245,1,N,1.0
NS1,71.0,45.0,67.0,26.0,52.0,67.0,4145.0,square2,j,0.111,1,N,1.0
NS1,72.0,44.0,64.0,22.0,49.0,64.0,4209.0,square2,j,0.45,1,N,1.0
NS1,73.0,43.0,60.0,23.0,51.0,60.0,4269.0,square2,j,0.215,1,N,1.0
NS1,74.0,47.0,59.0,26.0,57.0,59.0,4328.0,square2,j,0.28,1,N,1.0
NS1,75.0,44.0,56.0,27.0,51.0,56.0,4384.0,square2,j,0.104,1,N,1.0
NS1,76.0,34.0,55.0,21.0,52.0,55.0,4439.0,square2,j,0.247,1,N,1.0
NS1,77.0,39.0,64.0,17.0,55.0,55.0,4494.0,square4,i,0.183,3,N,1.0
NS1,78.0,38.0,64.0,25.0,52.0,52.0,4546.0,square4,i,0.245,3,N,1.0
NS1,79.0,40.0,65.0,24.0,54.0,24.0,4570.0,square3,r,0.153,2,N,1.0
NS1,80.0,44.0,66.0,21.0,53.0,44.0,4614.0,square1,f,0.082,0,N,1.0
NS1,81.0,50.0,60.0,27.0,54.0,60.0,4674.0,square2,j,0.137,1,N,1.0
NS1,82.0,43.0,62.0,20.0,57.0,62.0,4736.0,square2,j,0.295,1,N,1.0
NS1,83.0,44.0,55.0,24.0,59.0,55.0,4791.0,square2,j,0.113,1,N,1.0
NS1,84.0,41.0,51.0,28.0,61.0,51.0,4842.0,square2,j,0.249,1,N,1.0
NS1,85.0,49.0,49.0,29.0,70.0,49.0,4891.0,square2,j,0.133,1,N,1.0
NS1,86.0,47.0,44.0,26.0,66.0,44.0,4935.0,square2,j,1.079,1,N,1.0
NS1,87.0,48.0,48.0,23.0,68.0,68.0,5003.0,square4,i,0.46,3,N,1.0
NS1,88.0,46.0,51.0,20.0,70.0,70.0,5073.0,square4,i,0.213,3,N,1.0
NS1,89.0,45.0,50.0,17.0,75.0,75.0,5148.0,square4,i,0.281,3,N,1.0
NS1,90.0,50.0,48.0,18.0,74.0,74.0,5222.0,square4,i,0.23,3,N,1.0
NS1,91.0,46.0,53.0,17.0,67.0,67.0,5289.0,square4,i,0.141,3,N,1.0
NS1,92.0,38.0,56.0,22.0,65.0,65.0,5354.0,square4,i,0.019,3,N,1.0
NS1,93.0,38.0,53.0,22.0,66.0,66.0,5420.0,square4,i,0.651,3,N,1.0
NS1,94.0,42.0,49.0,24.0,72.0,72.0,5492.0,square4,i,0.214,3,N,1.0
NS1,95.0,44.0,48.0,25.0,70.0,70.0,5562.0,square4,i,0.246,3,N,1.0
NS1,96.0,35.0,50.0,21.0,67.0,67.0,5629.0,square4,i,0.055,3,N,1.0
NS1,97.0,43.0,55.0,16.0,72.0,72.0,5701.0,square4,i,0.367,3,N,1.0
NS1,98.0,46.0,50.0,21.0,73.0,73.0,5774.0,square4,i,0.115,3,N,1.0
NS1,99.0,43.0,46.0,27.0,71.0,71.0,5845.0,square4,i,0.298,3,N,1.0
NS3,0.0,52.0,26.0,68.0,52.0,26.0,26.0,square2,i,1.058,1,N,3.0
NS3,1.0,57.0,23.0,69.0,48.0,69.0,95.0,square3,j,0.385,2,N,3.0
NS3,2.0,59.0,26.0,70.0,52.0,70.0,165.0,square3,j,0.731,2,N,3.0
NS3,3.0,57.0,24.0,70.0,52.0,52.0,217.0,square4,f,0.278,3,N,3.0
NS3,4.0,59.0,30.0,74.0,49.0,59.0,276.0,square1,r,0.207,0,N,3.0
NS3,5.0,55.0,24.0,67.0,51.0,67.0,343.0,square3,j,0.125,2,N,3.0
NS3,6.0,54.0,27.0,73.0,55.0,73.0,416.0,square3,j,0.362,2,N,3.0
NS3,7.0,55.0,28.0,66.0,43.0,66.0,482.0,square3,j,0.25,2,N,3.0
NS3,8.0,57.0,30.0,65.0,45.0,65.0,547.0,square3,j,0.226,2,N,3.0
NS3,9.0,53.0,33.0,54.0,37.0,54.0,601.0,square3,j,0.229,2,N,3.0
NS3,10.0,46.0,27.0,54.0,43.0,54.0,655.0,square3,j,0.228,2,N,3.0
NS3,11.0,48.0,31.0,58.0,51.0,51.0,706.0,square4,f,0.148,3,N,3.0
NS3,12.0,50.0,27.0,54.0,53.0,50.0,756.0,square1,r,0.083,0,N,3.0
NS3,13.0,49.0,28.0,62.0,50.0,28.0,784.0,square2,i,0.243,1,N,3.0
NS3,14.0,53.0,28.0,62.0,52.0,52.0,836.0,square4,f,0.237,3,N,3.0
NS3,15.0,52.0,25.0,57.0,57.0,57.0,893.0,square3,j,0.035,2,N,3.0
NS3,16.0,48.0,29.0,56.0,56.0,56.0,949.0,square3,j,0.232,2,N,3.0
NS3,17.0,39.0,21.0,58.0,56.0,39.0,988.0,square1,r,0.395,0,N,3.0
NS3,18.0,40.0,23.0,58.0,60.0,58.0,1046.0,square3,j,0.052,2,N,3.0
NS3,19.0,40.0,26.0,63.0,58.0,63.0,1109.0,square3,j,0.294,2,N,3.0
NS3,20.0,46.0,24.0,60.0,56.0,60.0,1169.0,square3,j,0.231,2,N,3.0
NS3,21.0,42.0,27.0,61.0,55.0,61.0,1230.0,square3,j,0.176,2,N,3.0
NS3,22.0,45.0,26.0,62.0,56.0,62.0,1292.0,square3,j,0.181,2,N,3.0
NS3,23.0,39.0,21.0,64.0,60.0,64.0,1356.0,square3,j,0.181,2,N,3.0
NS3,24.0,44.0,21.0,59.0,64.0,59.0,1415.0,square3,j,0.1,2,N,3.0
NS3,25.0,44.0,22.0,58.0,65.0,65.0,1480.0,square4,f,0.008,3,N,3.0
NS3,26.0,42.0,26.0,60.0,62.0,62.0,1542.0,square4,f,0.013,3,N,3.0
NS3,27.0,38.0,18.0,55.0,67.0,67.0,1609.0,square4,f,0.345,3,N,3.0
NS3,28.0,41.0,23.0,56.0,60.0,60.0,1669.0,square4,f,0.25,3,N,3.0
NS3,29.0,38.0,16.0,52.0,66.0,66.0,1735.0,square4,f,0.105,3,N,3.0
NS3,30.0,36.0,13.0,61.0,64.0,64.0,1799.0,square4,f,0.116,3,N,3.0
NS3,31.0,42.0,13.0,54.0,63.0,42.0,1841.0,square1,r,0.047,0,N,3.0
NS3,32.0,38.0,18.0,50.0,62.0,18.0,1859.0,square2,i,0.179,1,N,3.0
NS3,33.0,29.0,20.0,51.0,64.0,51.0,1910.0,square3,j,0.015,2,N,3.0
NS3,34.0,32.0,21.0,45.0,63.0,63.0,1973.0,square4,f,0.399,3,N,3.0
NS3,35.0,30.0,17.0,46.0,65.0,65.0,2038.0,square4,f,0.254,3,N,3.0
NS3,36.0,35.0,16.0,47.0,69.0,69.0,2107.0,square4,f,0.178,3,N,3.0
NS3,37.0,34.0,18.0,45.0,68.0,68.0,2175.0,square4,f,0.149,3,N,3.0
NS3,38.0,40.0,14.0,50.0,74.0,74.0,2249.0,square4,f,0.284,3,N,3.0
NS3,39.0,39.0,15.0,49.0,73.0,73.0,2322.0,square4,f,0.083,3,N,3.0
NS3,40.0,42.0,15.0,51.0,74.0,74.0,2396.0,square4,f,1.018,3,N,3.0
NS3,41.0,38.0,17.0,43.0,74.0,74.0,2470.0,square4,f,0.218,3,N,3.0
NS3,42.0,36.0,16.0,46.0,74.0,74.0,2544.0,square4,f,0.165,3,N,3.0
NS3,43.0,41.0,21.0,44.0,76.0,76.0,2620.0,square4,f,0.311,3,N,3.0
NS3,44.0,41.0,26.0,35.0,70.0,70.0,2690.0,square4,f,0.0,3,N,3.0
NS3,45.0,39.0,27.0,33.0,75.0,75.0,2765.0,square4,f,0.113,3,N,3.0
NS3,46.0,45.0,25.0,38.0,77.0,77.0,2842.0,square4,f,0.166,3,N,3.0
NS3,47.0,41.0,20.0,34.0,76.0,76.0,2918.0,square4,f,0.021,3,N,3.0
NS3,48.0,37.0,25.0,34.0,77.0,77.0,2995.0,square4,f,0.398,3,N,3.0
NS3,49.0,41.0,18.0,40.0,78.0,78.0,3073.0,square4,f,0.195,3,N,3.0
NS3,50.0,42.0,17.0,41.0,83.0,83.0,3156.0,square4,f,0.246,3,N,3.0
NS3,51.0,53.0,18.0,39.0,83.0,83.0,3239.0,square4,f,0.233,3,N,3.0
NS3,52.0,55.0,19.0,34.0,82.0,82.0,3321.0,square4,f,0.212,3,N,3.0
NS3,53.0,52.0,17.0,39.0,77.0,77.0,3398.0,square4,f,0.246,3,N,3.0
NS3,54.0,55.0,21.0,46.0,77.0,77.0,3475.0,square4,f,0.396,3,N,3.0
NS3,55.0,48.0,21.0,49.0,75.0,75.0,3550.0,square4,f,0.116,3,N,3.0
NS3,56.0,50.0,25.0,51.0,74.0,74.0,3624.0,square4,f,0.145,3,N,3.0
NS3,57.0,54.0,23.0,46.0,66.0,66.0,3690.0,square4,f,0.167,3,N,3.0
NS3,58.0,60.0,25.0,50.0,72.0,50.0,3740.0,square3,j,0.183,2,N,3.0
NS3,59.0,54.0,23.0,46.0,72.0,72.0,3812.0,square4,f,0.266,3,N,3.0
NS3,60.0,51.0,26.0,50.0,72.0,26.0,3838.0,square2,i,0.233,1,N,3.0
NS3,61.0,57.0,27.0,54.0,71.0,57.0,3895.0,square1,r,0.281,0,N,3.0
NS3,62.0,51.0,27.0,54.0,64.0,64.0,3959.0,square4,f,0.13,3,N,3.0
NS3,63.0,54.0,25.0,42.0,62.0,62.0,4021.0,square4,f,0.049,3,N,3.0
NS3,64.0,54.0,25.0,47.0,62.0,62.0,4083.0,square4,f,0.332,3,N,3.0
NS3,65.0,48.0,26.0,45.0,60.0,60.0,4143.0,square4,f,0.129,3,N,3.0
NS3,66.0,49.0,22.0,47.0,60.0,60.0,4203.0,square4,f,0.299,3,N,3.0
NS3,67.0,49.0,26.0,45.0,65.0,65.0,4268.0,square4,f,0.189,3,N,3.0
NS3,68.0,54.0,26.0,47.0,67.0,67.0,4335.0,square4,f,0.063,3,N,3.0
NS3,69.0,48.0,22.0,45.0,56.0,56.0,4391.0,square4,f,0.253,3,N,3.0
NS3,70.0,55.0,26.0,48.0,61.0,61.0,4452.0,square4,f,0.077,3,N,3.0
NS3,71.0,55.0,29.0,43.0,60.0,60.0,4512.0,square4,f,0.115,3,N,3.0
NS3,72.0,56.0,30.0,43.0,51.0,51.0,4563.0,square4,f,0.051,3,N,3.0
NS3,73.0,55.0,27.0,47.0,56.0,47.0,4610.0,square3,j,0.0,2,N,3.0
NS3,74.0,63.0,26.0,44.0,55.0,55.0,4665.0,square4,f,0.199,3,N,3.0
NS3,75.0,61.0,34.0,45.0,62.0,62.0,4727.0,square4,f,0.14,3,N,3.0
NS3,76.0,55.0,28.0,45.0,62.0,62.0,4789.0,square4,f,0.233,3,N,3.0
NS3,77.0,58.0,31.0,53.0,66.0,66.0,4855.0,square4,f,0.091,3,N,3.0
NS3,78.0,55.0,29.0,51.0,60.0,60.0,4915.0,square4,f,0.086,3,N,3.0
NS3,79.0,51.0,29.0,52.0,68.0,68.0,4983.0,square4,f,0.233,3,N,3.0
NS3,80.0,55.0,31.0,48.0,59.0,59.0,5042.0,square4,f,0.031,3,N,3.0
NS3,81.0,56.0,38.0,56.0,64.0,64.0,5106.0,square4,f,0.078,3,N,3.0
NS3,82.0,54.0,27.0,54.0,55.0,55.0,5161.0,square4,f,0.048,3,N,3.0
NS3,83.0,62.0,30.0,49.0,58.0,58.0,5219.0,square4,f,0.032,3,N,3.0
NS3,84.0,64.0,24.0,47.0,62.0,62.0,5281.0,square4,f,0.0,3,N,3.0
NS3,85.0,65.0,23.0,54.0,63.0,63.0,5344.0,square4,f,0.233,3,N,3.0
NS3,86.0,68.0,25.0,56.0,65.0,56.0,5400.0,square3,j,0.314,2,N,3.0
NS3,87.0,65.0,22.0,55.0,60.0,22.0,5422.0,square2,i,0.25,1,N,3.0
NS3,88.0,64.0,20.0,58.0,65.0,64.0,5486.0,square1,r,0.367,0,N,3.0
NS3,89.0,68.0,13.0,62.0,64.0,68.0,5554.0,square1,r,0.486,0,N,3.0
NS3,90.0,72.0,13.0,52.0,64.0,72.0,5626.0,square1,r,0.045,0,N,3.0
NS3,91.0,67.0,20.0,52.0,69.0,67.0,5693.0,square1,r,0.029,0,N,3.0
NS3,92.0,72.0,21.0,58.0,64.0,72.0,5765.0,square1,r,0.098,0,N,3.0
NS3,93.0,73.0,16.0,54.0,67.0,73.0,5838.0,square1,r,0.147,0,N,3.0
NS3,94.0,69.0,17.0,51.0,64.0,64.0,5902.0,square4,f,0.313,3,N,3.0
NS3,95.0,62.0,19.0,60.0,62.0,62.0,5964.0,square1,r,0.065,0,N,3.0
NS3,96.0,67.0,15.0,56.0,67.0,67.0,6031.0,square1,r,0.222,0,N,3.0
NS3,97.0,61.0,17.0,58.0,62.0,61.0,6092.0,square1,r,0.084,0,N,3.0
NS3,98.0,59.0,13.0,58.0,58.0,59.0,6151.0,square1,r,0.047,0,N,3.0
NS3,99.0,62.0,15.0,51.0,60.0,60.0,6211.0,square4,f,0.5,3,N,3.0
NS12,0.0,80.0,24.0,40.0,79.0,79.0,79.0,square4,j,1.16,3,N,12.0
NS12,1.0,78.0,28.0,44.0,78.0,78.0,157.0,square1,f,0.251,0,N,12.0
NS12,2.0,77.0,28.0,37.0,82.0,28.0,185.0,square2,r,0.244,1,N,12.0
NS12,3.0,76.0,33.0,39.0,82.0,39.0,224.0,square3,i,0.052,2,N,12.0
NS12,4.0,79.0,37.0,34.0,78.0,78.0,302.0,square4,j,0.011,3,N,12.0
NS12,5.0,83.0,33.0,28.0,81.0,83.0,385.0,square1,f,0.148,0,N,12.0
NS12,6.0,77.0,39.0,33.0,80.0,77.0,462.0,square1,f,0.233,0,N,12.0
NS12,7.0,77.0,40.0,25.0,85.0,85.0,547.0,square4,j,0.263,3,N,12.0
NS12,8.0,77.0,40.0,29.0,87.0,77.0,624.0,square1,f,0.233,0,N,12.0
NS12,9.0,70.0,42.0,29.0,88.0,70.0,694.0,square1,f,0.254,0,N,12.0
NS12,10.0,65.0,47.0,31.0,86.0,86.0,780.0,square4,j,0.116,3,N,12.0
NS12,11.0,67.0,46.0,26.0,84.0,84.0,864.0,square4,j,0.15,3,N,12.0
NS12,12.0,67.0,36.0,26.0,84.0,84.0,948.0,square4,j,0.251,3,N,12.0
NS12,13.0,69.0,33.0,23.0,82.0,82.0,1030.0,square4,j,0.269,3,N,12.0
NS12,14.0,66.0,35.0,20.0,81.0,81.0,1111.0,square4,j,0.13,3,N,12.0
NS12,15.0,66.0,30.0,23.0,78.0,78.0,1189.0,square4,j,0.094,3,N,12.0
NS12,16.0,69.0,28.0,17.0,74.0,69.0,1258.0,square1,f,0.148,0,N,12.0
NS12,17.0,66.0,32.0,20.0,78.0,78.0,1336.0,square4,j,0.176,3,N,12.0
NS12,18.0,60.0,33.0,26.0,76.0,76.0,1412.0,square4,j,0.07,3,N,12.0
NS12,19.0,63.0,37.0,23.0,76.0,76.0,1488.0,square4,j,0.03,3,N,12.0
NS12,20.0,59.0,36.0,24.0,78.0,78.0,1566.0,square4,j,0.497,3,N,12.0
NS12,21.0,59.0,35.0,25.0,79.0,79.0,1645.0,square4,j,0.082,3,N,12.0
NS12,22.0,61.0,37.0,26.0,88.0,88.0,1733.0,square4,j,0.6,3,N,12.0
NS12,23.0,61.0,37.0,25.0,83.0,83.0,1816.0,square4,j,0.197,3,N,12.0
NS12,24.0,61.0,39.0,26.0,85.0,85.0,1901.0,square4,j,0.166,3,N,12.0
NS12,25.0,63.0,30.0,29.0,77.0,77.0,1978.0,square4,j,0.152,3,N,12.0
NS12,26.0,58.0,39.0,29.0,83.0,58.0,2036.0,square1,f,0.147,0,N,12.0
NS12,27.0,60.0,34.0,32.0,85.0,34.0,2070.0,square2,r,0.096,1,N,12.0
NS12,28.0,63.0,32.0,35.0,77.0,35.0,2105.0,square3,i,0.129,2,N,12.0
NS12,29.0,61.0,35.0,23.0,79.0,79.0,2184.0,square4,j,0.083,3,N,12.0
NS12,30.0,57.0,27.0,30.0,69.0,69.0,2253.0,square4,j,0.249,3,N,12.0
NS12,31.0,64.0,29.0,26.0,69.0,69.0,2322.0,square4,j,0.0,3,N,12.0
NS12,32.0,65.0,29.0,33.0,69.0,65.0,2387.0,square1,f,0.267,0,N,12.0
NS12,33.0,68.0,29.0,33.0,73.0,73.0,2460.0,square4,j,0.299,3,N,12.0
NS12,34.0,69.0,29.0,29.0,67.0,67.0,2527.0,square4,j,0.212,3,N,12.0
NS12,35.0,66.0,32.0,30.0,61.0,61.0,2588.0,square4,j,0.217,3,N,12.0
NS12,36.0,64.0,27.0,26.0,58.0,58.0,2646.0,square4,j,0.199,3,N,12.0
NS12,37.0,65.0,32.0,27.0,67.0,67.0,2713.0,square4,j,0.303,3,N,12.0
NS12,38.0,63.0,32.0,30.0,64.0,64.0,2777.0,square4,j,0.065,3,N,12.0
NS12,39.0,65.0,30.0,30.0,70.0,70.0,2847.0,square4,j,0.176,3,N,12.0
NS12,40.0,71.0,37.0,32.0,69.0,69.0,2916.0,square4,j,0.05,3,N,12.0
NS12,41.0,66.0,45.0,37.0,69.0,69.0,2985.0,square4,j,0.212,3,N,12.0
NS12,42.0,75.0,42.0,35.0,65.0,65.0,3050.0,square4,j,0.251,3,N,12.0
NS12,43.0,82.0,39.0,35.0,57.0,57.0,3107.0,square4,j,0.233,3,N,12.0
NS12,44.0,81.0,34.0,34.0,61.0,81.0,3188.0,square1,f,0.238,0,N,12.0
NS12,45.0,74.0,33.0,36.0,59.0,74.0,3262.0,square1,f,0.161,0,N,12.0
NS12,46.0,77.0,32.0,40.0,57.0,77.0,3339.0,square1,f,0.081,0,N,12.0
NS12,47.0,79.0,32.0,39.0,60.0,79.0,3418.0,square1,f,0.048,0,N,12.0
NS12,48.0,80.0,28.0,34.0,62.0,80.0,3498.0,square1,f,0.054,0,N,12.0
NS12,49.0,76.0,23.0,37.0,64.0,76.0,3574.0,square1,f,0.047,0,N,12.0
NS12,50.0,75.0,25.0,37.0,65.0,75.0,3649.0,square1,f,0.001,0,N,12.0
NS12,51.0,74.0,25.0,39.0,70.0,74.0,3723.0,square1,f,0.013,0,N,12.0
NS12,52.0,79.0,26.0,40.0,73.0,79.0,3802.0,square1,f,0.136,0,N,12.0
NS12,53.0,75.0,25.0,33.0,69.0,69.0,3871.0,square4,j,0.062,3,N,12.0
NS12,54.0,79.0,25.0,38.0,68.0,68.0,3939.0,square4,j,0.031,3,N,12.0
NS12,55.0,81.0,22.0,34.0,68.0,81.0,4020.0,square1,f,0.133,0,N,12.0
NS12,56.0,72.0,29.0,39.0,69.0,72.0,4092.0,square1,f,0.153,0,N,12.0
NS12,57.0,72.0,28.0,38.0,73.0,72.0,4164.0,square1,f,0.013,0,N,12.0
NS12,58.0,69.0,25.0,32.0,71.0,69.0,4233.0,square1,f,0.038,0,N,12.0
NS12,59.0,75.0,30.0,33.0,69.0,75.0,4308.0,square1,f,0.183,0,N,12.0
NS12,60.0,68.0,28.0,39.0,68.0,68.0,4376.0,square1,f,0.1,0,N,12.0
NS12,61.0,69.0,32.0,37.0,60.0,69.0,4445.0,square1,f,0.018,0,N,12.0
NS12,62.0,63.0,37.0,39.0,55.0,63.0,4508.0,square1,f,0.172,0,N,12.0
NS12,63.0,63.0,38.0,43.0,54.0,54.0,4562.0,square4,j,0.083,3,N,12.0
NS12,64.0,60.0,30.0,35.0,55.0,30.0,4592.0,square2,r,0.063,1,N,12.0
NS12,65.0,60.0,37.0,34.0,55.0,34.0,4626.0,square3,i,0.232,2,N,12.0
NS12,66.0,61.0,40.0,35.0,51.0,61.0,4687.0,square1,f,0.02,0,N,12.0
NS12,67.0,65.0,37.0,35.0,53.0,53.0,4740.0,square4,j,0.082,3,N,12.0
NS12,68.0,62.0,33.0,38.0,50.0,62.0,4802.0,square1,f,0.148,0,N,12.0
NS12,69.0,56.0,41.0,29.0,54.0,56.0,4858.0,square1,f,0.062,0,N,12.0
NS12,70.0,56.0,39.0,30.0,57.0,56.0,4914.0,square1,f,0.05,0,N,12.0
NS12,71.0,61.0,40.0,33.0,64.0,61.0,4975.0,square1,f,0.417,0,N,12.0
NS12,72.0,51.0,42.0,35.0,67.0,42.0,5017.0,square2,r,0.248,1,N,12.0
NS12,73.0,56.0,39.0,39.0,67.0,39.0,5056.0,square3,i,0.181,2,N,12.0
NS12,74.0,50.0,38.0,40.0,63.0,63.0,5119.0,square4,j,0.145,3,N,12.0
NS12,75.0,52.0,37.0,41.0,67.0,52.0,5171.0,square1,f,0.262,0,N,12.0
NS12,76.0,47.0,40.0,46.0,67.0,67.0,5238.0,square4,j,0.051,3,N,12.0
NS12,77.0,45.0,35.0,47.0,67.0,67.0,5305.0,square4,j,0.199,3,N,12.0
NS12,78.0,44.0,38.0,52.0,66.0,66.0,5371.0,square4,j,0.079,3,N,12.0
NS12,79.0,41.0,38.0,52.0,64.0,64.0,5435.0,square4,j,0.137,3,N,12.0
NS12,80.0,36.0,41.0,57.0,58.0,58.0,5493.0,square4,j,0.001,3,N,12.0
NS12,81.0,36.0,42.0,66.0,63.0,63.0,5556.0,square4,j,0.178,3,N,12.0
NS12,82.0,35.0,44.0,65.0,62.0,62.0,5618.0,square4,j,0.127,3,N,12.0
NS12,83.0,37.0,42.0,70.0,65.0,37.0,5655.0,square1,f,0.099,0,N,12.0
NS12,84.0,35.0,39.0,72.0,58.0,58.0,5713.0,square4,j,0.119,3,N,12.0
NS12,85.0,30.0,40.0,62.0,55.0,62.0,5775.0,square3,i,0.15,2,N,12.0
NS12,86.0,36.0,40.0,65.0,59.0,65.0,5840.0,square3,i,0.082,2,N,12.0
NS12,87.0,31.0,41.0,67.0,57.0,41.0,5881.0,square2,r,0.1,1,N,12.0
NS12,88.0,30.0,50.0,67.0,52.0,67.0,5948.0,square3,i,0.181,2,N,12.0
NS12,89.0,28.0,41.0,69.0,54.0,69.0,6017.0,square3,i,0.029,2,N,12.0
NS12,90.0,29.0,41.0,61.0,57.0,61.0,6078.0,square3,i,0.153,2,N,12.0
NS12,91.0,30.0,36.0,59.0,54.0,59.0,6137.0,square3,i,0.116,2,N,12.0
NS12,92.0,28.0,29.0,60.0,54.0,54.0,6191.0,square4,j,0.045,3,N,12.0
NS12,93.0,30.0,35.0,62.0,52.0,62.0,6253.0,square3,i,0.0,2,N,12.0
NS12,94.0,30.0,36.0,60.0,56.0,60.0,6313.0,square3,i,0.029,2,N,12.0
NS12,95.0,29.0,33.0,63.0,60.0,63.0,6376.0,square3,i,0.148,2,N,12.0
NS12,96.0,29.0,30.0,59.0,59.0,59.0,6435.0,square3,i,0.369,2,N,12.0
NS12,97.0,31.0,35.0,61.0,61.0,35.0,6470.0,square2,r,0.096,1,N,12.0
NS12,98.0,31.0,40.0,67.0,58.0,58.0,6528.0,square4,j,0.583,3,N,12.0
NS12,99.0,33.0,37.0,65.0,67.0,65.0,6593.0,square3,i,0.066,2,N,12.0
V4,0.0,63.0,38.0,47.0,55.0,38.0,38.0,square2,f,1.244,1,V,4.0
V4,1.0,66.0,42.0,43.0,59.0,66.0,104.0,square1,j,0.144,0,V,4.0
V4,2.0,66.0,39.0,57.0,59.0,59.0,163.0,square4,i,0.181,3,V,4.0
V4,3.0,66.0,37.0,51.0,59.0,51.0,214.0,square3,r,0.064,2,V,4.0
V4,4.0,69.0,37.0,50.0,55.0,69.0,283.0,square1,j,0.336,0,V,4.0
V4,5.0,64.0,44.0,46.0,62.0,64.0,347.0,square1,j,0.249,0,V,4.0
V4,6.0,75.0,43.0,49.0,57.0,75.0,422.0,square1,j,0.047,0,V,4.0
V4,7.0,62.0,41.0,52.0,59.0,62.0,484.0,square1,j,0.186,0,V,4.0
V4,8.0,65.0,41.0,44.0,60.0,65.0,549.0,square1,j,0.185,0,V,4.0
V4,9.0,68.0,35.0,44.0,64.0,68.0,617.0,square1,j,0.103,0,V,4.0
V4,10.0,67.0,44.0,48.0,61.0,67.0,684.0,square1,j,0.079,0,V,4.0
V4,11.0,61.0,40.0,48.0,56.0,61.0,745.0,square1,j,0.047,0,V,4.0
V4,12.0,68.0,41.0,49.0,55.0,68.0,813.0,square1,j,0.116,0,V,4.0
V4,13.0,63.0,42.0,47.0,60.0,63.0,876.0,square1,j,0.061,0,V,4.0
V4,14.0,63.0,40.0,51.0,55.0,63.0,939.0,square1,j,0.108,0,V,4.0
V4,15.0,62.0,41.0,52.0,62.0,62.0,1001.0,square1,j,0.532,0,V,4.0
V4,16.0,69.0,37.0,47.0,60.0,69.0,1070.0,square1,j,0.08,0,V,4.0
V4,17.0,66.0,40.0,48.0,56.0,66.0,1136.0,square1,j,0.145,0,V,4.0
V4,18.0,67.0,43.0,47.0,59.0,67.0,1203.0,square1,j,0.049,0,V,4.0
V4,19.0,64.0,42.0,51.0,59.0,64.0,1267.0,square1,j,0.314,0,V,4.0
V4,20.0,67.0,40.0,47.0,58.0,67.0,1334.0,square1,j,0.23,0,V,4.0
V4,21.0,60.0,41.0,50.0,59.0,41.0,1375.0,square2,f,0.284,1,V,4.0
V4,22.0,66.0,43.0,54.0,55.0,54.0,1429.0,square3,r,0.077,2,V,4.0
V4,23.0,67.0,37.0,50.0,62.0,62.0,1491.0,square4,i,0.248,3,V,4.0
V4,24.0,67.0,37.0,49.0,60.0,67.0,1558.0,square1,j,0.216,0,V,4.0
V4,25.0,67.0,39.0,55.0,52.0,67.0,1625.0,square1,j,0.03,0,V,4.0
V4,26.0,64.0,39.0,51.0,63.0,64.0,1689.0,square1,j,0.447,0,V,4.0
V4,27.0,68.0,36.0,55.0,60.0,68.0,1757.0,square1,j,0.095,0,V,4.0
V4,28.0,67.0,40.0,46.0,54.0,67.0,1824.0,square1,j,0.234,0,V,4.0
V4,29.0,67.0,41.0,50.0,57.0,67.0,1891.0,square1,j,0.218,0,V,4.0
V4,30.0,66.0,39.0,49.0,53.0,66.0,1957.0,square1,j,0.215,0,V,4.0
V4,31.0,70.0,38.0,48.0,58.0,70.0,2027.0,square1,j,0.099,0,V,4.0
V4,32.0,63.0,40.0,53.0,61.0,63.0,2090.0,square1,j,0.131,0,V,4.0
V4,33.0,66.0,41.0,51.0,56.0,66.0,2156.0,square1,j,0.126,0,V,4.0
V4,34.0,64.0,39.0,46.0,57.0,64.0,2220.0,square1,j,0.23,0,V,4.0
V4,35.0,69.0,36.0,50.0,58.0,69.0,2289.0,square1,j,0.218,0,V,4.0
V4,36.0,60.0,43.0,53.0,54.0,60.0,2349.0,square1,j,0.0,0,V,4.0
V4,37.0,52.0,78.0,68.0,66.0,52.0,2401.0,square1,j,0.234,0,V,4.0
V4,38.0,44.0,81.0,68.0,62.0,44.0,2445.0,square1,j,0.295,0,V,4.0
V4,39.0,59.0,71.0,70.0,63.0,70.0,2515.0,square3,r,0.381,2,V,4.0
V4,40.0,53.0,77.0,73.0,59.0,73.0,2588.0,square3,r,0.234,2,V,4.0
V4,41.0,53.0,76.0,74.0,66.0,74.0,2662.0,square3,r,0.232,2,V,4.0
V4,42.0,51.0,79.0,73.0,59.0,73.0,2735.0,square3,r,0.215,2,V,4.0
V4,43.0,48.0,76.0,68.0,65.0,68.0,2803.0,square3,r,0.146,2,V,4.0
V4,44.0,57.0,83.0,78.0,63.0,83.0,2886.0,square2,f,0.0,1,V,4.0
V4,45.0,54.0,74.0,69.0,61.0,61.0,2947.0,square4,i,0.196,3,V,4.0
V4,46.0,53.0,85.0,66.0,62.0,85.0,3032.0,square2,f,0.117,1,V,4.0
V4,47.0,56.0,83.0,68.0,57.0,83.0,3115.0,square2,f,0.182,1,V,4.0
V4,48.0,49.0,74.0,73.0,59.0,74.0,3189.0,square2,f,0.0,1,V,4.0
V4,49.0,54.0,74.0,70.0,60.0,74.0,3263.0,square2,f,0.217,1,V,4.0
V4,50.0,47.0,83.0,69.0,60.0,83.0,3346.0,square2,f,0.018,1,V,4.0
V4,51.0,54.0,78.0,73.0,56.0,78.0,3424.0,square2,f,0.729,1,V,4.0
V4,52.0,52.0,76.0,71.0,58.0,76.0,3500.0,square2,f,0.166,1,V,4.0
V4,53.0,51.0,82.0,76.0,63.0,82.0,3582.0,square2,f,0.0,1,V,4.0
V4,54.0,57.0,76.0,69.0,64.0,76.0,3658.0,square2,f,0.2,1,V,4.0
V4,55.0,49.0,75.0,68.0,59.0,75.0,3733.0,square2,f,0.169,1,V,4.0
V4,56.0,55.0,81.0,66.0,65.0,81.0,3814.0,square2,f,0.126,1,V,4.0
V4,57.0,58.0,80.0,72.0,63.0,80.0,3894.0,square2,f,0.001,1,V,4.0
V4,58.0,49.0,81.0,66.0,62.0,81.0,3975.0,square2,f,0.044,1,V,4.0
V4,59.0,57.0,78.0,73.0,59.0,78.0,4053.0,square2,f,0.4,1,V,4.0
V4,60.0,48.0,79.0,66.0,59.0,79.0,4132.0,square2,f,0.236,1,V,4.0
V4,61.0,53.0,80.0,72.0,60.0,80.0,4212.0,square2,f,0.0,1,V,4.0
V4,62.0,53.0,79.0,70.0,61.0,79.0,4291.0,square2,f,0.158,1,V,4.0
V4,63.0,81.0,66.0,90.0,66.0,66.0,4357.0,square2,f,0.016,1,V,4.0
V4,64.0,80.0,64.0,85.0,76.0,85.0,4442.0,square3,r,0.262,2,V,4.0
V4,65.0,77.0,61.0,92.0,74.0,92.0,4534.0,square3,r,0.281,2,V,4.0
V4,66.0,89.0,65.0,91.0,73.0,91.0,4625.0,square3,r,0.296,2,V,4.0
V4,67.0,86.0,64.0,92.0,70.0,70.0,4695.0,square4,i,0.399,3,V,4.0
V4,68.0,82.0,60.0,91.0,77.0,91.0,4786.0,square3,r,0.015,2,V,4.0
V4,69.0,78.0,69.0,90.0,70.0,90.0,4876.0,square3,r,0.262,2,V,4.0
V4,70.0,85.0,64.0,95.0,73.0,95.0,4971.0,square3,r,0.249,2,V,4.0
V4,71.0,85.0,61.0,88.0,69.0,85.0,5056.0,square1,j,0.176,0,V,4.0
V4,72.0,86.0,63.0,87.0,75.0,87.0,5143.0,square3,r,0.004,2,V,4.0
V4,73.0,86.0,69.0,92.0,70.0,92.0,5235.0,square3,r,0.304,2,V,4.0
V4,74.0,81.0,62.0,90.0,69.0,90.0,5325.0,square3,r,0.183,2,V,4.0
V4,75.0,83.0,66.0,88.0,74.0,88.0,5413.0,square3,r,0.0,2,V,4.0
V4,76.0,80.0,64.0,92.0,75.0,92.0,5505.0,square3,r,0.3,2,V,4.0
V4,77.0,81.0,65.0,91.0,74.0,91.0,5596.0,square3,r,0.099,2,V,4.0
V4,78.0,78.0,70.0,89.0,73.0,89.0,5685.0,square3,r,0.093,2,V,4.0
V4,79.0,84.0,66.0,85.0,75.0,85.0,5770.0,square3,r,0.0,2,V,4.0
V4,80.0,83.0,65.0,93.0,74.0,93.0,5863.0,square3,r,0.283,2,V,4.0
V4,81.0,86.0,59.0,91.0,74.0,91.0,5954.0,square3,r,0.281,2,V,4.0
V4,82.0,87.0,64.0,92.0,73.0,92.0,6046.0,square3,r,0.687,2,V,4.0
V4,83.0,83.0,68.0,86.0,70.0,86.0,6132.0,square3,r,0.229,2,V,4.0
V4,84.0,82.0,62.0,87.0,73.0,87.0,6219.0,square3,r,0.0,2,V,4.0
V4,85.0,85.0,61.0,90.0,70.0,90.0,6309.0,square3,r,0.265,2,V,4.0
V4,86.0,84.0,66.0,97.0,71.0,97.0,6406.0,square3,r,0.196,2,V,4.0
V4,87.0,82.0,64.0,87.0,71.0,87.0,6493.0,square3,r,0.081,2,V,4.0
V4,88.0,80.0,67.0,93.0,72.0,93.0,6586.0,square3,r,0.226,2,V,4.0
V4,89.0,78.0,64.0,92.0,75.0,92.0,6678.0,square3,r,0.116,2,V,4.0
V4,90.0,75.0,66.0,88.0,72.0,88.0,6766.0,square3,r,0.598,2,V,4.0
V4,91.0,82.0,59.0,91.0,76.0,91.0,6857.0,square3,r,0.251,2,V,4.0
V4,92.0,84.0,62.0,91.0,70.0,91.0,6948.0,square3,r,0.163,2,V,4.0
V4,93.0,80.0,61.0,94.0,76.0,94.0,7042.0,square3,r,0.069,2,V,4.0
V4,94.0,83.0,64.0,88.0,72.0,88.0,7130.0,square3,r,0.366,2,V,4.0
V4,95.0,82.0,60.0,94.0,69.0,94.0,7224.0,square3,r,0.005,2,V,4.0
V4,96.0,84.0,63.0,92.0,72.0,92.0,7316.0,square3,r,0.38,2,V,4.0
V4,97.0,84.0,62.0,85.0,70.0,85.0,7401.0,square3,r,0.084,2,V,4.0
V4,98.0,81.0,64.0,93.0,72.0,93.0,7494.0,square3,r,0.217,2,V,4.0
V4,99.0,80.0,61.0,92.0,75.0,92.0,7586.0,square3,r,0.13,2,V,4.0
V1,0.0,46.0,61.0,52.0,71.0,52.0,52.0,square3,j,1.452,2,V,1.0
V1,1.0,45.0,63.0,54.0,78.0,63.0,115.0,square2,i,0.0,1,V,1.0
V1,2.0,51.0,58.0,59.0,77.0,77.0,192.0,square4,r,0.244,3,V,1.0
V1,3.0,53.0,65.0,56.0,75.0,53.0,245.0,square1,f,0.229,0,V,1.0
V1,4.0,49.0,68.0,53.0,72.0,72.0,317.0,square4,r,0.229,3,V,1.0
V1,5.0,47.0,70.0,59.0,76.0,76.0,393.0,square4,r,0.072,3,V,1.0
V1,6.0,55.0,63.0,54.0,76.0,76.0,469.0,square4,r,0.1,3,V,1.0
V1,7.0,47.0,67.0,55.0,74.0,74.0,543.0,square4,r,0.116,3,V,1.0
V1,8.0,47.0,65.0,46.0,76.0,76.0,619.0,square4,r,0.162,3,V,1.0
V1,9.0,46.0,68.0,59.0,78.0,78.0,697.0,square4,r,0.216,3,V,1.0
V1,10.0,58.0,67.0,58.0,79.0,79.0,776.0,square4,r,0.267,3,V,1.0
V1,11.0,44.0,61.0,54.0,72.0,72.0,848.0,square4,r,0.219,3,V,1.0
V1,12.0,44.0,65.0,56.0,75.0,75.0,923.0,square4,r,0.115,3,V,1.0
V1,13.0,47.0,63.0,53.0,73.0,73.0,996.0,square4,r,0.149,3,V,1.0
V1,14.0,49.0,66.0,56.0,75.0,75.0,1071.0,square4,r,0.149,3,V,1.0
V1,15.0,49.0,66.0,52.0,79.0,66.0,1137.0,square2,i,0.23,1,V,1.0
V1,16.0,51.0,61.0,48.0,72.0,48.0,1185.0,square3,j,0.19,2,V,1.0
V1,17.0,46.0,61.0,59.0,71.0,46.0,1231.0,square1,f,0.162,0,V,1.0
V1,18.0,45.0,61.0,53.0,72.0,72.0,1303.0,square4,r,0.147,3,V,1.0
V1,19.0,49.0,63.0,54.0,76.0,76.0,1379.0,square4,r,0.003,3,V,1.0
V1,20.0,46.0,66.0,52.0,72.0,72.0,1451.0,square4,r,0.215,3,V,1.0
V1,21.0,50.0,65.0,51.0,73.0,73.0,1524.0,square4,r,0.068,3,V,1.0
V1,22.0,56.0,62.0,56.0,77.0,77.0,1601.0,square4,r,0.088,3,V,1.0
V1,23.0,45.0,67.0,54.0,83.0,83.0,1684.0,square4,r,0.062,3,V,1.0
V1,24.0,46.0,69.0,57.0,71.0,71.0,1755.0,square4,r,0.181,3,V,1.0
V1,25.0,41.0,65.0,55.0,76.0,76.0,1831.0,square4,r,0.048,3,V,1.0
V1,26.0,51.0,60.0,55.0,74.0,74.0,1905.0,square4,r,0.097,3,V,1.0
V1,27.0,52.0,63.0,56.0,73.0,73.0,1978.0,square4,r,0.032,3,V,1.0
V1,28.0,50.0,68.0,50.0,76.0,76.0,2054.0,square4,r,0.101,3,V,1.0
V1,29.0,51.0,60.0,54.0,74.0,74.0,2128.0,square4,r,0.083,3,V,1.0
V1,30.0,35.0,67.0,57.0,40.0,40.0,2168.0,square4,r,0.114,3,V,1.0
V1,31.0,38.0,60.0,52.0,35.0,60.0,2228.0,square2,i,0.168,1,V,1.0
V1,32.0,37.0,67.0,52.0,41.0,52.0,2280.0,square3,j,0.188,2,V,1.0
V1,33.0,37.0,62.0,53.0,42.0,37.0,2317.0,square1,f,0.158,0,V,1.0
V1,34.0,35.0,58.0,54.0,43.0,58.0,2375.0,square2,i,0.096,1,V,1.0
V1,35.0,40.0,60.0,50.0,44.0,60.0,2435.0,square2,i,0.234,1,V,1.0
V1,36.0,39.0,66.0,50.0,39.0,66.0,2501.0,square2,i,0.213,1,V,1.0
V1,37.0,32.0,59.0,54.0,38.0,59.0,2560.0,square2,i,0.172,1,V,1.0
V1,38.0,32.0,64.0,50.0,39.0,64.0,2624.0,square2,i,0.314,1,V,1.0
V1,39.0,37.0,60.0,45.0,40.0,60.0,2684.0,square2,i,0.071,1,V,1.0
V1,40.0,35.0,61.0,54.0,43.0,61.0,2745.0,square2,i,0.081,1,V,1.0
V1,41.0,33.0,62.0,49.0,42.0,62.0,2807.0,square2,i,0.115,1,V,1.0
V1,42.0,31.0,70.0,52.0,42.0,52.0,2859.0,square3,j,0.184,2,V,1.0
V1,43.0,37.0,59.0,48.0,41.0,37.0,2896.0,square1,f,0.034,0,V,1.0
V1,44.0,39.0,63.0,53.0,44.0,44.0,2940.0,square4,r,0.137,3,V,1.0
V1,45.0,37.0,62.0,48.0,41.0,62.0,3002.0,square2,i,0.147,1,V,1.0
V1,46.0,34.0,65.0,52.0,39.0,65.0,3067.0,square2,i,0.216,1,V,1.0
V1,47.0,42.0,59.0,52.0,43.0,59.0,3126.0,square2,i,0.097,1,V,1.0
V1,48.0,39.0,62.0,50.0,38.0,50.0,3176.0,square3,j,0.305,2,V,1.0
V1,49.0,33.0,63.0,49.0,40.0,63.0,3239.0,square2,i,0.117,1,V,1.0
V1,50.0,38.0,66.0,54.0,37.0,66.0,3305.0,square2,i,0.114,1,V,1.0
V1,51.0,33.0,66.0,50.0,37.0,66.0,3371.0,square2,i,0.163,1,V,1.0
V1,52.0,41.0,65.0,55.0,44.0,65.0,3436.0,square2,i,0.001,1,V,1.0
V1,53.0,75.0,50.0,46.0,60.0,50.0,3486.0,square2,i,0.638,1,V,1.0
V1,54.0,74.0,53.0,45.0,61.0,53.0,3539.0,square2,i,0.255,1,V,1.0
V1,55.0,74.0,54.0,43.0,65.0,54.0,3593.0,square2,i,0.081,1,V,1.0
V1,56.0,73.0,54.0,44.0,56.0,54.0,3647.0,square2,i,0.101,1,V,1.0
V1,57.0,67.0,58.0,52.0,63.0,58.0,3705.0,square2,i,0.064,1,V,1.0
V1,58.0,72.0,51.0,43.0,62.0,43.0,3748.0,square3,j,0.188,2,V,1.0
V1,59.0,68.0,47.0,49.0,56.0,68.0,3816.0,square1,f,0.262,0,V,1.0
V1,60.0,72.0,55.0,46.0,65.0,72.0,3888.0,square1,f,0.33,0,V,1.0
V1,61.0,76.0,50.0,46.0,62.0,76.0,3964.0,square1,f,0.095,0,V,1.0
V1,62.0,77.0,58.0,46.0,66.0,66.0,4030.0,square4,r,0.006,3,V,1.0
V1,63.0,72.0,53.0,48.0,66.0,72.0,4102.0,square1,f,0.001,0,V,1.0
V1,64.0,70.0,49.0,49.0,60.0,70.0,4172.0,square1,f,0.097,0,V,1.0
V1,65.0,68.0,49.0,46.0,66.0,68.0,4240.0,square1,f,0.079,0,V,1.0
V1,66.0,77.0,52.0,41.0,64.0,77.0,4317.0,square1,f,0.028,0,V,1.0
V1,67.0,74.0,56.0,42.0,69.0,74.0,4391.0,square1,f,0.505,0,V,1.0
V1,68.0,77.0,50.0,46.0,68.0,77.0,4468.0,square1,f,0.168,0,V,1.0
V1,69.0,76.0,48.0,45.0,63.0,76.0,4544.0,square1,f,0.048,0,V,1.0
V1,70.0,71.0,53.0,50.0,65.0,71.0,4615.0,square1,f,0.184,0,V,1.0
V1,71.0,70.0,56.0,44.0,59.0,70.0,4685.0,square1,f,0.146,0,V,1.0
V1,72.0,74.0,54.0,55.0,61.0,74.0,4759.0,square1,f,0.034,0,V,1.0
V1,73.0,73.0,53.0,47.0,61.0,73.0,4832.0,square1,f,0.049,0,V,1.0
V1,74.0,71.0,53.0,51.0,65.0,71.0,4903.0,square1,f,0.128,0,V,1.0
V1,75.0,72.0,51.0,48.0,64.0,72.0,4975.0,square1,f,0.013,0,V,1.0
V1,76.0,72.0,53.0,49.0,62.0,72.0,5047.0,square1,f,0.262,0,V,1.0
V1,77.0,62.0,76.0,64.0,86.0,62.0,5109.0,square1,f,0.252,0,V,1.0
V1,78.0,61.0,74.0,63.0,87.0,61.0,5170.0,square1,f,0.067,0,V,1.0
V1,79.0,56.0,78.0,67.0,89.0,78.0,5248.0,square2,i,0.062,1,V,1.0
V1,80.0,59.0,75.0,63.0,84.0,84.0,5332.0,square4,r,0.219,3,V,1.0
V1,81.0,63.0,74.0,68.0,82.0,82.0,5414.0,square4,r,0.097,3,V,1.0
V1,82.0,59.0,75.0,67.0,80.0,67.0,5481.0,square3,j,0.338,2,V,1.0
V1,83.0,58.0,77.0,63.0,82.0,82.0,5563.0,square4,r,0.085,3,V,1.0
V1,84.0,57.0,76.0,64.0,87.0,87.0,5650.0,square4,r,0.063,3,V,1.0
V1,85.0,61.0,73.0,66.0,83.0,83.0,5733.0,square4,r,0.349,3,V,1.0
V1,86.0,60.0,71.0,66.0,85.0,85.0,5818.0,square4,r,0.031,3,V,1.0
V1,87.0,61.0,80.0,73.0,84.0,84.0,5902.0,square4,r,0.0,3,V,1.0
V1,88.0,67.0,77.0,67.0,85.0,85.0,5987.0,square4,r,0.073,3,V,1.0
V1,89.0,60.0,79.0,63.0,86.0,86.0,6073.0,square4,r,0.22,3,V,1.0
V1,90.0,60.0,74.0,66.0,88.0,88.0,6161.0,square4,r,0.187,3,V,1.0
V1,91.0,57.0,81.0,61.0,79.0,79.0,6240.0,square4,r,0.081,3,V,1.0
V1,92.0,61.0,78.0,61.0,84.0,84.0,6324.0,square4,r,0.103,3,V,1.0
V1,93.0,64.0,72.0,69.0,83.0,83.0,6407.0,square4,r,0.012,3,V,1.0
V1,94.0,64.0,73.0,68.0,83.0,83.0,6490.0,square4,r,0.183,3,V,1.0
V1,95.0,61.0,69.0,68.0,87.0,87.0,6577.0,square4,r,0.215,3,V,1.0
V1,96.0,55.0,77.0,65.0,88.0,88.0,6665.0,square4,r,0.23,3,V,1.0
V1,97.0,61.0,75.0,63.0,82.0,82.0,6747.0,square4,r,0.014,3,V,1.0
V1,98.0,59.0,71.0,66.0,82.0,82.0,6829.0,square4,r,0.154,3,V,1.0
V1,99.0,61.0,69.0,67.0,84.0,84.0,6913.0,square4,r,0.113,3,V,1.0
V11,0.0,42.0,67.0,57.0,49.0,49.0,49.0,square4,j,0.926,3,V,11.0
V11,1.0,42.0,71.0,60.0,53.0,71.0,120.0,square2,f,0.049,1,V,11.0
V11,2.0,45.0,76.0,58.0,51.0,45.0,165.0,square1,r,0.218,0,V,11.0
V11,3.0,44.0,65.0,60.0,49.0,60.0,225.0,square3,i,0.234,2,V,11.0
V11,4.0,46.0,73.0,64.0,51.0,73.0,298.0,square2,f,0.099,1,V,11.0
V11,5.0,47.0,67.0,58.0,54.0,67.0,365.0,square2,f,0.283,1,V,11.0
V11,6.0,43.0,68.0,58.0,50.0,68.0,433.0,square2,f,0.23,1,V,11.0
V11,7.0,42.0,67.0,60.0,58.0,67.0,500.0,square2,f,0.213,1,V,11.0
V11,8.0,44.0,67.0,60.0,53.0,67.0,567.0,square2,f,0.045,1,V,11.0
V11,9.0,44.0,67.0,59.0,54.0,67.0,634.0,square2,f,0.169,1,V,11.0
V11,10.0,49.0,76.0,57.0,52.0,76.0,710.0,square2,f,0.0,1,V,11.0
V11,11.0,45.0,71.0,58.0,51.0,71.0,781.0,square2,f,0.215,1,V,11.0
V11,12.0,45.0,72.0,58.0,56.0,72.0,853.0,square2,f,0.231,1,V,11.0
V11,13.0,49.0,67.0,63.0,54.0,67.0,920.0,square2,f,0.032,1,V,11.0
V11,14.0,50.0,75.0,57.0,48.0,75.0,995.0,square2,f,0.001,1,V,11.0
V11,15.0,40.0,71.0,61.0,51.0,71.0,1066.0,square2,f,0.046,1,V,11.0
V11,16.0,47.0,72.0,56.0,54.0,72.0,1138.0,square2,f,0.132,1,V,11.0
V11,17.0,40.0,71.0,61.0,46.0,71.0,1209.0,square2,f,0.135,1,V,11.0
V11,18.0,44.0,69.0,59.0,51.0,69.0,1278.0,square2,f,0.132,1,V,11.0
V11,19.0,44.0,73.0,59.0,47.0,73.0,1351.0,square2,f,0.099,1,V,11.0
V11,20.0,47.0,69.0,64.0,54.0,69.0,1420.0,square2,f,0.133,1,V,11.0
V11,21.0,78.0,49.0,70.0,65.0,65.0,1485.0,square4,j,0.082,3,V,11.0
V11,22.0,78.0,56.0,73.0,62.0,73.0,1558.0,square3,i,0.153,2,V,11.0
V11,23.0,84.0,54.0,71.0,65.0,84.0,1642.0,square1,r,0.366,0,V,11.0
V11,24.0,80.0,55.0,72.0,67.0,80.0,1722.0,square1,r,0.03,0,V,11.0
V11,25.0,80.0,55.0,75.0,63.0,80.0,1802.0,square1,r,0.013,0,V,11.0
V11,26.0,80.0,56.0,67.0,62.0,80.0,1882.0,square1,r,0.183,0,V,11.0
V11,27.0,80.0,51.0,68.0,62.0,80.0,1962.0,square1,r,0.152,0,V,11.0
V11,28.0,79.0,57.0,67.0,57.0,79.0,2041.0,square1,r,0.021,0,V,11.0
V11,29.0,79.0,50.0,67.0,62.0,79.0,2120.0,square1,r,0.048,0,V,11.0
V11,30.0,88.0,54.0,74.0,61.0,88.0,2208.0,square1,r,0.432,0,V,11.0
V11,31.0,81.0,51.0,75.0,63.0,81.0,2289.0,square1,r,0.036,0,V,11.0
V11,32.0,76.0,51.0,69.0,65.0,76.0,2365.0,square1,r,0.065,0,V,11.0
V11,33.0,78.0,54.0,72.0,64.0,78.0,2443.0,square1,r,0.495,0,V,11.0
V11,34.0,77.0,53.0,71.0,62.0,77.0,2520.0,square1,r,0.23,0,V,11.0
V11,35.0,74.0,59.0,75.0,62.0,74.0,2594.0,square1,r,0.226,0,V,11.0
V11,36.0,79.0,50.0,72.0,62.0,79.0,2673.0,square1,r,0.212,0,V,11.0
V11,37.0,74.0,54.0,68.0,62.0,74.0,2747.0,square1,r,0.452,0,V,11.0
V11,38.0,80.0,57.0,65.0,58.0,65.0,2812.0,square3,i,0.315,2,V,11.0
V11,39.0,73.0,52.0,75.0,66.0,66.0,2878.0,square4,j,0.164,3,V,11.0
V11,40.0,82.0,57.0,71.0,57.0,57.0,2935.0,square2,f,0.282,1,V,11.0
V11,41.0,78.0,53.0,73.0,64.0,78.0,3013.0,square1,r,0.0,0,V,11.0
V11,42.0,72.0,56.0,67.0,59.0,72.0,3085.0,square1,r,0.253,0,V,11.0
V11,43.0,81.0,54.0,73.0,63.0,81.0,3166.0,square1,r,0.149,0,V,11.0
V11,44.0,76.0,54.0,75.0,59.0,76.0,3242.0,square1,r,0.469,0,V,11.0
V11,45.0,79.0,59.0,71.0,64.0,79.0,3321.0,square1,r,0.119,0,V,11.0
V11,46.0,80.0,55.0,67.0,57.0,80.0,3401.0,square1,r,0.084,0,V,11.0
V11,47.0,84.0,53.0,75.0,56.0,84.0,3485.0,square1,r,0.011,0,V,11.0
V11,48.0,83.0,57.0,71.0,60.0,83.0,3568.0,square1,r,0.0,0,V,11.0
V11,49.0,79.0,52.0,71.0,60.0,79.0,3647.0,square1,r,0.314,0,V,11.0
V11,50.0,76.0,50.0,69.0,60.0,76.0,3723.0,square1,r,0.181,0,V,11.0
V11,51.0,79.0,54.0,72.0,57.0,79.0,3802.0,square1,r,0.0,0,V,11.0
V11,52.0,80.0,54.0,72.0,64.0,80.0,3882.0,square1,r,0.0,0,V,11.0
V11,53.0,35.0,50.0,55.0,69.0,35.0,3917.0,square1,r,0.046,0,V,11.0
V11,54.0,45.0,48.0,55.0,73.0,55.0,3972.0,square3,i,0.098,2,V,11.0
V11,55.0,43.0,53.0,58.0,70.0,70.0,4042.0,square4,j,0.267,3,V,11.0
V11,56.0,40.0,46.0,60.0,62.0,46.0,4088.0,square2,f,0.029,1,V,11.0
V11,57.0,44.0,46.0,53.0,71.0,71.0,4159.0,square4,j,0.113,3,V,11.0
V11,58.0,44.0,52.0,55.0,68.0,68.0,4227.0,square4,j,0.187,3,V,11.0
V11,59.0,44.0,44.0,57.0,66.0,66.0,4293.0,square4,j,0.5,3,V,11.0
V11,60.0,40.0,46.0,57.0,62.0,62.0,4355.0,square4,j,0.0,3,V,11.0
V11,61.0,42.0,52.0,58.0,62.0,62.0,4417.0,square4,j,0.154,3,V,11.0
V11,62.0,40.0,49.0,56.0,71.0,71.0,4488.0,square4,j,0.25,3,V,11.0
V11,63.0,40.0,54.0,60.0,66.0,66.0,4554.0,square4,j,0.166,3,V,11.0
V11,64.0,41.0,43.0,51.0,66.0,66.0,4620.0,square4,j,0.05,3,V,11.0
V11,65.0,39.0,48.0,59.0,66.0,66.0,4686.0,square4,j,0.449,3,V,11.0
V11,66.0,40.0,48.0,59.0,69.0,69.0,4755.0,square4,j,0.25,3,V,11.0
V11,67.0,46.0,45.0,58.0,69.0,46.0,4801.0,square1,r,0.217,0,V,11.0
V11,68.0,41.0,50.0,56.0,69.0,50.0,4851.0,square2,f,0.097,1,V,11.0
V11,69.0,48.0,49.0,57.0,71.0,57.0,4908.0,square3,i,0.452,2,V,11.0
V11,70.0,41.0,47.0,58.0,65.0,65.0,4973.0,square4,j,0.08,3,V,11.0
V11,71.0,37.0,46.0,58.0,60.0,60.0,5033.0,square4,j,0.104,3,V,11.0
V11,72.0,41.0,47.0,54.0,65.0,65.0,5098.0,square4,j,0.085,3,V,11.0
V11,73.0,42.0,47.0,60.0,67.0,42.0,5140.0,square1,r,0.328,0,V,11.0
V11,74.0,43.0,49.0,57.0,64.0,49.0,5189.0,square2,f,0.331,1,V,11.0
V11,75.0,38.0,46.0,57.0,66.0,57.0,5246.0,square3,i,0.048,2,V,11.0
V11,76.0,42.0,50.0,58.0,68.0,68.0,5314.0,square4,j,0.113,3,V,11.0
V11,77.0,36.0,49.0,58.0,64.0,64.0,5378.0,square4,j,0.134,3,V,11.0
V11,78.0,40.0,50.0,56.0,67.0,67.0,5445.0,square4,j,0.112,3,V,11.0
V11,79.0,39.0,48.0,56.0,67.0,67.0,5512.0,square4,j,0.197,3,V,11.0
V11,80.0,51.0,33.0,30.0,45.0,45.0,5557.0,square4,j,0.213,3,V,11.0
V11,81.0,49.0,31.0,23.0,48.0,31.0,5588.0,square2,f,0.013,1,V,11.0
V11,82.0,55.0,30.0,25.0,42.0,55.0,5643.0,square1,r,0.329,0,V,11.0
V11,83.0,50.0,33.0,27.0,48.0,27.0,5670.0,square3,i,0.219,2,V,11.0
V11,84.0,52.0,34.0,25.0,43.0,52.0,5722.0,square1,r,0.183,0,V,11.0
V11,85.0,49.0,28.0,28.0,44.0,49.0,5771.0,square1,r,0.368,0,V,11.0
V11,86.0,57.0,29.0,27.0,48.0,57.0,5828.0,square1,r,0.054,0,V,11.0
V11,87.0,49.0,29.0,21.0,38.0,21.0,5849.0,square3,i,0.031,2,V,11.0
V11,88.0,55.0,32.0,29.0,46.0,46.0,5895.0,square4,j,0.012,3,V,11.0
V11,89.0,50.0,28.0,23.0,43.0,50.0,5945.0,square1,r,0.012,0,V,11.0
V11,90.0,54.0,34.0,32.0,41.0,54.0,5999.0,square1,r,0.18,0,V,11.0
V11,91.0,50.0,34.0,26.0,44.0,50.0,6049.0,square1,r,0.064,0,V,11.0
V11,92.0,51.0,31.0,27.0,50.0,51.0,6100.0,square1,r,0.299,0,V,11.0
V11,93.0,49.0,38.0,28.0,42.0,49.0,6149.0,square1,r,0.431,0,V,11.0
V11,94.0,50.0,29.0,25.0,46.0,50.0,6199.0,square1,r,0.4,0,V,11.0
V11,95.0,51.0,36.0,22.0,40.0,51.0,6250.0,square1,r,0.283,0,V,11.0
V11,96.0,52.0,34.0,32.0,45.0,52.0,6302.0,square1,r,0.246,0,V,11.0
V11,97.0,53.0,27.0,32.0,44.0,53.0,6355.0,square1,r,0.228,0,V,11.0
V11,98.0,60.0,31.0,25.0,48.0,60.0,6415.0,square1,r,0.165,0,V,11.0
V11,99.0,53.0,33.0,23.0,42.0,53.0,6468.0,square1,r,0.064,0,V,11.0
