block,Trial,square1,square2,square3,square4,currPoints,totalPoints,square,choiceKey.keys,choiceKey.rt,armNum,blockType,blockNum
prac,0.0,100.0,0.0,0.0,0.0,99999,0.0,invalid,,,-1,p,0.0
prac,1.0,100.0,0.0,0.0,0.0,0,0.0,square2,,,1,p,0.0
prac,2.0,100.0,0.0,0.0,0.0,0,0.0,square4,,,3,p,0.0
prac,3.0,100.0,0.0,0.0,0.0,99999,0.0,invalid,,,-1,p,0.0
prac,4.0,100.0,0.0,0.0,0.0,99999,0.0,invalid,,,-1,p,0.0
prac,5.0,100.0,0.0,0.0,0.0,99999,0.0,invalid,,,-1,p,0.0
prac,6.0,100.0,0.0,0.0,0.0,99999,0.0,invalid,,,-1,p,0.0
prac,7.0,100.0,0.0,0.0,0.0,99999,0.0,invalid,,,-1,p,0.0
prac,8.0,100.0,0.0,0.0,0.0,99999,0.0,invalid,,,-1,p,0.0
prac,9.0,100.0,0.0,0.0,0.0,99999,0.0,invalid,,,-1,p,0.0
S2,0.0,62.0,57.0,71.0,74.0,62,62.0,square1,r,1.336,0,S,2.0
S2,1.0,64.0,59.0,72.0,67.0,59,121.0,square2,i,0.48,1,S,2.0
S2,2.0,68.0,57.0,75.0,68.0,68,189.0,square4,f,0.229,3,S,2.0
S2,3.0,69.0,57.0,80.0,70.0,80,269.0,square3,j,0.883,2,S,2.0
S2,4.0,66.0,60.0,74.0,68.0,66,335.0,square1,r,0.094,0,S,2.0
S2,5.0,63.0,62.0,77.0,72.0,77,412.0,square3,j,1.103,2,S,2.0
S2,6.0,69.0,61.0,75.0,74.0,74,486.0,square4,f,0.431,3,S,2.0
S2,7.0,74.0,66.0,79.0,72.0,66,552.0,square2,i,1.026,1,S,2.0
S2,8.0,81.0,65.0,76.0,72.0,76,628.0,square3,j,0.12,2,S,2.0
S2,9.0,70.0,66.0,78.0,70.0,70,698.0,square1,r,0.737,0,S,2.0
S2,10.0,70.0,72.0,70.0,74.0,74,772.0,square4,f,0.278,3,S,2.0
S2,11.0,64.0,66.0,72.0,67.0,72,844.0,square3,j,0.128,2,S,2.0
S2,12.0,66.0,57.0,70.0,67.0,66,910.0,square1,r,1.709,0,S,2.0
S2,13.0,68.0,68.0,71.0,73.0,99999,910.0,invalid,,,-1,S,2.0
S2,14.0,70.0,63.0,77.0,71.0,99999,910.0,invalid,,,-1,S,2.0
S2,15.0,64.0,66.0,75.0,66.0,99999,910.0,invalid,,,-1,S,2.0
S2,16.0,67.0,61.0,73.0,70.0,99999,910.0,invalid,,,-1,S,2.0
S2,17.0,65.0,58.0,71.0,75.0,99999,910.0,invalid,,,-1,S,2.0
S2,18.0,72.0,64.0,81.0,61.0,99999,910.0,invalid,,,-1,S,2.0
S2,19.0,60.0,63.0,72.0,65.0,99999,910.0,invalid,,,-1,S,2.0
S2,20.0,68.0,56.0,71.0,70.0,99999,910.0,invalid,,,-1,S,2.0
S2,21.0,65.0,65.0,74.0,71.0,99999,910.0,invalid,,,-1,S,2.0
S2,22.0,69.0,62.0,77.0,72.0,99999,910.0,invalid,,,-1,S,2.0
S2,23.0,64.0,71.0,74.0,65.0,99999,910.0,invalid,,,-1,S,2.0
S2,24.0,66.0,62.0,78.0,70.0,99999,910.0,invalid,,,-1,S,2.0
S2,25.0,67.0,69.0,76.0,66.0,99999,910.0,invalid,,,-1,S,2.0
S2,26.0,65.0,63.0,74.0,69.0,99999,910.0,invalid,,,-1,S,2.0
S2,27.0,68.0,64.0,67.0,68.0,99999,910.0,invalid,,,-1,S,2.0
S2,28.0,61.0,52.0,71.0,68.0,99999,910.0,invalid,,,-1,S,2.0
S2,29.0,67.0,64.0,73.0,69.0,99999,910.0,invalid,,,-1,S,2.0
S2,30.0,67.0,53.0,77.0,67.0,99999,910.0,invalid,,,-1,S,2.0
S2,31.0,67.0,69.0,69.0,68.0,67,977.0,square1,r,0.072,0,S,2.0
S2,32.0,71.0,63.0,73.0,70.0,73,1050.0,square3,j,0.976,2,S,2.0
S2,33.0,61.0,65.0,68.0,71.0,71,1121.0,square4,f,0.971,3,S,2.0
S2,34.0,66.0,55.0,78.0,68.0,99999,1121.0,invalid,,,-1,S,2.0
S2,35.0,60.0,57.0,66.0,66.0,60,1181.0,square1,r,0.95,0,S,2.0
S2,36.0,64.0,63.0,73.0,72.0,64,1245.0,square1,r,0.605,0,S,2.0
S2,37.0,65.0,62.0,75.0,68.0,65,1310.0,square1,r,0.183,0,S,2.0
S2,38.0,69.0,57.0,71.0,62.0,71,1381.0,square3,j,0.928,2,S,2.0
S2,39.0,72.0,66.0,74.0,74.0,74,1455.0,square4,f,0.298,3,S,2.0
S2,40.0,66.0,63.0,76.0,59.0,63,1518.0,square2,i,1.221,1,S,2.0
S2,41.0,74.0,64.0,67.0,76.0,76,1594.0,square4,f,0.867,3,S,2.0
S2,42.0,62.0,67.0,72.0,68.0,62,1656.0,square1,r,0.179,0,S,2.0
S2,43.0,69.0,63.0,75.0,71.0,69,1725.0,square1,r,0.949,0,S,2.0
S2,44.0,72.0,60.0,74.0,67.0,67,1792.0,square4,f,0.364,3,S,2.0
S2,45.0,69.0,63.0,76.0,73.0,73,1865.0,square4,f,0.358,3,S,2.0
S2,46.0,64.0,71.0,75.0,72.0,71,1936.0,square2,i,0.363,1,S,2.0
S2,47.0,75.0,62.0,75.0,69.0,75,2011.0,square3,j,0.472,2,S,2.0
S2,48.0,66.0,65.0,74.0,68.0,99999,2011.0,invalid,,,-1,S,2.0
S2,49.0,67.0,64.0,72.0,76.0,76,2087.0,square4,f,0.936,3,S,2.0
S11,0.0,49.0,53.0,49.0,45.0,53,53.0,square2,r,1.001,1,S,11.0
S11,1.0,54.0,56.0,42.0,50.0,42,95.0,square3,i,0.132,2,S,11.0
S11,2.0,39.0,51.0,39.0,43.0,39,134.0,square1,f,0.799,0,S,11.0
S11,3.0,53.0,50.0,38.0,43.0,43,177.0,square4,j,0.319,3,S,11.0
S11,4.0,47.0,54.0,39.0,48.0,54,231.0,square2,r,0.014,1,S,11.0
S11,5.0,47.0,52.0,40.0,46.0,52,283.0,square2,r,0.313,1,S,11.0
S11,6.0,47.0,46.0,44.0,54.0,46,329.0,square2,r,0.285,1,S,11.0
S11,7.0,48.0,51.0,35.0,51.0,48,377.0,square1,f,0.326,0,S,11.0
S11,8.0,52.0,49.0,36.0,43.0,43,420.0,square4,j,0.044,3,S,11.0
S11,9.0,47.0,53.0,41.0,55.0,53,473.0,square2,r,0.177,1,S,11.0
S11,10.0,44.0,48.0,41.0,43.0,48,521.0,square2,r,0.289,1,S,11.0
S11,11.0,41.0,54.0,38.0,43.0,41,562.0,square1,f,0.597,0,S,11.0
S11,12.0,45.0,54.0,44.0,45.0,45,607.0,square4,j,0.283,3,S,11.0
S11,13.0,54.0,52.0,44.0,50.0,99999,607.0,invalid,,,-1,S,11.0
S11,14.0,57.0,58.0,36.0,45.0,36,643.0,square3,i,0.464,2,S,11.0
S11,15.0,48.0,54.0,43.0,49.0,54,697.0,square2,r,0.046,1,S,11.0
S11,16.0,58.0,47.0,42.0,46.0,99999,697.0,invalid,,,-1,S,11.0
S11,17.0,41.0,61.0,42.0,53.0,53,750.0,square4,j,0.353,3,S,11.0
S11,18.0,51.0,58.0,33.0,39.0,51,801.0,square1,f,1.452,0,S,11.0
S11,19.0,48.0,49.0,37.0,42.0,49,850.0,square2,r,0.298,1,S,11.0
S11,20.0,52.0,52.0,45.0,46.0,52,902.0,square2,r,0.199,1,S,11.0
S11,21.0,47.0,53.0,44.0,51.0,47,949.0,square1,f,0.037,0,S,11.0
S11,22.0,49.0,54.0,37.0,41.0,37,986.0,square3,i,0.011,2,S,11.0
S11,23.0,52.0,54.0,41.0,45.0,45,1031.0,square4,j,0.411,3,S,11.0
S11,24.0,42.0,56.0,41.0,45.0,56,1087.0,square2,r,0.25,1,S,11.0
S11,25.0,52.0,56.0,42.0,44.0,56,1143.0,square2,r,0.934,1,S,11.0
S11,26.0,43.0,56.0,41.0,45.0,45,1188.0,square4,j,0.353,3,S,11.0
S11,27.0,48.0,50.0,40.0,43.0,40,1228.0,square3,i,0.128,2,S,11.0
S11,28.0,46.0,49.0,38.0,48.0,38,1266.0,square3,i,0.345,2,S,11.0
S11,29.0,46.0,55.0,40.0,42.0,55,1321.0,square2,r,0.514,1,S,11.0
S11,30.0,46.0,56.0,43.0,37.0,37,1358.0,square4,j,0.111,3,S,11.0
S11,31.0,42.0,49.0,44.0,42.0,42,1400.0,square1,f,0.128,0,S,11.0
S11,32.0,51.0,52.0,36.0,40.0,51,1451.0,square1,f,0.42,0,S,11.0
S11,33.0,44.0,53.0,39.0,43.0,44,1495.0,square1,f,0.361,0,S,11.0
S11,34.0,52.0,52.0,43.0,49.0,52,1547.0,square1,f,0.202,0,S,11.0
S11,35.0,53.0,51.0,38.0,45.0,38,1585.0,square3,i,0.378,2,S,11.0
S11,36.0,50.0,44.0,42.0,48.0,44,1629.0,square2,r,0.13,1,S,11.0
S11,37.0,49.0,51.0,40.0,48.0,40,1669.0,square3,i,1.251,2,S,11.0
S11,38.0,47.0,47.0,39.0,38.0,47,1716.0,square2,r,0.126,1,S,11.0
S11,39.0,51.0,55.0,40.0,42.0,40,1756.0,square3,i,0.176,2,S,11.0
S11,40.0,50.0,52.0,41.0,44.0,44,1800.0,square4,j,0.02,3,S,11.0
S11,41.0,47.0,50.0,46.0,50.0,47,1847.0,square1,f,0.044,0,S,11.0
S11,42.0,52.0,48.0,41.0,47.0,41,1888.0,square3,i,0.068,2,S,11.0
S11,43.0,50.0,56.0,34.0,42.0,56,1944.0,square2,r,0.481,1,S,11.0
S11,44.0,42.0,48.0,37.0,49.0,48,1992.0,square2,r,0.288,1,S,11.0
S11,45.0,47.0,47.0,41.0,40.0,47,2039.0,square2,r,0.282,1,S,11.0
S11,46.0,50.0,56.0,40.0,44.0,56,2095.0,square2,r,0.11,1,S,11.0
S11,47.0,46.0,48.0,38.0,47.0,48,2143.0,square2,r,0.019,1,S,11.0
S11,48.0,45.0,54.0,44.0,41.0,54,2197.0,square2,r,0.014,1,S,11.0
S11,49.0,44.0,53.0,41.0,41.0,41,2238.0,square3,i,0.462,2,S,11.0
S4,0.0,18.0,16.0,34.0,20.0,34,34.0,square3,r,1.767,2,S,4.0
S4,1.0,33.0,26.0,26.0,23.0,26,60.0,square3,r,1.176,2,S,4.0
S4,2.0,35.0,15.0,33.0,22.0,33,93.0,square3,r,0.727,2,S,4.0
S4,3.0,28.0,19.0,27.0,27.0,28,121.0,square1,i,1.365,0,S,4.0
S4,4.0,27.0,16.0,25.0,28.0,27,148.0,square1,i,0.317,0,S,4.0
S4,5.0,23.0,22.0,31.0,24.0,23,171.0,square1,i,0.315,0,S,4.0
S4,6.0,25.0,20.0,34.0,23.0,20,191.0,square2,j,0.338,1,S,4.0
S4,7.0,21.0,22.0,30.0,21.0,22,213.0,square2,j,0.312,1,S,4.0
S4,8.0,33.0,24.0,33.0,17.0,24,237.0,square2,j,0.256,1,S,4.0
S4,9.0,24.0,18.0,31.0,28.0,18,255.0,square2,j,0.312,1,S,4.0
S4,10.0,31.0,26.0,35.0,20.0,20,275.0,square4,f,1.655,3,S,4.0
S4,11.0,25.0,15.0,31.0,25.0,25,300.0,square4,f,0.227,3,S,4.0
S4,12.0,24.0,16.0,29.0,22.0,22,322.0,square4,f,0.33,3,S,4.0
S4,13.0,28.0,23.0,25.0,17.0,25,347.0,square3,r,0.746,2,S,4.0
S4,14.0,22.0,23.0,21.0,23.0,21,368.0,square3,r,0.31,2,S,4.0
S4,15.0,25.0,19.0,28.0,25.0,28,396.0,square3,r,0.584,2,S,4.0
S4,16.0,26.0,17.0,30.0,21.0,17,413.0,square2,j,0.22,1,S,4.0
S4,17.0,22.0,21.0,29.0,22.0,22,435.0,square1,i,0.935,0,S,4.0
S4,18.0,28.0,22.0,32.0,22.0,22,457.0,square2,j,0.527,1,S,4.0
S4,19.0,26.0,19.0,31.0,26.0,31,488.0,square3,r,0.514,2,S,4.0
S4,20.0,28.0,18.0,28.0,25.0,25,513.0,square4,f,0.103,3,S,4.0
S4,21.0,33.0,26.0,21.0,29.0,26,539.0,square2,j,0.519,1,S,4.0
S4,22.0,31.0,19.0,29.0,20.0,29,568.0,square3,r,0.095,2,S,4.0
S4,23.0,27.0,21.0,36.0,26.0,27,595.0,square1,i,0.286,0,S,4.0
S4,24.0,28.0,15.0,32.0,21.0,21,616.0,square4,f,0.247,3,S,4.0
S4,25.0,27.0,18.0,28.0,25.0,27,643.0,square1,i,1.11,0,S,4.0
S4,26.0,26.0,20.0,27.0,14.0,20,663.0,square2,j,0.368,1,S,4.0
S4,27.0,28.0,19.0,36.0,18.0,36,699.0,square3,r,0.332,2,S,4.0
S4,28.0,28.0,19.0,28.0,23.0,28,727.0,square3,r,0.344,2,S,4.0
S4,29.0,25.0,22.0,29.0,23.0,29,756.0,square3,r,0.031,2,S,4.0
S4,30.0,26.0,16.0,30.0,20.0,30,786.0,square3,r,0.268,2,S,4.0
S4,31.0,23.0,25.0,26.0,30.0,23,809.0,square1,i,0.427,0,S,4.0
S4,32.0,21.0,26.0,22.0,23.0,26,835.0,square2,j,0.423,1,S,4.0
S4,33.0,25.0,22.0,24.0,17.0,17,852.0,square4,f,0.181,3,S,4.0
S4,34.0,30.0,22.0,33.0,24.0,33,885.0,square3,r,0.578,2,S,4.0
S4,35.0,23.0,21.0,35.0,26.0,26,911.0,square4,f,0.294,3,S,4.0
S4,36.0,19.0,21.0,33.0,24.0,33,944.0,square3,r,0.014,2,S,4.0
S4,37.0,20.0,17.0,26.0,26.0,26,970.0,square4,f,0.001,3,S,4.0
S4,38.0,28.0,20.0,28.0,26.0,28,998.0,square1,i,1.27,0,S,4.0
S4,39.0,28.0,23.0,40.0,27.0,23,1021.0,square2,j,0.392,1,S,4.0
S4,40.0,25.0,24.0,32.0,22.0,32,1053.0,square3,r,0.028,2,S,4.0
S4,41.0,23.0,23.0,26.0,17.0,17,1070.0,square4,f,0.092,3,S,4.0
S4,42.0,26.0,18.0,33.0,22.0,18,1088.0,square2,j,0.913,1,S,4.0
S4,43.0,22.0,21.0,36.0,25.0,22,1110.0,square1,i,1.401,0,S,4.0
S4,44.0,21.0,18.0,33.0,14.0,33,1143.0,square3,r,0.21,2,S,4.0
S4,45.0,29.0,19.0,30.0,29.0,29,1172.0,square4,f,1.078,3,S,4.0
S4,46.0,21.0,16.0,22.0,23.0,22,1194.0,square3,r,0.112,2,S,4.0
S4,47.0,22.0,18.0,28.0,22.0,18,1212.0,square2,j,0.467,1,S,4.0
S4,48.0,33.0,21.0,32.0,26.0,33,1245.0,square1,i,0.304,0,S,4.0
S4,49.0,23.0,17.0,20.0,21.0,20,1265.0,square3,r,0.286,2,S,4.0
S5,0.0,90.0,70.0,79.0,84.0,90,90.0,square1,r,0.969,0,S,5.0
S5,1.0,92.0,77.0,83.0,81.0,81,171.0,square4,i,0.344,3,S,5.0
S5,2.0,83.0,72.0,81.0,76.0,72,243.0,square2,f,0.277,1,S,5.0
S5,3.0,87.0,72.0,79.0,81.0,79,322.0,square3,j,0.161,2,S,5.0
S5,4.0,86.0,81.0,78.0,72.0,86,408.0,square1,r,0.198,0,S,5.0
S5,5.0,89.0,70.0,79.0,83.0,89,497.0,square1,r,0.177,0,S,5.0
S5,6.0,86.0,69.0,81.0,81.0,86,583.0,square1,r,0.189,0,S,5.0
S5,7.0,82.0,72.0,86.0,80.0,82,665.0,square1,r,0.047,0,S,5.0
S5,8.0,84.0,67.0,80.0,77.0,84,749.0,square1,r,0.448,0,S,5.0
S5,9.0,92.0,80.0,86.0,84.0,92,841.0,square1,r,0.439,0,S,5.0
S5,10.0,82.0,71.0,80.0,80.0,82,923.0,square1,r,0.216,0,S,5.0
S5,11.0,80.0,75.0,79.0,75.0,80,1003.0,square1,r,0.244,0,S,5.0
S5,12.0,84.0,75.0,80.0,82.0,84,1087.0,square1,r,0.288,0,S,5.0
S5,13.0,85.0,74.0,74.0,81.0,85,1172.0,square1,r,0.067,0,S,5.0
S5,14.0,81.0,79.0,85.0,81.0,81,1253.0,square1,r,0.056,0,S,5.0
S5,15.0,81.0,75.0,76.0,77.0,81,1334.0,square1,r,0.026,0,S,5.0
S5,16.0,86.0,74.0,78.0,74.0,86,1420.0,square1,r,0.06,0,S,5.0
S5,17.0,81.0,77.0,81.0,77.0,81,1501.0,square1,r,0.427,0,S,5.0
S5,18.0,87.0,70.0,84.0,82.0,87,1588.0,square1,r,0.883,0,S,5.0
S5,19.0,84.0,76.0,83.0,76.0,84,1672.0,square1,r,0.229,0,S,5.0
S5,20.0,79.0,78.0,82.0,76.0,79,1751.0,square1,r,0.078,0,S,5.0
S5,21.0,86.0,68.0,80.0,72.0,86,1837.0,square1,r,0.239,0,S,5.0
S5,22.0,93.0,80.0,85.0,84.0,93,1930.0,square1,r,0.046,0,S,5.0
S5,23.0,87.0,73.0,76.0,70.0,87,2017.0,square1,r,0.081,0,S,5.0
S5,24.0,85.0,69.0,81.0,78.0,85,2102.0,square1,r,0.03,0,S,5.0
S5,25.0,89.0,77.0,77.0,76.0,89,2191.0,square1,r,0.499,0,S,5.0
S5,26.0,84.0,71.0,81.0,75.0,84,2275.0,square1,r,0.145,0,S,5.0
S5,27.0,84.0,75.0,82.0,71.0,71,2346.0,square4,i,0.128,3,S,5.0
S5,28.0,83.0,72.0,82.0,78.0,82,2428.0,square3,j,0.168,2,S,5.0
S5,29.0,91.0,67.0,79.0,74.0,91,2519.0,square1,r,0.355,0,S,5.0
S5,30.0,82.0,69.0,81.0,77.0,69,2588.0,square2,f,0.244,1,S,5.0
S5,31.0,82.0,72.0,80.0,78.0,82,2670.0,square1,r,0.02,0,S,5.0
S5,32.0,83.0,73.0,91.0,80.0,83,2753.0,square1,r,0.044,0,S,5.0
S5,33.0,83.0,68.0,85.0,78.0,83,2836.0,square1,r,0.369,0,S,5.0
S5,34.0,89.0,79.0,83.0,77.0,89,2925.0,square1,r,0.111,0,S,5.0
S5,35.0,88.0,72.0,79.0,80.0,88,3013.0,square1,r,0.259,0,S,5.0
S5,36.0,90.0,74.0,84.0,76.0,90,3103.0,square1,r,0.244,0,S,5.0
S5,37.0,85.0,75.0,80.0,82.0,85,3188.0,square1,r,0.032,0,S,5.0
S5,38.0,78.0,74.0,85.0,79.0,78,3266.0,square1,r,0.11,0,S,5.0
S5,39.0,87.0,73.0,87.0,85.0,87,3353.0,square1,r,1.527,0,S,5.0
S5,40.0,83.0,67.0,81.0,80.0,83,3436.0,square1,r,0.011,0,S,5.0
S5,41.0,82.0,69.0,88.0,80.0,82,3518.0,square1,r,0.51,0,S,5.0
S5,42.0,85.0,78.0,91.0,80.0,85,3603.0,square1,r,0.197,0,S,5.0
S5,43.0,89.0,74.0,78.0,74.0,89,3692.0,square1,r,0.113,0,S,5.0
S5,44.0,90.0,74.0,77.0,85.0,90,3782.0,square1,r,0.125,0,S,5.0
S5,45.0,89.0,68.0,81.0,78.0,89,3871.0,square1,r,0.379,0,S,5.0
S5,46.0,86.0,70.0,86.0,68.0,86,3957.0,square1,r,0.362,0,S,5.0
S5,47.0,90.0,77.0,85.0,84.0,90,4047.0,square1,r,0.146,0,S,5.0
S5,48.0,76.0,66.0,82.0,79.0,76,4123.0,square1,r,0.25,0,S,5.0
S5,49.0,84.0,73.0,82.0,75.0,84,4207.0,square1,r,0.117,0,S,5.0
S7,0.0,68.0,73.0,62.0,57.0,57,57.0,square4,r,1.694,3,S,7.0
S7,1.0,74.0,67.0,66.0,59.0,66,123.0,square3,i,0.079,2,S,7.0
S7,2.0,68.0,69.0,65.0,60.0,68,191.0,square1,f,0.337,0,S,7.0
S7,3.0,74.0,68.0,65.0,63.0,68,259.0,square2,j,0.164,1,S,7.0
S7,4.0,68.0,74.0,67.0,63.0,74,333.0,square2,j,0.249,1,S,7.0
S7,5.0,68.0,67.0,61.0,57.0,67,400.0,square2,j,0.153,1,S,7.0
S7,6.0,72.0,64.0,65.0,51.0,64,464.0,square2,j,0.227,1,S,7.0
S7,7.0,69.0,63.0,69.0,63.0,63,527.0,square2,j,0.117,1,S,7.0
S7,8.0,71.0,68.0,63.0,54.0,54,581.0,square4,r,0.444,3,S,7.0
S7,9.0,81.0,66.0,68.0,62.0,62,643.0,square4,r,0.317,3,S,7.0
S7,10.0,72.0,73.0,68.0,61.0,61,704.0,square4,r,0.295,3,S,7.0
S7,11.0,72.0,72.0,62.0,58.0,58,762.0,square4,r,0.128,3,S,7.0
S7,12.0,66.0,66.0,62.0,61.0,66,828.0,square1,f,0.685,0,S,7.0
S7,13.0,73.0,75.0,75.0,68.0,73,901.0,square1,f,0.335,0,S,7.0
S7,14.0,71.0,73.0,72.0,66.0,71,972.0,square1,f,0.322,0,S,7.0
S7,15.0,75.0,68.0,68.0,65.0,75,1047.0,square1,f,0.193,0,S,7.0
S7,16.0,67.0,65.0,62.0,56.0,67,1114.0,square1,f,0.27,0,S,7.0
S7,17.0,72.0,67.0,63.0,64.0,72,1186.0,square1,f,0.164,0,S,7.0
S7,18.0,73.0,69.0,66.0,65.0,73,1259.0,square1,f,0.096,0,S,7.0
S7,19.0,75.0,70.0,62.0,58.0,75,1334.0,square1,f,0.75,0,S,7.0
S7,20.0,76.0,63.0,67.0,62.0,76,1410.0,square1,f,1.08,0,S,7.0
S7,21.0,79.0,76.0,63.0,64.0,79,1489.0,square1,f,0.344,0,S,7.0
S7,22.0,67.0,72.0,63.0,62.0,67,1556.0,square1,f,0.338,0,S,7.0
S7,23.0,69.0,71.0,70.0,62.0,69,1625.0,square1,f,0.328,0,S,7.0
S7,24.0,74.0,67.0,70.0,62.0,74,1699.0,square1,f,0.183,0,S,7.0
S7,25.0,70.0,67.0,72.0,62.0,70,1769.0,square1,f,0.156,0,S,7.0
S7,26.0,72.0,62.0,74.0,65.0,72,1841.0,square1,f,0.179,0,S,7.0
S7,27.0,69.0,70.0,68.0,62.0,69,1910.0,square1,f,0.137,0,S,7.0
S7,28.0,65.0,66.0,60.0,62.0,65,1975.0,square1,f,0.203,0,S,7.0
S7,29.0,70.0,64.0,60.0,68.0,70,2045.0,square1,f,0.04,0,S,7.0
S7,30.0,69.0,69.0,64.0,57.0,69,2114.0,square1,f,0.201,0,S,7.0
S7,31.0,77.0,67.0,65.0,60.0,77,2191.0,square1,f,0.236,0,S,7.0
S7,32.0,67.0,75.0,65.0,58.0,67,2258.0,square1,f,0.327,0,S,7.0
S7,33.0,74.0,66.0,66.0,60.0,74,2332.0,square1,f,0.194,0,S,7.0
S7,34.0,72.0,72.0,66.0,61.0,72,2404.0,square1,f,0.129,0,S,7.0
S7,35.0,67.0,68.0,64.0,62.0,67,2471.0,square1,f,0.248,0,S,7.0
S7,36.0,64.0,63.0,70.0,58.0,64,2535.0,square1,f,0.129,0,S,7.0
S7,37.0,80.0,72.0,64.0,53.0,80,2615.0,square1,f,0.105,0,S,7.0
S7,38.0,78.0,69.0,76.0,67.0,78,2693.0,square1,f,0.211,0,S,7.0
S7,39.0,69.0,66.0,60.0,67.0,69,2762.0,square1,f,0.094,0,S,7.0
S7,40.0,72.0,71.0,63.0,66.0,72,2834.0,square1,f,0.183,0,S,7.0
S7,41.0,80.0,73.0,65.0,63.0,80,2914.0,square1,f,0.421,0,S,7.0
S7,42.0,77.0,60.0,65.0,59.0,77,2991.0,square1,f,0.028,0,S,7.0
S7,43.0,70.0,72.0,70.0,63.0,70,3061.0,square1,f,0.018,0,S,7.0
S7,44.0,77.0,70.0,66.0,58.0,77,3138.0,square1,f,0.36,0,S,7.0
S7,45.0,75.0,69.0,73.0,58.0,75,3213.0,square1,f,0.111,0,S,7.0
S7,46.0,74.0,71.0,63.0,63.0,74,3287.0,square1,f,0.128,0,S,7.0
S7,47.0,73.0,75.0,71.0,64.0,73,3360.0,square1,f,0.077,0,S,7.0
S7,48.0,78.0,79.0,64.0,58.0,78,3438.0,square1,f,0.047,0,S,7.0
S7,49.0,75.0,72.0,66.0,72.0,75,3513.0,square1,f,0.096,0,S,7.0
S12,0.0,38.0,42.0,30.0,42.0,30,30.0,square3,r,1.24,2,S,12.0
S12,1.0,30.0,42.0,28.0,37.0,42,72.0,square2,i,0.148,1,S,12.0
S12,2.0,34.0,41.0,38.0,43.0,43,115.0,square4,f,0.119,3,S,12.0
S12,3.0,38.0,51.0,38.0,38.0,38,153.0,square1,j,0.261,0,S,12.0
S12,4.0,32.0,37.0,33.0,45.0,33,186.0,square3,r,0.256,2,S,12.0
S12,5.0,38.0,52.0,36.0,35.0,52,238.0,square2,i,0.066,1,S,12.0
S12,6.0,30.0,43.0,30.0,38.0,38,276.0,square4,f,0.131,3,S,12.0
S12,7.0,38.0,39.0,30.0,39.0,38,314.0,square1,j,0.487,0,S,12.0
S12,8.0,37.0,49.0,35.0,38.0,49,363.0,square2,i,0.17,1,S,12.0
S12,9.0,37.0,44.0,29.0,38.0,44,407.0,square2,i,0.127,1,S,12.0
S12,10.0,35.0,42.0,30.0,45.0,42,449.0,square2,i,0.161,1,S,12.0
S12,11.0,34.0,45.0,36.0,32.0,45,494.0,square2,i,0.182,1,S,12.0
S12,12.0,33.0,45.0,35.0,42.0,45,539.0,square2,i,0.013,1,S,12.0
S12,13.0,36.0,36.0,29.0,40.0,36,575.0,square2,i,0.295,1,S,12.0
S12,14.0,36.0,49.0,32.0,42.0,49,624.0,square2,i,0.181,1,S,12.0
S12,15.0,35.0,43.0,35.0,46.0,43,667.0,square2,i,0.144,1,S,12.0
S12,16.0,39.0,48.0,41.0,43.0,48,715.0,square2,i,0.501,1,S,12.0
S12,17.0,35.0,47.0,27.0,38.0,47,762.0,square2,i,1.096,1,S,12.0
S12,18.0,37.0,51.0,33.0,33.0,51,813.0,square2,i,0.768,1,S,12.0
S12,19.0,41.0,42.0,33.0,36.0,42,855.0,square2,i,0.078,1,S,12.0
S12,20.0,34.0,44.0,26.0,41.0,44,899.0,square2,i,0.777,1,S,12.0
S12,21.0,35.0,37.0,29.0,35.0,37,936.0,square2,i,0.62,1,S,12.0
S12,22.0,37.0,48.0,31.0,41.0,48,984.0,square2,i,1.009,1,S,12.0
S12,23.0,36.0,43.0,27.0,45.0,43,1027.0,square2,i,0.93,1,S,12.0
S12,24.0,39.0,48.0,38.0,38.0,48,1075.0,square2,i,0.469,1,S,12.0
S12,25.0,31.0,43.0,30.0,40.0,43,1118.0,square2,i,0.103,1,S,12.0
S12,26.0,35.0,48.0,34.0,33.0,48,1166.0,square2,i,0.763,1,S,12.0
S12,27.0,46.0,46.0,28.0,38.0,46,1212.0,square2,i,0.311,1,S,12.0
S12,28.0,32.0,37.0,32.0,40.0,37,1249.0,square2,i,0.001,1,S,12.0
S12,29.0,38.0,41.0,32.0,44.0,41,1290.0,square2,i,0.15,1,S,12.0
S12,30.0,32.0,48.0,29.0,42.0,48,1338.0,square2,i,0.627,1,S,12.0
S12,31.0,34.0,46.0,30.0,42.0,46,1384.0,square2,i,0.348,1,S,12.0
S12,32.0,39.0,43.0,41.0,40.0,43,1427.0,square2,i,0.785,1,S,12.0
S12,33.0,36.0,47.0,33.0,46.0,47,1474.0,square2,i,0.685,1,S,12.0
S12,34.0,36.0,41.0,34.0,41.0,41,1515.0,square2,i,0.403,1,S,12.0
S12,35.0,34.0,42.0,31.0,43.0,42,1557.0,square2,i,0.266,1,S,12.0
S12,36.0,39.0,43.0,26.0,33.0,43,1600.0,square2,i,0.427,1,S,12.0
S12,37.0,39.0,49.0,30.0,42.0,49,1649.0,square2,i,0.911,1,S,12.0
S12,38.0,33.0,47.0,36.0,41.0,47,1696.0,square2,i,0.262,1,S,12.0
S12,39.0,29.0,46.0,35.0,36.0,46,1742.0,square2,i,0.198,1,S,12.0
S12,40.0,39.0,39.0,29.0,36.0,39,1781.0,square2,i,0.546,1,S,12.0
S12,41.0,33.0,44.0,31.0,40.0,44,1825.0,square2,i,0.177,1,S,12.0
S12,42.0,34.0,46.0,25.0,37.0,46,1871.0,square2,i,0.338,1,S,12.0
S12,43.0,37.0,42.0,30.0,42.0,42,1913.0,square2,i,1.161,1,S,12.0
S12,44.0,33.0,49.0,36.0,39.0,49,1962.0,square2,i,0.336,1,S,12.0
S12,45.0,35.0,40.0,30.0,47.0,40,2002.0,square2,i,0.244,1,S,12.0
S12,46.0,40.0,41.0,29.0,35.0,41,2043.0,square2,i,0.293,1,S,12.0
S12,47.0,32.0,42.0,28.0,43.0,42,2085.0,square2,i,0.284,1,S,12.0
S12,48.0,43.0,47.0,31.0,38.0,47,2132.0,square2,i,0.251,1,S,12.0
S12,49.0,37.0,41.0,35.0,40.0,41,2173.0,square2,i,0.106,1,S,12.0
V11,0.0,42.0,67.0,57.0,49.0,49,49.0,square4,r,1.118,3,V,11.0
V11,1.0,42.0,71.0,60.0,53.0,60,109.0,square3,i,0.534,2,V,11.0
V11,2.0,45.0,76.0,58.0,51.0,76,185.0,square2,j,0.336,1,V,11.0
V11,3.0,44.0,65.0,60.0,49.0,60,245.0,square3,i,0.394,2,V,11.0
V11,4.0,46.0,73.0,64.0,51.0,64,309.0,square3,i,0.762,2,V,11.0
V11,5.0,47.0,67.0,58.0,54.0,58,367.0,square3,i,0.295,2,V,11.0
V11,6.0,43.0,68.0,58.0,50.0,58,425.0,square3,i,0.411,2,V,11.0
V11,7.0,42.0,67.0,60.0,58.0,42,467.0,square1,f,0.364,0,V,11.0
V11,8.0,44.0,67.0,60.0,53.0,60,527.0,square3,i,0.27,2,V,11.0
V11,9.0,44.0,67.0,59.0,54.0,44,571.0,square1,f,0.273,0,V,11.0
V11,10.0,49.0,76.0,57.0,52.0,76,647.0,square2,j,0.178,1,V,11.0
V11,11.0,45.0,71.0,58.0,51.0,71,718.0,square2,j,0.195,1,V,11.0
V11,12.0,45.0,72.0,58.0,56.0,72,790.0,square2,j,0.276,1,V,11.0
V11,13.0,49.0,67.0,63.0,54.0,67,857.0,square2,j,0.174,1,V,11.0
V11,14.0,50.0,75.0,57.0,48.0,75,932.0,square2,j,0.139,1,V,11.0
V11,15.0,40.0,71.0,61.0,51.0,71,1003.0,square2,j,0.628,1,V,11.0
V11,16.0,47.0,72.0,56.0,54.0,72,1075.0,square2,j,0.211,1,V,11.0
V11,17.0,40.0,71.0,61.0,46.0,71,1146.0,square2,j,0.039,1,V,11.0
V11,18.0,44.0,69.0,59.0,51.0,69,1215.0,square2,j,0.301,1,V,11.0
V11,19.0,44.0,73.0,59.0,47.0,73,1288.0,square2,j,0.99,1,V,11.0
V11,20.0,47.0,69.0,64.0,54.0,69,1357.0,square2,j,0.778,1,V,11.0
V11,21.0,78.0,49.0,70.0,65.0,49,1406.0,square2,j,0.112,1,V,11.0
V11,22.0,78.0,56.0,73.0,62.0,56,1462.0,square2,j,0.914,1,V,11.0
V11,23.0,84.0,54.0,71.0,65.0,54,1516.0,square2,j,0.364,1,V,11.0
V11,24.0,80.0,55.0,72.0,67.0,55,1571.0,square2,j,0.215,1,V,11.0
V11,25.0,80.0,55.0,75.0,63.0,55,1626.0,square2,j,0.611,1,V,11.0
V11,26.0,80.0,56.0,67.0,62.0,56,1682.0,square2,j,0.577,1,V,11.0
V11,27.0,80.0,51.0,68.0,62.0,51,1733.0,square2,j,0.258,1,V,11.0
V11,28.0,79.0,57.0,67.0,57.0,57,1790.0,square2,j,1.167,1,V,11.0
V11,29.0,79.0,50.0,67.0,62.0,50,1840.0,square2,j,0.512,1,V,11.0
V11,30.0,88.0,54.0,74.0,61.0,54,1894.0,square2,j,0.896,1,V,11.0
V11,31.0,81.0,51.0,75.0,63.0,51,1945.0,square2,j,0.551,1,V,11.0
V11,32.0,76.0,51.0,69.0,65.0,51,1996.0,square2,j,0.518,1,V,11.0
V11,33.0,78.0,54.0,72.0,64.0,54,2050.0,square2,j,0.381,1,V,11.0
V11,34.0,77.0,53.0,71.0,62.0,53,2103.0,square2,j,0.32,1,V,11.0
V11,35.0,74.0,59.0,75.0,62.0,59,2162.0,square2,j,0.225,1,V,11.0
V11,36.0,79.0,50.0,72.0,62.0,50,2212.0,square2,j,0.229,1,V,11.0
V11,37.0,74.0,54.0,68.0,62.0,54,2266.0,square2,j,0.152,1,V,11.0
V11,38.0,80.0,57.0,65.0,58.0,57,2323.0,square2,j,0.264,1,V,11.0
V11,39.0,73.0,52.0,75.0,66.0,52,2375.0,square2,j,0.328,1,V,11.0
V11,40.0,82.0,57.0,71.0,57.0,71,2446.0,square3,i,0.137,2,V,11.0
V11,41.0,78.0,53.0,73.0,64.0,78,2524.0,square1,f,1.384,0,V,11.0
V11,42.0,72.0,56.0,67.0,59.0,72,2596.0,square1,f,0.393,0,V,11.0
V11,43.0,81.0,54.0,73.0,63.0,81,2677.0,square1,f,0.334,0,V,11.0
V11,44.0,76.0,54.0,75.0,59.0,76,2753.0,square1,f,0.315,0,V,11.0
V11,45.0,79.0,59.0,71.0,64.0,79,2832.0,square1,f,0.228,0,V,11.0
V11,46.0,80.0,55.0,67.0,57.0,80,2912.0,square1,f,0.527,0,V,11.0
V11,47.0,84.0,53.0,75.0,56.0,84,2996.0,square1,f,0.227,0,V,11.0
V11,48.0,83.0,57.0,71.0,60.0,83,3079.0,square1,f,0.745,0,V,11.0
V11,49.0,79.0,52.0,71.0,60.0,79,3158.0,square1,f,0.212,0,V,11.0
V11,50.0,76.0,50.0,69.0,60.0,76,3234.0,square1,f,0.139,0,V,11.0
V11,51.0,79.0,54.0,72.0,57.0,79,3313.0,square1,f,0.27,0,V,11.0
V11,52.0,80.0,54.0,72.0,64.0,80,3393.0,square1,f,0.098,0,V,11.0
V11,53.0,35.0,50.0,55.0,69.0,35,3428.0,square1,f,0.132,0,V,11.0
V11,54.0,45.0,48.0,55.0,73.0,45,3473.0,square1,f,0.044,0,V,11.0
V11,55.0,43.0,53.0,58.0,70.0,43,3516.0,square1,f,0.085,0,V,11.0
V11,56.0,40.0,46.0,60.0,62.0,40,3556.0,square1,f,0.162,0,V,11.0
V11,57.0,44.0,46.0,53.0,71.0,44,3600.0,square1,f,0.462,0,V,11.0
V11,58.0,44.0,52.0,55.0,68.0,44,3644.0,square1,f,0.319,0,V,11.0
V11,59.0,44.0,44.0,57.0,66.0,44,3688.0,square1,f,0.004,0,V,11.0
V11,60.0,40.0,46.0,57.0,62.0,62,3750.0,square4,r,0.6,3,V,11.0
V11,61.0,42.0,52.0,58.0,62.0,62,3812.0,square4,r,0.329,3,V,11.0
V11,62.0,40.0,49.0,56.0,71.0,49,3861.0,square2,j,1.217,1,V,11.0
V11,63.0,40.0,54.0,60.0,66.0,54,3915.0,square2,j,0.247,1,V,11.0
V11,64.0,41.0,43.0,51.0,66.0,43,3958.0,square2,j,0.385,1,V,11.0
V11,65.0,39.0,48.0,59.0,66.0,59,4017.0,square3,i,0.228,2,V,11.0
V11,66.0,40.0,48.0,59.0,69.0,59,4076.0,square3,i,0.123,2,V,11.0
V11,67.0,46.0,45.0,58.0,69.0,58,4134.0,square3,i,0.031,2,V,11.0
V11,68.0,41.0,50.0,56.0,69.0,56,4190.0,square3,i,0.249,2,V,11.0
V11,69.0,48.0,49.0,57.0,71.0,48,4238.0,square1,f,0.276,0,V,11.0
V11,70.0,41.0,47.0,58.0,65.0,41,4279.0,square1,f,0.297,0,V,11.0
V11,71.0,37.0,46.0,58.0,60.0,37,4316.0,square1,f,0.276,0,V,11.0
V11,72.0,41.0,47.0,54.0,65.0,41,4357.0,square1,f,0.181,0,V,11.0
V11,73.0,42.0,47.0,60.0,67.0,42,4399.0,square1,f,0.232,0,V,11.0
V11,74.0,43.0,49.0,57.0,64.0,43,4442.0,square1,f,0.194,0,V,11.0
V11,75.0,38.0,46.0,57.0,66.0,38,4480.0,square1,f,0.178,0,V,11.0
V11,76.0,42.0,50.0,58.0,68.0,42,4522.0,square1,f,0.093,0,V,11.0
V11,77.0,36.0,49.0,58.0,64.0,36,4558.0,square1,f,0.06,0,V,11.0
V11,78.0,40.0,50.0,56.0,67.0,67,4625.0,square4,r,0.042,3,V,11.0
V11,79.0,39.0,48.0,56.0,67.0,67,4692.0,square4,r,0.183,3,V,11.0
V11,80.0,51.0,33.0,30.0,45.0,45,4737.0,square4,r,0.538,3,V,11.0
V11,81.0,49.0,31.0,23.0,48.0,48,4785.0,square4,r,0.331,3,V,11.0
V11,82.0,55.0,30.0,25.0,42.0,42,4827.0,square4,r,0.148,3,V,11.0
V11,83.0,50.0,33.0,27.0,48.0,48,4875.0,square4,r,0.187,3,V,11.0
V11,84.0,52.0,34.0,25.0,43.0,43,4918.0,square4,r,0.193,3,V,11.0
V11,85.0,49.0,28.0,28.0,44.0,44,4962.0,square4,r,0.058,3,V,11.0
V11,86.0,57.0,29.0,27.0,48.0,48,5010.0,square4,r,0.203,3,V,11.0
V11,87.0,49.0,29.0,21.0,38.0,38,5048.0,square4,r,0.096,3,V,11.0
V11,88.0,55.0,32.0,29.0,46.0,55,5103.0,square1,f,0.0,0,V,11.0
V11,89.0,50.0,28.0,23.0,43.0,50,5153.0,square1,f,0.261,0,V,11.0
V11,90.0,54.0,34.0,32.0,41.0,54,5207.0,square1,f,0.115,0,V,11.0
V11,91.0,50.0,34.0,26.0,44.0,50,5257.0,square1,f,0.15,0,V,11.0
V11,92.0,51.0,31.0,27.0,50.0,51,5308.0,square1,f,0.001,0,V,11.0
V11,93.0,49.0,38.0,28.0,42.0,49,5357.0,square1,f,0.073,0,V,11.0
V11,94.0,50.0,29.0,25.0,46.0,50,5407.0,square1,f,0.167,0,V,11.0
V11,95.0,51.0,36.0,22.0,40.0,22,5429.0,square3,i,0.061,2,V,11.0
V11,96.0,52.0,34.0,32.0,45.0,34,5463.0,square2,j,0.137,1,V,11.0
V11,97.0,53.0,27.0,32.0,44.0,44,5507.0,square4,r,0.092,3,V,11.0
V11,98.0,60.0,31.0,25.0,48.0,60,5567.0,square1,f,0.103,0,V,11.0
V11,99.0,53.0,33.0,23.0,42.0,53,5620.0,square1,f,0.01,0,V,11.0
V1,0.0,46.0,61.0,52.0,71.0,52,52.0,square3,r,0.8,2,V,1.0
V1,1.0,45.0,63.0,54.0,78.0,63,115.0,square2,f,0.313,1,V,1.0
V1,2.0,51.0,58.0,59.0,77.0,59,174.0,square3,r,0.31,2,V,1.0
V1,3.0,53.0,65.0,56.0,75.0,65,239.0,square2,f,0.22,1,V,1.0
V1,4.0,49.0,68.0,53.0,72.0,49,288.0,square1,i,0.046,0,V,1.0
V1,5.0,47.0,70.0,59.0,76.0,76,364.0,square4,j,0.306,3,V,1.0
V1,6.0,55.0,63.0,54.0,76.0,76,440.0,square4,j,0.311,3,V,1.0
V1,7.0,47.0,67.0,55.0,74.0,74,514.0,square4,j,0.3,3,V,1.0
V1,8.0,47.0,65.0,46.0,76.0,76,590.0,square4,j,0.303,3,V,1.0
V1,9.0,46.0,68.0,59.0,78.0,78,668.0,square4,j,0.263,3,V,1.0
V1,10.0,58.0,67.0,58.0,79.0,79,747.0,square4,j,0.236,3,V,1.0
V1,11.0,44.0,61.0,54.0,72.0,72,819.0,square4,j,0.26,3,V,1.0
V1,12.0,44.0,65.0,56.0,75.0,75,894.0,square4,j,0.142,3,V,1.0
V1,13.0,47.0,63.0,53.0,73.0,73,967.0,square4,j,0.162,3,V,1.0
V1,14.0,49.0,66.0,56.0,75.0,75,1042.0,square4,j,0.209,3,V,1.0
V1,15.0,49.0,66.0,52.0,79.0,49,1091.0,square1,i,0.0,0,V,1.0
V1,16.0,51.0,61.0,48.0,72.0,72,1163.0,square4,j,0.428,3,V,1.0
V1,17.0,46.0,61.0,59.0,71.0,71,1234.0,square4,j,0.21,3,V,1.0
V1,18.0,45.0,61.0,53.0,72.0,72,1306.0,square4,j,0.359,3,V,1.0
V1,19.0,49.0,63.0,54.0,76.0,76,1382.0,square4,j,0.232,3,V,1.0
V1,20.0,46.0,66.0,52.0,72.0,72,1454.0,square4,j,0.316,3,V,1.0
V1,21.0,50.0,65.0,51.0,73.0,73,1527.0,square4,j,0.261,3,V,1.0
V1,22.0,56.0,62.0,56.0,77.0,77,1604.0,square4,j,0.115,3,V,1.0
V1,23.0,45.0,67.0,54.0,83.0,83,1687.0,square4,j,0.126,3,V,1.0
V1,24.0,46.0,69.0,57.0,71.0,71,1758.0,square4,j,0.128,3,V,1.0
V1,25.0,41.0,65.0,55.0,76.0,76,1834.0,square4,j,0.228,3,V,1.0
V1,26.0,51.0,60.0,55.0,74.0,74,1908.0,square4,j,0.027,3,V,1.0
V1,27.0,52.0,63.0,56.0,73.0,73,1981.0,square4,j,0.086,3,V,1.0
V1,28.0,50.0,68.0,50.0,76.0,76,2057.0,square4,j,0.128,3,V,1.0
V1,29.0,51.0,60.0,54.0,74.0,74,2131.0,square4,j,0.062,3,V,1.0
V1,30.0,35.0,67.0,57.0,40.0,40,2171.0,square4,j,0.094,3,V,1.0
V1,31.0,38.0,60.0,52.0,35.0,35,2206.0,square4,j,0.077,3,V,1.0
V1,32.0,37.0,67.0,52.0,41.0,41,2247.0,square4,j,0.712,3,V,1.0
V1,33.0,37.0,62.0,53.0,42.0,42,2289.0,square4,j,0.246,3,V,1.0
V1,34.0,35.0,58.0,54.0,43.0,43,2332.0,square4,j,0.569,3,V,1.0
V1,35.0,40.0,60.0,50.0,44.0,44,2376.0,square4,j,0.767,3,V,1.0
V1,36.0,39.0,66.0,50.0,39.0,39,2415.0,square4,j,0.135,3,V,1.0
V1,37.0,32.0,59.0,54.0,38.0,38,2453.0,square4,j,0.143,3,V,1.0
V1,38.0,32.0,64.0,50.0,39.0,39,2492.0,square4,j,0.064,3,V,1.0
V1,39.0,37.0,60.0,45.0,40.0,40,2532.0,square4,j,0.478,3,V,1.0
V1,40.0,35.0,61.0,54.0,43.0,43,2575.0,square4,j,0.127,3,V,1.0
V1,41.0,33.0,62.0,49.0,42.0,42,2617.0,square4,j,0.36,3,V,1.0
V1,42.0,31.0,70.0,52.0,42.0,31,2648.0,square1,i,0.278,0,V,1.0
V1,43.0,37.0,59.0,48.0,41.0,37,2685.0,square1,i,0.259,0,V,1.0
V1,44.0,39.0,63.0,53.0,44.0,63,2748.0,square2,f,0.059,1,V,1.0
V1,45.0,37.0,62.0,48.0,41.0,48,2796.0,square3,r,0.159,2,V,1.0
V1,46.0,34.0,65.0,52.0,39.0,65,2861.0,square2,f,0.229,1,V,1.0
V1,47.0,42.0,59.0,52.0,43.0,59,2920.0,square2,f,0.145,1,V,1.0
V1,48.0,39.0,62.0,50.0,38.0,62,2982.0,square2,f,0.095,1,V,1.0
V1,49.0,33.0,63.0,49.0,40.0,63,3045.0,square2,f,0.144,1,V,1.0
V1,50.0,38.0,66.0,54.0,37.0,66,3111.0,square2,f,0.027,1,V,1.0
V1,51.0,33.0,66.0,50.0,37.0,66,3177.0,square2,f,0.276,1,V,1.0
V1,52.0,41.0,65.0,55.0,44.0,65,3242.0,square2,f,0.115,1,V,1.0
V1,53.0,75.0,50.0,46.0,60.0,50,3292.0,square2,f,0.428,1,V,1.0
V1,54.0,74.0,53.0,45.0,61.0,53,3345.0,square2,f,0.637,1,V,1.0
V1,55.0,74.0,54.0,43.0,65.0,54,3399.0,square2,f,0.003,1,V,1.0
V1,56.0,73.0,54.0,44.0,56.0,54,3453.0,square2,f,0.158,1,V,1.0
V1,57.0,67.0,58.0,52.0,63.0,58,3511.0,square2,f,1.115,1,V,1.0
V1,58.0,72.0,51.0,43.0,62.0,51,3562.0,square2,f,0.143,1,V,1.0
V1,59.0,68.0,47.0,49.0,56.0,47,3609.0,square2,f,0.167,1,V,1.0
V1,60.0,72.0,55.0,46.0,65.0,55,3664.0,square2,f,0.146,1,V,1.0
V1,61.0,76.0,50.0,46.0,62.0,50,3714.0,square2,f,0.204,1,V,1.0
V1,62.0,77.0,58.0,46.0,66.0,46,3760.0,square3,r,0.131,2,V,1.0
V1,63.0,72.0,53.0,48.0,66.0,53,3813.0,square2,f,0.093,1,V,1.0
V1,64.0,70.0,49.0,49.0,60.0,49,3862.0,square3,r,0.032,2,V,1.0
V1,65.0,68.0,49.0,46.0,66.0,46,3908.0,square3,r,0.122,2,V,1.0
V1,66.0,77.0,52.0,41.0,64.0,77,3985.0,square1,i,0.036,0,V,1.0
V1,67.0,74.0,56.0,42.0,69.0,74,4059.0,square1,i,0.294,0,V,1.0
V1,68.0,77.0,50.0,46.0,68.0,77,4136.0,square1,i,0.401,0,V,1.0
V1,69.0,76.0,48.0,45.0,63.0,76,4212.0,square1,i,0.261,0,V,1.0
V1,70.0,71.0,53.0,50.0,65.0,71,4283.0,square1,i,0.215,0,V,1.0
V1,71.0,70.0,56.0,44.0,59.0,70,4353.0,square1,i,0.211,0,V,1.0
V1,72.0,74.0,54.0,55.0,61.0,74,4427.0,square1,i,0.189,0,V,1.0
V1,73.0,73.0,53.0,47.0,61.0,73,4500.0,square1,i,0.261,0,V,1.0
V1,74.0,71.0,53.0,51.0,65.0,71,4571.0,square1,i,0.098,0,V,1.0
V1,75.0,72.0,51.0,48.0,64.0,72,4643.0,square1,i,0.088,0,V,1.0
V1,76.0,72.0,53.0,49.0,62.0,72,4715.0,square1,i,0.15,0,V,1.0
V1,77.0,62.0,76.0,64.0,86.0,62,4777.0,square1,i,0.065,0,V,1.0
V1,78.0,61.0,74.0,63.0,87.0,61,4838.0,square1,i,0.158,0,V,1.0
V1,79.0,56.0,78.0,67.0,89.0,56,4894.0,square1,i,0.104,0,V,1.0
V1,80.0,59.0,75.0,63.0,84.0,59,4953.0,square1,i,0.095,0,V,1.0
V1,81.0,63.0,74.0,68.0,82.0,63,5016.0,square1,i,0.127,0,V,1.0
V1,82.0,59.0,75.0,67.0,80.0,59,5075.0,square1,i,0.217,0,V,1.0
V1,83.0,58.0,77.0,63.0,82.0,58,5133.0,square1,i,0.211,0,V,1.0
V1,84.0,57.0,76.0,64.0,87.0,57,5190.0,square1,i,0.147,0,V,1.0
V1,85.0,61.0,73.0,66.0,83.0,61,5251.0,square1,i,0.044,0,V,1.0
V1,86.0,60.0,71.0,66.0,85.0,60,5311.0,square1,i,0.055,0,V,1.0
V1,87.0,61.0,80.0,73.0,84.0,61,5372.0,square1,i,0.72,0,V,1.0
V1,88.0,67.0,77.0,67.0,85.0,67,5439.0,square1,i,0.063,0,V,1.0
V1,89.0,60.0,79.0,63.0,86.0,60,5499.0,square1,i,0.104,0,V,1.0
V1,90.0,60.0,74.0,66.0,88.0,60,5559.0,square1,i,0.599,0,V,1.0
V1,91.0,57.0,81.0,61.0,79.0,57,5616.0,square1,i,0.226,0,V,1.0
V1,92.0,61.0,78.0,61.0,84.0,61,5677.0,square1,i,0.011,0,V,1.0
V1,93.0,64.0,72.0,69.0,83.0,64,5741.0,square1,i,0.123,0,V,1.0
V1,94.0,64.0,73.0,68.0,83.0,64,5805.0,square1,i,0.237,0,V,1.0
V1,95.0,61.0,69.0,68.0,87.0,61,5866.0,square1,i,0.271,0,V,1.0
V1,96.0,55.0,77.0,65.0,88.0,55,5921.0,square1,i,0.051,0,V,1.0
V1,97.0,61.0,75.0,63.0,82.0,61,5982.0,square1,i,0.179,0,V,1.0
V1,98.0,59.0,71.0,66.0,82.0,59,6041.0,square1,i,0.028,0,V,1.0
V1,99.0,61.0,69.0,67.0,84.0,61,6102.0,square1,i,0.121,0,V,1.0
V3,0.0,62.0,45.0,70.0,53.0,45,45.0,square2,r,1.275,1,V,3.0
V3,1.0,63.0,47.0,76.0,60.0,60,105.0,square4,i,0.338,3,V,3.0
V3,2.0,65.0,54.0,73.0,57.0,65,170.0,square1,f,0.326,0,V,3.0
V3,3.0,68.0,51.0,71.0,51.0,71,241.0,square3,j,0.414,2,V,3.0
V3,4.0,61.0,49.0,75.0,53.0,75,316.0,square3,j,0.272,2,V,3.0
V3,5.0,65.0,47.0,74.0,50.0,74,390.0,square3,j,0.293,2,V,3.0
V3,6.0,61.0,51.0,72.0,57.0,72,462.0,square3,j,0.111,2,V,3.0
V3,7.0,67.0,49.0,75.0,55.0,75,537.0,square3,j,0.127,2,V,3.0
V3,8.0,64.0,48.0,76.0,56.0,76,613.0,square3,j,0.043,2,V,3.0
V3,9.0,67.0,49.0,71.0,56.0,71,684.0,square3,j,0.011,2,V,3.0
V3,10.0,65.0,50.0,71.0,56.0,71,755.0,square3,j,0.062,2,V,3.0
V3,11.0,63.0,43.0,78.0,58.0,78,833.0,square3,j,0.113,2,V,3.0
V3,12.0,66.0,53.0,73.0,54.0,73,906.0,square3,j,0.044,2,V,3.0
V3,13.0,64.0,46.0,78.0,51.0,78,984.0,square3,j,0.132,2,V,3.0
V3,14.0,67.0,51.0,71.0,58.0,71,1055.0,square3,j,0.097,2,V,3.0
V3,15.0,61.0,50.0,73.0,54.0,73,1128.0,square3,j,0.021,2,V,3.0
V3,16.0,64.0,52.0,74.0,54.0,74,1202.0,square3,j,0.459,2,V,3.0
V3,17.0,61.0,48.0,74.0,55.0,74,1276.0,square3,j,0.245,2,V,3.0
V3,18.0,65.0,50.0,70.0,59.0,70,1346.0,square3,j,0.001,2,V,3.0
V3,19.0,64.0,52.0,76.0,56.0,76,1422.0,square3,j,0.143,2,V,3.0
V3,20.0,64.0,50.0,69.0,58.0,69,1491.0,square3,j,0.054,2,V,3.0
V3,21.0,66.0,50.0,72.0,56.0,72,1563.0,square3,j,0.161,2,V,3.0
V3,22.0,43.0,48.0,40.0,62.0,40,1603.0,square3,j,0.076,2,V,3.0
V3,23.0,41.0,51.0,35.0,59.0,35,1638.0,square3,j,0.179,2,V,3.0
V3,24.0,51.0,51.0,37.0,60.0,37,1675.0,square3,j,0.176,2,V,3.0
V3,25.0,45.0,53.0,36.0,57.0,36,1711.0,square3,j,0.082,2,V,3.0
V3,26.0,44.0,51.0,38.0,59.0,38,1749.0,square3,j,0.37,2,V,3.0
V3,27.0,43.0,51.0,34.0,66.0,34,1783.0,square3,j,0.046,2,V,3.0
V3,28.0,47.0,51.0,40.0,67.0,40,1823.0,square3,j,0.214,2,V,3.0
V3,29.0,42.0,55.0,35.0,65.0,35,1858.0,square3,j,0.172,2,V,3.0
V3,30.0,49.0,54.0,36.0,62.0,36,1894.0,square3,j,0.061,2,V,3.0
V3,31.0,50.0,53.0,42.0,66.0,42,1936.0,square3,j,0.013,2,V,3.0
V3,32.0,47.0,53.0,34.0,58.0,34,1970.0,square3,j,0.027,2,V,3.0
V3,33.0,45.0,56.0,34.0,62.0,62,2032.0,square4,i,0.335,3,V,3.0
V3,34.0,48.0,54.0,38.0,64.0,64,2096.0,square4,i,0.041,3,V,3.0
V3,35.0,39.0,55.0,42.0,65.0,39,2135.0,square1,f,0.204,0,V,3.0
V3,36.0,46.0,57.0,41.0,63.0,46,2181.0,square1,f,0.109,0,V,3.0
V3,37.0,43.0,54.0,41.0,65.0,54,2235.0,square2,r,0.179,1,V,3.0
V3,38.0,47.0,52.0,37.0,63.0,52,2287.0,square2,r,0.213,1,V,3.0
V3,39.0,47.0,53.0,38.0,55.0,53,2340.0,square2,r,0.031,1,V,3.0
V3,40.0,41.0,54.0,39.0,64.0,39,2379.0,square3,j,0.11,2,V,3.0
V3,41.0,48.0,52.0,38.0,64.0,38,2417.0,square3,j,0.07,2,V,3.0
V3,42.0,45.0,50.0,34.0,63.0,63,2480.0,square4,i,0.011,3,V,3.0
V3,43.0,44.0,50.0,34.0,62.0,62,2542.0,square4,i,0.222,3,V,3.0
V3,44.0,47.0,55.0,39.0,65.0,65,2607.0,square4,i,0.129,3,V,3.0
V3,45.0,45.0,55.0,31.0,63.0,63,2670.0,square4,i,0.114,3,V,3.0
V3,46.0,42.0,52.0,38.0,64.0,64,2734.0,square4,i,0.696,3,V,3.0
V3,47.0,44.0,53.0,37.0,55.0,55,2789.0,square4,i,0.202,3,V,3.0
V3,48.0,44.0,49.0,37.0,58.0,58,2847.0,square4,i,0.244,3,V,3.0
V3,49.0,48.0,58.0,35.0,54.0,54,2901.0,square4,i,0.143,3,V,3.0
V3,50.0,42.0,28.0,30.0,52.0,52,2953.0,square4,i,0.087,3,V,3.0
V3,51.0,46.0,29.0,32.0,51.0,51,3004.0,square4,i,0.11,3,V,3.0
V3,52.0,37.0,20.0,36.0,50.0,50,3054.0,square4,i,0.133,3,V,3.0
V3,53.0,44.0,22.0,34.0,55.0,55,3109.0,square4,i,0.101,3,V,3.0
V3,54.0,37.0,27.0,26.0,50.0,26,3135.0,square3,j,0.351,2,V,3.0
V3,55.0,41.0,21.0,39.0,53.0,39,3174.0,square3,j,0.285,2,V,3.0
V3,56.0,40.0,20.0,38.0,51.0,20,3194.0,square2,r,0.095,1,V,3.0
V3,57.0,44.0,28.0,31.0,57.0,44,3238.0,square1,f,0.921,0,V,3.0
V3,58.0,46.0,20.0,28.0,49.0,46,3284.0,square1,f,0.085,0,V,3.0
V3,59.0,44.0,24.0,30.0,55.0,44,3328.0,square1,f,0.03,0,V,3.0
V3,60.0,42.0,29.0,29.0,51.0,42,3370.0,square1,f,0.451,0,V,3.0
V3,61.0,41.0,21.0,30.0,46.0,41,3411.0,square1,f,0.196,0,V,3.0
V3,62.0,41.0,27.0,31.0,49.0,41,3452.0,square1,f,0.028,0,V,3.0
V3,63.0,42.0,27.0,34.0,51.0,42,3494.0,square1,f,0.348,0,V,3.0
V3,64.0,41.0,24.0,30.0,47.0,41,3535.0,square1,f,0.009,0,V,3.0
V3,65.0,36.0,18.0,34.0,48.0,48,3583.0,square4,i,0.219,3,V,3.0
V3,66.0,39.0,28.0,35.0,45.0,45,3628.0,square4,i,0.149,3,V,3.0
V3,67.0,42.0,21.0,32.0,46.0,46,3674.0,square4,i,0.298,3,V,3.0
V3,68.0,40.0,24.0,35.0,53.0,53,3727.0,square4,i,0.276,3,V,3.0
V3,69.0,48.0,23.0,34.0,50.0,50,3777.0,square4,i,0.271,3,V,3.0
V3,70.0,40.0,27.0,31.0,49.0,49,3826.0,square4,i,0.264,3,V,3.0
V3,71.0,41.0,23.0,28.0,51.0,51,3877.0,square4,i,0.026,3,V,3.0
V3,72.0,42.0,25.0,33.0,55.0,55,3932.0,square4,i,0.065,3,V,3.0
V3,73.0,41.0,24.0,35.0,55.0,55,3987.0,square4,i,0.22,3,V,3.0
V3,74.0,38.0,26.0,28.0,53.0,53,4040.0,square4,i,0.145,3,V,3.0
V3,75.0,54.0,39.0,69.0,50.0,50,4090.0,square4,i,0.815,3,V,3.0
V3,76.0,55.0,42.0,64.0,53.0,53,4143.0,square4,i,0.014,3,V,3.0
V3,77.0,59.0,37.0,66.0,44.0,44,4187.0,square4,i,0.137,3,V,3.0
V3,78.0,58.0,38.0,60.0,46.0,46,4233.0,square4,i,0.118,3,V,3.0
V3,79.0,54.0,35.0,66.0,49.0,49,4282.0,square4,i,0.209,3,V,3.0
V3,80.0,60.0,36.0,68.0,44.0,68,4350.0,square3,j,0.31,2,V,3.0
V3,81.0,55.0,38.0,66.0,51.0,66,4416.0,square3,j,0.317,2,V,3.0
V3,82.0,57.0,47.0,64.0,50.0,64,4480.0,square3,j,0.393,2,V,3.0
V3,83.0,57.0,37.0,63.0,45.0,63,4543.0,square3,j,0.348,2,V,3.0
V3,84.0,54.0,40.0,65.0,53.0,65,4608.0,square3,j,0.327,2,V,3.0
V3,85.0,58.0,41.0,63.0,48.0,63,4671.0,square3,j,0.311,2,V,3.0
V3,86.0,53.0,38.0,57.0,49.0,57,4728.0,square3,j,0.15,2,V,3.0
V3,87.0,49.0,42.0,60.0,43.0,60,4788.0,square3,j,0.182,2,V,3.0
V3,88.0,56.0,35.0,70.0,46.0,70,4858.0,square3,j,0.127,2,V,3.0
V3,89.0,58.0,39.0,63.0,52.0,63,4921.0,square3,j,0.064,2,V,3.0
V3,90.0,59.0,43.0,63.0,45.0,63,4984.0,square3,j,1.844,2,V,3.0
V3,91.0,54.0,37.0,69.0,49.0,69,5053.0,square3,j,0.501,2,V,3.0
V3,92.0,56.0,41.0,61.0,47.0,61,5114.0,square3,j,0.769,2,V,3.0
V3,93.0,58.0,35.0,68.0,47.0,68,5182.0,square3,j,0.586,2,V,3.0
V3,94.0,61.0,37.0,67.0,51.0,67,5249.0,square3,j,0.028,2,V,3.0
V3,95.0,57.0,32.0,64.0,47.0,64,5313.0,square3,j,0.001,2,V,3.0
V3,96.0,53.0,38.0,63.0,48.0,63,5376.0,square3,j,0.078,2,V,3.0
V3,97.0,57.0,44.0,71.0,50.0,71,5447.0,square3,j,0.0,2,V,3.0
V3,98.0,56.0,39.0,70.0,47.0,70,5517.0,square3,j,0.001,2,V,3.0
V3,99.0,62.0,40.0,67.0,49.0,67,5584.0,square3,j,0.102,2,V,3.0
