block,Trial,square1,square2,square3,square4,currPoints,totalPoints,square,choiceKey.keys,choiceKey.rt,armNum,blockType,blockNum
prac,0.0,100.0,0.0,0.0,0.0,0,0.0,square3,,,2,p,0.0
prac,1.0,100.0,0.0,0.0,0.0,0,0.0,square4,,,3,p,0.0
prac,2.0,100.0,0.0,0.0,0.0,100,100.0,square1,,,0,p,0.0
prac,3.0,100.0,0.0,0.0,0.0,0,100.0,square2,,,1,p,0.0
prac,4.0,100.0,0.0,0.0,0.0,100,200.0,square1,,,0,p,0.0
prac,5.0,100.0,0.0,0.0,0.0,100,300.0,square1,,,0,p,0.0
prac,6.0,100.0,0.0,0.0,0.0,100,400.0,square1,,,0,p,0.0
prac,7.0,100.0,0.0,0.0,0.0,100,500.0,square1,,,0,p,0.0
prac,8.0,100.0,0.0,0.0,0.0,0,500.0,square3,,,2,p,0.0
prac,9.0,100.0,0.0,0.0,0.0,0,500.0,square4,,,3,p,0.0
NS1,0.0,60.0,65.0,21.0,53.0,53,53.0,square4,r,1.2328,3,N,1.0
NS1,1.0,56.0,62.0,31.0,51.0,31,84.0,square3,i,0.2914,2,N,1.0
NS1,2.0,58.0,62.0,24.0,57.0,62,146.0,square2,j,0.2452,1,N,1.0
NS1,3.0,56.0,58.0,33.0,58.0,56,202.0,square1,f,0.814,0,N,1.0
NS1,4.0,60.0,58.0,32.0,58.0,58,260.0,square2,j,0.3161,1,N,1.0
NS1,5.0,56.0,59.0,31.0,54.0,59,319.0,square2,j,0.2946,1,N,1.0
NS1,6.0,58.0,57.0,37.0,56.0,57,376.0,square2,j,0.1857,1,N,1.0
NS1,7.0,57.0,53.0,37.0,57.0,53,429.0,square2,j,0.3684,1,N,1.0
NS1,8.0,58.0,57.0,37.0,54.0,54,483.0,square4,r,0.3795,3,N,1.0
NS1,9.0,53.0,50.0,36.0,55.0,36,519.0,square3,i,0.335,2,N,1.0
NS1,10.0,58.0,47.0,32.0,53.0,58,577.0,square1,f,0.0985,0,N,1.0
NS1,11.0,55.0,44.0,34.0,53.0,44,621.0,square2,j,0.3155,1,N,1.0
NS1,12.0,56.0,44.0,30.0,45.0,56,677.0,square1,f,0.1252,0,N,1.0
NS1,13.0,60.0,47.0,34.0,48.0,60,737.0,square1,f,0.3564,0,N,1.0
NS1,14.0,54.0,48.0,37.0,54.0,54,791.0,square1,f,0.3027,0,N,1.0
NS1,15.0,53.0,44.0,35.0,51.0,51,842.0,square4,r,0.5813,3,N,1.0
NS1,16.0,50.0,50.0,35.0,43.0,50,892.0,square1,f,0.117,0,N,1.0
NS1,17.0,53.0,46.0,35.0,44.0,44,936.0,square4,r,0.2104,3,N,1.0
NS1,18.0,54.0,51.0,42.0,48.0,42,978.0,square3,i,0.5444,2,N,1.0
NS1,19.0,62.0,51.0,44.0,53.0,51,1029.0,square2,j,0.3502,1,N,1.0
NS1,20.0,63.0,47.0,42.0,47.0,63,1092.0,square1,f,0.0873,0,N,1.0
NS1,21.0,67.0,51.0,41.0,46.0,67,1159.0,square1,f,0.065,0,N,1.0
NS1,22.0,75.0,44.0,45.0,43.0,75,1234.0,square1,f,0.0017,0,N,1.0
NS1,23.0,64.0,42.0,41.0,47.0,64,1298.0,square1,f,0.0028,0,N,1.0
NS1,24.0,68.0,41.0,39.0,49.0,68,1366.0,square1,f,0.2885,0,N,1.0
NS1,25.0,71.0,43.0,33.0,42.0,71,1437.0,square1,f,0.7516,0,N,1.0
NS1,26.0,70.0,41.0,26.0,45.0,70,1507.0,square1,f,0.1048,0,N,1.0
NS1,27.0,72.0,42.0,34.0,48.0,72,1579.0,square1,f,0.683,0,N,1.0
NS1,28.0,71.0,41.0,33.0,45.0,41,1620.0,square2,j,0.1391,1,N,1.0
NS1,29.0,77.0,42.0,31.0,48.0,31,1651.0,square3,i,0.1786,2,N,1.0
NS1,30.0,73.0,41.0,33.0,51.0,51,1702.0,square4,r,0.0192,3,N,1.0
NS1,31.0,71.0,44.0,35.0,48.0,71,1773.0,square1,f,0.316,0,N,1.0
NS1,32.0,81.0,47.0,33.0,50.0,81,1854.0,square1,f,0.3394,0,N,1.0
NS1,33.0,75.0,50.0,27.0,42.0,75,1929.0,square1,f,0.2931,0,N,1.0
NS1,34.0,71.0,49.0,27.0,44.0,71,2000.0,square1,f,0.0467,0,N,1.0
NS1,35.0,69.0,47.0,23.0,47.0,69,2069.0,square1,f,0.2203,0,N,1.0
NS1,36.0,71.0,50.0,32.0,45.0,71,2140.0,square1,f,0.1011,0,N,1.0
NS1,37.0,66.0,48.0,33.0,52.0,66,2206.0,square1,f,0.2729,0,N,1.0
NS1,38.0,64.0,50.0,34.0,51.0,64,2270.0,square1,f,0.1363,0,N,1.0
NS1,39.0,65.0,49.0,25.0,47.0,65,2335.0,square1,f,0.0016,0,N,1.0
NS1,40.0,66.0,46.0,23.0,50.0,66,2401.0,square1,f,0.0623,0,N,1.0
NS1,41.0,68.0,45.0,22.0,50.0,68,2469.0,square1,f,0.2334,0,N,1.0
NS1,42.0,74.0,41.0,28.0,50.0,74,2543.0,square1,f,0.1004,0,N,1.0
NS1,43.0,69.0,42.0,27.0,52.0,69,2612.0,square1,f,0.1984,0,N,1.0
NS1,44.0,71.0,38.0,32.0,49.0,71,2683.0,square1,f,0.1035,0,N,1.0
NS1,45.0,68.0,38.0,30.0,55.0,68,2751.0,square1,f,0.2706,0,N,1.0
NS1,46.0,66.0,39.0,30.0,56.0,66,2817.0,square1,f,0.1274,0,N,1.0
NS1,47.0,62.0,35.0,31.0,50.0,62,2879.0,square1,f,0.3125,0,N,1.0
NS1,48.0,68.0,31.0,32.0,49.0,68,2947.0,square1,f,0.0259,0,N,1.0
NS1,49.0,66.0,33.0,35.0,46.0,66,3013.0,square1,f,0.0811,0,N,1.0
NS1,50.0,64.0,30.0,32.0,46.0,64,3077.0,square1,f,0.3374,0,N,1.0
NS1,51.0,66.0,35.0,39.0,43.0,66,3143.0,square1,f,0.041,0,N,1.0
NS1,52.0,67.0,33.0,37.0,49.0,67,3210.0,square1,f,0.0142,0,N,1.0
NS1,53.0,70.0,32.0,35.0,47.0,70,3280.0,square1,f,0.3031,0,N,1.0
NS1,54.0,62.0,40.0,28.0,43.0,62,3342.0,square1,f,0.2827,0,N,1.0
NS1,55.0,66.0,39.0,26.0,43.0,66,3408.0,square1,f,0.2412,0,N,1.0
NS1,56.0,64.0,38.0,26.0,44.0,64,3472.0,square1,f,0.2303,0,N,1.0
NS1,57.0,63.0,41.0,24.0,48.0,63,3535.0,square1,f,0.2082,0,N,1.0
NS1,58.0,67.0,49.0,24.0,48.0,67,3602.0,square1,f,0.0861,0,N,1.0
NS1,59.0,57.0,51.0,27.0,43.0,57,3659.0,square1,f,0.0325,0,N,1.0
NS1,60.0,56.0,51.0,31.0,42.0,56,3715.0,square1,f,0.0748,0,N,1.0
NS1,61.0,55.0,50.0,25.0,49.0,50,3765.0,square2,j,0.5123,1,N,1.0
NS1,62.0,55.0,51.0,27.0,50.0,27,3792.0,square3,i,0.5406,2,N,1.0
NS1,63.0,53.0,51.0,27.0,50.0,50,3842.0,square4,r,0.0644,3,N,1.0
NS1,64.0,53.0,56.0,27.0,50.0,53,3895.0,square1,f,0.379,0,N,1.0
NS1,65.0,49.0,56.0,26.0,49.0,56,3951.0,square2,j,0.3975,1,N,1.0
NS1,66.0,47.0,61.0,29.0,50.0,61,4012.0,square2,j,0.3796,1,N,1.0
NS1,67.0,47.0,56.0,27.0,50.0,56,4068.0,square2,j,0.1596,1,N,1.0
NS1,68.0,47.0,64.0,29.0,48.0,64,4132.0,square2,j,0.4281,1,N,1.0
NS1,69.0,54.0,67.0,24.0,53.0,67,4199.0,square2,j,0.4949,1,N,1.0
NS1,70.0,44.0,70.0,21.0,48.0,70,4269.0,square2,j,0.6658,1,N,1.0
NS1,71.0,45.0,67.0,26.0,52.0,67,4336.0,square2,j,0.7435,1,N,1.0
NS1,72.0,44.0,64.0,22.0,49.0,64,4400.0,square2,j,0.9511,1,N,1.0
NS1,73.0,43.0,60.0,23.0,51.0,60,4460.0,square2,j,0.9346,1,N,1.0
NS1,74.0,47.0,59.0,26.0,57.0,59,4519.0,square2,j,0.0019,1,N,1.0
NS1,75.0,44.0,56.0,27.0,51.0,56,4575.0,square2,j,1.0136,1,N,1.0
NS1,76.0,34.0,55.0,21.0,52.0,52,4627.0,square4,r,0.1378,3,N,1.0
NS1,77.0,39.0,64.0,17.0,55.0,39,4666.0,square1,f,0.1373,0,N,1.0
NS1,78.0,38.0,64.0,25.0,52.0,64,4730.0,square2,j,0.3764,1,N,1.0
NS1,79.0,40.0,65.0,24.0,54.0,65,4795.0,square2,j,0.0139,1,N,1.0
NS1,80.0,44.0,66.0,21.0,53.0,53,4848.0,square4,r,0.4121,3,N,1.0
NS1,81.0,50.0,60.0,27.0,54.0,60,4908.0,square2,j,0.3538,1,N,1.0
NS1,82.0,43.0,62.0,20.0,57.0,62,4970.0,square2,j,0.3549,1,N,1.0
NS1,83.0,44.0,55.0,24.0,59.0,55,5025.0,square2,j,0.8499,1,N,1.0
NS1,84.0,41.0,51.0,28.0,61.0,51,5076.0,square2,j,0.4211,1,N,1.0
NS1,85.0,49.0,49.0,29.0,70.0,70,5146.0,square4,r,0.0018,3,N,1.0
NS1,86.0,47.0,44.0,26.0,66.0,66,5212.0,square4,r,0.0826,3,N,1.0
NS1,87.0,48.0,48.0,23.0,68.0,68,5280.0,square4,r,0.35,3,N,1.0
NS1,88.0,46.0,51.0,20.0,70.0,70,5350.0,square4,r,0.0444,3,N,1.0
NS1,89.0,45.0,50.0,17.0,75.0,75,5425.0,square4,r,0.2215,3,N,1.0
NS1,90.0,50.0,48.0,18.0,74.0,74,5499.0,square4,r,0.2833,3,N,1.0
NS1,91.0,46.0,53.0,17.0,67.0,67,5566.0,square4,r,0.2231,3,N,1.0
NS1,92.0,38.0,56.0,22.0,65.0,65,5631.0,square4,r,0.1501,3,N,1.0
NS1,93.0,38.0,53.0,22.0,66.0,66,5697.0,square4,r,0.034,3,N,1.0
NS1,94.0,42.0,49.0,24.0,72.0,72,5769.0,square4,r,0.2256,3,N,1.0
NS1,95.0,44.0,48.0,25.0,70.0,70,5839.0,square4,r,0.0328,3,N,1.0
NS1,96.0,35.0,50.0,21.0,67.0,67,5906.0,square4,r,0.2076,3,N,1.0
NS1,97.0,43.0,55.0,16.0,72.0,72,5978.0,square4,r,0.3046,3,N,1.0
NS1,98.0,46.0,50.0,21.0,73.0,73,6051.0,square4,r,0.2296,3,N,1.0
NS1,99.0,43.0,46.0,27.0,71.0,71,6122.0,square4,r,0.2113,3,N,1.0
NS11,0.0,78.0,37.0,30.0,78.0,30,30.0,square3,r,0.7147,2,N,11.0
NS11,1.0,85.0,34.0,30.0,76.0,85,115.0,square1,i,0.1161,0,N,11.0
NS11,2.0,79.0,33.0,36.0,77.0,79,194.0,square1,i,0.8262,0,N,11.0
NS11,3.0,82.0,33.0,28.0,72.0,33,227.0,square2,f,0.1996,1,N,11.0
NS11,4.0,82.0,34.0,33.0,76.0,76,303.0,square4,j,0.329,3,N,11.0
NS11,5.0,78.0,38.0,32.0,83.0,78,381.0,square1,i,0.3342,0,N,11.0
NS11,6.0,78.0,37.0,34.0,77.0,77,458.0,square4,j,0.1649,3,N,11.0
NS11,7.0,80.0,30.0,33.0,74.0,80,538.0,square1,i,0.0793,0,N,11.0
NS11,8.0,79.0,32.0,30.0,73.0,73,611.0,square4,j,0.1834,3,N,11.0
NS11,9.0,81.0,41.0,34.0,61.0,81,692.0,square1,i,0.074,0,N,11.0
NS11,10.0,76.0,38.0,25.0,64.0,76,768.0,square1,i,0.3704,0,N,11.0
NS11,11.0,79.0,34.0,27.0,65.0,65,833.0,square4,j,0.2009,3,N,11.0
NS11,12.0,81.0,32.0,25.0,68.0,81,914.0,square1,i,0.1003,0,N,11.0
NS11,13.0,84.0,36.0,24.0,64.0,84,998.0,square1,i,0.2628,0,N,11.0
NS11,14.0,80.0,30.0,24.0,61.0,80,1078.0,square1,i,0.0018,0,N,11.0
NS11,15.0,86.0,33.0,22.0,66.0,22,1100.0,square3,r,0.0886,2,N,11.0
NS11,16.0,85.0,32.0,20.0,64.0,85,1185.0,square1,i,0.1163,0,N,11.0
NS11,17.0,83.0,32.0,22.0,71.0,83,1268.0,square1,i,0.1626,0,N,11.0
NS11,18.0,80.0,31.0,19.0,66.0,80,1348.0,square1,i,0.0018,0,N,11.0
NS11,19.0,75.0,40.0,23.0,69.0,75,1423.0,square1,i,0.3362,0,N,11.0
NS11,20.0,73.0,37.0,14.0,67.0,73,1496.0,square1,i,0.7558,0,N,11.0
NS11,21.0,81.0,34.0,23.0,70.0,70,1566.0,square4,j,0.2709,3,N,11.0
NS11,22.0,77.0,39.0,16.0,73.0,77,1643.0,square1,i,0.1513,0,N,11.0
NS11,23.0,78.0,30.0,23.0,74.0,78,1721.0,square1,i,0.6443,0,N,11.0
NS11,24.0,80.0,32.0,26.0,68.0,80,1801.0,square1,i,0.2416,0,N,11.0
NS11,25.0,81.0,29.0,29.0,73.0,81,1882.0,square1,i,0.0893,0,N,11.0
NS11,26.0,77.0,31.0,26.0,69.0,77,1959.0,square1,i,0.3792,0,N,11.0
NS11,27.0,69.0,47.0,29.0,64.0,69,2028.0,square1,i,0.1202,0,N,11.0
NS11,28.0,69.0,39.0,28.0,71.0,69,2097.0,square1,i,0.0755,0,N,11.0
NS11,29.0,71.0,41.0,24.0,66.0,66,2163.0,square4,j,0.415,3,N,11.0
NS11,30.0,70.0,40.0,21.0,68.0,70,2233.0,square1,i,0.0957,0,N,11.0
NS11,31.0,72.0,44.0,21.0,68.0,44,2277.0,square2,f,0.3456,1,N,11.0
NS11,32.0,72.0,41.0,19.0,75.0,72,2349.0,square1,i,0.0358,0,N,11.0
NS11,33.0,66.0,48.0,21.0,72.0,66,2415.0,square1,i,0.1826,0,N,11.0
NS11,34.0,67.0,48.0,24.0,72.0,67,2482.0,square1,i,0.0019,0,N,11.0
NS11,35.0,58.0,52.0,14.0,73.0,58,2540.0,square1,i,0.3255,0,N,11.0
NS11,36.0,61.0,52.0,23.0,70.0,70,2610.0,square4,j,0.3566,3,N,11.0
NS11,37.0,50.0,55.0,29.0,67.0,67,2677.0,square4,j,0.018,3,N,11.0
NS11,38.0,51.0,54.0,20.0,64.0,64,2741.0,square4,j,0.0535,3,N,11.0
NS11,39.0,54.0,49.0,26.0,63.0,63,2804.0,square4,j,0.2113,3,N,11.0
NS11,40.0,50.0,47.0,24.0,70.0,70,2874.0,square4,j,0.3485,3,N,11.0
NS11,41.0,54.0,46.0,23.0,63.0,63,2937.0,square4,j,0.5138,3,N,11.0
NS11,42.0,54.0,47.0,25.0,61.0,61,2998.0,square4,j,0.7641,3,N,11.0
NS11,43.0,46.0,49.0,33.0,72.0,46,3044.0,square1,i,0.3875,0,N,11.0
NS11,44.0,54.0,50.0,38.0,72.0,38,3082.0,square3,r,0.3116,2,N,11.0
NS11,45.0,56.0,53.0,39.0,81.0,53,3135.0,square2,f,0.0347,1,N,11.0
NS11,46.0,57.0,55.0,33.0,77.0,77,3212.0,square4,j,0.264,3,N,11.0
NS11,47.0,56.0,51.0,32.0,76.0,76,3288.0,square4,j,0.2417,3,N,11.0
NS11,48.0,58.0,49.0,29.0,85.0,85,3373.0,square4,j,0.3903,3,N,11.0
NS11,49.0,58.0,53.0,27.0,83.0,83,3456.0,square4,j,0.3665,3,N,11.0
NS11,50.0,62.0,49.0,24.0,80.0,80,3536.0,square4,j,0.0462,3,N,11.0
NS11,51.0,57.0,55.0,23.0,77.0,77,3613.0,square4,j,0.0039,3,N,11.0
NS11,52.0,56.0,55.0,20.0,77.0,77,3690.0,square4,j,0.1839,3,N,11.0
NS11,53.0,59.0,56.0,20.0,78.0,78,3768.0,square4,j,0.0121,3,N,11.0
NS11,54.0,58.0,57.0,27.0,74.0,74,3842.0,square4,j,0.2114,3,N,11.0
NS11,55.0,60.0,55.0,24.0,79.0,79,3921.0,square4,j,0.2208,3,N,11.0
NS11,56.0,60.0,52.0,22.0,77.0,77,3998.0,square4,j,0.2679,3,N,11.0
NS11,57.0,58.0,55.0,22.0,72.0,72,4070.0,square4,j,0.109,3,N,11.0
NS11,58.0,63.0,52.0,22.0,75.0,75,4145.0,square4,j,0.137,3,N,11.0
NS11,59.0,62.0,56.0,17.0,70.0,70,4215.0,square4,j,0.0881,3,N,11.0
NS11,60.0,61.0,55.0,22.0,70.0,70,4285.0,square4,j,0.1005,3,N,11.0
NS11,61.0,57.0,52.0,21.0,76.0,76,4361.0,square4,j,0.0627,3,N,11.0
NS11,62.0,57.0,48.0,28.0,75.0,75,4436.0,square4,j,0.0949,3,N,11.0
NS11,63.0,57.0,58.0,30.0,68.0,68,4504.0,square4,j,0.2344,3,N,11.0
NS11,64.0,61.0,61.0,27.0,74.0,74,4578.0,square4,j,0.1066,3,N,11.0
NS11,65.0,67.0,63.0,40.0,71.0,71,4649.0,square4,j,0.0018,3,N,11.0
NS11,66.0,69.0,55.0,38.0,73.0,73,4722.0,square4,j,0.1164,3,N,11.0
NS11,67.0,72.0,57.0,36.0,65.0,65,4787.0,square4,j,0.1025,3,N,11.0
NS11,68.0,71.0,61.0,36.0,64.0,61,4848.0,square2,f,0.3792,1,N,11.0
NS11,69.0,74.0,66.0,37.0,58.0,58,4906.0,square4,j,0.0862,3,N,11.0
NS11,70.0,69.0,60.0,40.0,66.0,60,4966.0,square2,f,0.3495,1,N,11.0
NS11,71.0,71.0,58.0,40.0,64.0,58,5024.0,square2,f,0.0136,1,N,11.0
NS11,72.0,72.0,58.0,46.0,67.0,58,5082.0,square2,f,0.1647,1,N,11.0
NS11,73.0,72.0,56.0,47.0,65.0,56,5138.0,square2,f,0.1158,1,N,11.0
NS11,74.0,66.0,54.0,47.0,63.0,63,5201.0,square4,j,0.3039,3,N,11.0
NS11,75.0,75.0,53.0,43.0,58.0,75,5276.0,square1,i,0.1798,0,N,11.0
NS11,76.0,75.0,48.0,40.0,59.0,75,5351.0,square1,i,0.1086,0,N,11.0
NS11,77.0,65.0,48.0,36.0,58.0,65,5416.0,square1,i,0.3469,0,N,11.0
NS11,78.0,70.0,45.0,37.0,59.0,59,5475.0,square4,j,0.3366,3,N,11.0
NS11,79.0,70.0,41.0,36.0,59.0,41,5516.0,square2,f,0.0634,1,N,11.0
NS11,80.0,73.0,43.0,39.0,59.0,73,5589.0,square1,i,0.2945,0,N,11.0
NS11,81.0,72.0,39.0,38.0,60.0,72,5661.0,square1,i,0.0048,0,N,11.0
NS11,82.0,72.0,39.0,44.0,65.0,72,5733.0,square1,i,0.0637,0,N,11.0
NS11,83.0,68.0,38.0,40.0,61.0,68,5801.0,square1,i,0.3717,0,N,11.0
NS11,84.0,69.0,36.0,36.0,64.0,69,5870.0,square1,i,0.2829,0,N,11.0
NS11,85.0,70.0,34.0,40.0,69.0,70,5940.0,square1,i,0.3472,0,N,11.0
NS11,86.0,70.0,32.0,36.0,71.0,70,6010.0,square1,i,0.024,0,N,11.0
NS11,87.0,69.0,31.0,37.0,70.0,69,6079.0,square1,i,0.0222,0,N,11.0
NS11,88.0,69.0,34.0,41.0,67.0,69,6148.0,square1,i,0.2003,0,N,11.0
NS11,89.0,67.0,39.0,44.0,67.0,67,6215.0,square1,i,0.0018,0,N,11.0
NS11,90.0,64.0,33.0,36.0,69.0,64,6279.0,square1,i,0.2006,0,N,11.0
NS11,91.0,60.0,33.0,38.0,67.0,38,6317.0,square3,r,0.366,2,N,11.0
NS11,92.0,60.0,33.0,37.0,68.0,68,6385.0,square4,j,0.1997,3,N,11.0
NS11,93.0,54.0,36.0,38.0,73.0,73,6458.0,square4,j,0.1232,3,N,11.0
NS11,94.0,58.0,35.0,39.0,68.0,68,6526.0,square4,j,0.2854,3,N,11.0
NS11,95.0,50.0,38.0,32.0,77.0,77,6603.0,square4,j,0.1013,3,N,11.0
NS11,96.0,53.0,42.0,30.0,71.0,71,6674.0,square4,j,0.6423,3,N,11.0
NS11,97.0,54.0,38.0,32.0,75.0,75,6749.0,square4,j,0.1811,3,N,11.0
NS11,98.0,52.0,48.0,32.0,72.0,72,6821.0,square4,j,0.187,3,N,11.0
NS11,99.0,55.0,45.0,33.0,73.0,73,6894.0,square4,j,0.1244,3,N,11.0
NS5,0.0,26.0,19.0,54.0,39.0,39,39.0,square4,r,0.0194,3,N,5.0
NS5,1.0,21.0,17.0,51.0,42.0,17,56.0,square2,i,0.5236,1,N,5.0
NS5,2.0,19.0,17.0,52.0,42.0,19,75.0,square1,j,0.3383,0,N,5.0
NS5,3.0,21.0,16.0,55.0,38.0,55,130.0,square3,f,0.3732,2,N,5.0
NS5,4.0,14.0,26.0,52.0,44.0,52,182.0,square3,f,0.1372,2,N,5.0
NS5,5.0,18.0,25.0,47.0,42.0,47,229.0,square3,f,0.5742,2,N,5.0
NS5,6.0,23.0,21.0,54.0,38.0,23,252.0,square1,j,0.0837,0,N,5.0
NS5,7.0,18.0,27.0,56.0,39.0,27,279.0,square2,i,0.1796,1,N,5.0
NS5,8.0,18.0,28.0,57.0,40.0,40,319.0,square4,r,0.0756,3,N,5.0
NS5,9.0,15.0,29.0,53.0,38.0,53,372.0,square3,f,0.0136,2,N,5.0
NS5,10.0,13.0,26.0,56.0,41.0,56,428.0,square3,f,0.3778,2,N,5.0
NS5,11.0,11.0,25.0,58.0,41.0,58,486.0,square3,f,0.0137,2,N,5.0
NS5,12.0,9.0,22.0,53.0,40.0,53,539.0,square3,f,0.192,2,N,5.0
NS5,13.0,11.0,21.0,55.0,39.0,55,594.0,square3,f,0.0336,2,N,5.0
NS5,14.0,12.0,17.0,49.0,38.0,49,643.0,square3,f,0.2279,2,N,5.0
NS5,15.0,18.0,19.0,52.0,37.0,52,695.0,square3,f,0.2408,2,N,5.0
NS5,16.0,18.0,20.0,49.0,40.0,49,744.0,square3,f,0.2211,2,N,5.0
NS5,17.0,16.0,16.0,50.0,41.0,50,794.0,square3,f,0.2702,2,N,5.0
NS5,18.0,16.0,18.0,51.0,43.0,51,845.0,square3,f,0.0663,2,N,5.0
NS5,19.0,14.0,20.0,44.0,45.0,44,889.0,square3,f,0.1282,2,N,5.0
NS5,20.0,19.0,21.0,42.0,48.0,48,937.0,square4,r,0.4661,3,N,5.0
NS5,21.0,19.0,22.0,43.0,47.0,47,984.0,square4,r,0.2024,3,N,5.0
NS5,22.0,17.0,15.0,43.0,47.0,47,1031.0,square4,r,0.4404,3,N,5.0
NS5,23.0,16.0,28.0,37.0,47.0,47,1078.0,square4,r,0.2519,3,N,5.0
NS5,24.0,20.0,21.0,38.0,49.0,49,1127.0,square4,r,0.0636,3,N,5.0
NS5,25.0,22.0,17.0,34.0,46.0,46,1173.0,square4,r,0.2504,3,N,5.0
NS5,26.0,30.0,16.0,32.0,50.0,50,1223.0,square4,r,0.3095,3,N,5.0
NS5,27.0,21.0,20.0,35.0,42.0,42,1265.0,square4,r,0.0868,3,N,5.0
NS5,28.0,20.0,23.0,39.0,42.0,20,1285.0,square1,j,0.497,0,N,5.0
NS5,29.0,21.0,18.0,39.0,41.0,18,1303.0,square2,i,0.304,1,N,5.0
NS5,30.0,20.0,11.0,41.0,44.0,41,1344.0,square3,f,0.0972,2,N,5.0
NS5,31.0,20.0,9.0,36.0,43.0,43,1387.0,square4,r,0.3292,3,N,5.0
NS5,32.0,21.0,13.0,35.0,46.0,46,1433.0,square4,r,0.3687,3,N,5.0
NS5,33.0,16.0,22.0,32.0,44.0,44,1477.0,square4,r,0.0805,3,N,5.0
NS5,34.0,20.0,20.0,33.0,37.0,37,1514.0,square4,r,0.0197,3,N,5.0
NS5,35.0,19.0,27.0,34.0,40.0,40,1554.0,square4,r,0.3049,3,N,5.0
NS5,36.0,20.0,23.0,31.0,37.0,31,1585.0,square3,f,0.7829,2,N,5.0
NS5,37.0,15.0,28.0,41.0,40.0,40,1625.0,square4,r,0.0441,3,N,5.0
NS5,38.0,18.0,21.0,45.0,37.0,37,1662.0,square4,r,0.2853,3,N,5.0
NS5,39.0,23.0,22.0,40.0,34.0,22,1684.0,square2,i,0.2963,1,N,5.0
NS5,40.0,22.0,25.0,44.0,26.0,22,1706.0,square1,j,0.2216,0,N,5.0
NS5,41.0,28.0,25.0,39.0,29.0,29,1735.0,square4,r,0.085,3,N,5.0
NS5,42.0,27.0,27.0,42.0,35.0,42,1777.0,square3,f,0.4568,2,N,5.0
NS5,43.0,25.0,25.0,49.0,38.0,49,1826.0,square3,f,0.2066,2,N,5.0
NS5,44.0,24.0,26.0,42.0,30.0,42,1868.0,square3,f,0.0018,2,N,5.0
NS5,45.0,33.0,22.0,43.0,37.0,43,1911.0,square3,f,0.1431,2,N,5.0
NS5,46.0,32.0,24.0,50.0,38.0,50,1961.0,square3,f,0.1589,2,N,5.0
NS5,47.0,39.0,25.0,52.0,29.0,52,2013.0,square3,f,0.0208,2,N,5.0
NS5,48.0,42.0,22.0,46.0,33.0,46,2059.0,square3,f,0.1241,2,N,5.0
NS5,49.0,40.0,26.0,40.0,33.0,40,2099.0,square3,f,0.297,2,N,5.0
NS5,50.0,34.0,19.0,47.0,33.0,47,2146.0,square3,f,0.3263,2,N,5.0
NS5,51.0,29.0,25.0,45.0,29.0,45,2191.0,square3,f,0.0436,2,N,5.0
NS5,52.0,29.0,24.0,48.0,35.0,24,2215.0,square2,i,0.3315,1,N,5.0
NS5,53.0,24.0,25.0,45.0,40.0,45,2260.0,square3,f,0.2325,2,N,5.0
NS5,54.0,26.0,25.0,51.0,36.0,51,2311.0,square3,f,0.1778,2,N,5.0
NS5,55.0,25.0,28.0,56.0,34.0,56,2367.0,square3,f,0.2218,2,N,5.0
NS5,56.0,23.0,27.0,54.0,36.0,54,2421.0,square3,f,0.1491,2,N,5.0
NS5,57.0,19.0,25.0,51.0,31.0,19,2440.0,square1,j,0.3345,0,N,5.0
NS5,58.0,20.0,30.0,53.0,29.0,53,2493.0,square3,f,0.1164,2,N,5.0
NS5,59.0,17.0,30.0,52.0,28.0,28,2521.0,square4,r,0.2083,3,N,5.0
NS5,60.0,15.0,30.0,55.0,30.0,55,2576.0,square3,f,0.1421,2,N,5.0
NS5,61.0,22.0,29.0,54.0,30.0,54,2630.0,square3,f,0.2276,2,N,5.0
NS5,62.0,18.0,31.0,55.0,32.0,55,2685.0,square3,f,0.2343,2,N,5.0
NS5,63.0,19.0,31.0,51.0,37.0,51,2736.0,square3,f,0.0018,2,N,5.0
NS5,64.0,20.0,30.0,45.0,35.0,45,2781.0,square3,f,0.0838,2,N,5.0
NS5,65.0,24.0,21.0,55.0,38.0,55,2836.0,square3,f,0.4494,2,N,5.0
NS5,66.0,22.0,29.0,58.0,36.0,58,2894.0,square3,f,0.0351,2,N,5.0
NS5,67.0,22.0,26.0,51.0,36.0,51,2945.0,square3,f,0.1881,2,N,5.0
NS5,68.0,20.0,28.0,52.0,36.0,52,2997.0,square3,f,0.0761,2,N,5.0
NS5,69.0,18.0,27.0,52.0,40.0,52,3049.0,square3,f,0.1198,2,N,5.0
NS5,70.0,22.0,34.0,55.0,39.0,55,3104.0,square3,f,0.0458,2,N,5.0
NS5,71.0,27.0,37.0,59.0,41.0,59,3163.0,square3,f,0.2144,2,N,5.0
NS5,72.0,27.0,37.0,57.0,40.0,57,3220.0,square3,f,0.0338,2,N,5.0
NS5,73.0,35.0,36.0,55.0,38.0,55,3275.0,square3,f,0.1661,2,N,5.0
NS5,74.0,27.0,36.0,52.0,36.0,52,3327.0,square3,f,0.138,2,N,5.0
NS5,75.0,31.0,40.0,53.0,38.0,53,3380.0,square3,f,0.057,2,N,5.0
NS5,76.0,33.0,41.0,59.0,35.0,59,3439.0,square3,f,0.1661,2,N,5.0
NS5,77.0,33.0,42.0,56.0,38.0,56,3495.0,square3,f,0.2346,2,N,5.0
NS5,78.0,30.0,42.0,53.0,37.0,53,3548.0,square3,f,0.2813,2,N,5.0
NS5,79.0,27.0,49.0,51.0,44.0,51,3599.0,square3,f,0.0262,2,N,5.0
NS5,80.0,31.0,49.0,45.0,44.0,45,3644.0,square3,f,0.0816,2,N,5.0
NS5,81.0,33.0,51.0,48.0,43.0,43,3687.0,square4,r,0.4413,3,N,5.0
NS5,82.0,31.0,54.0,41.0,43.0,41,3728.0,square3,f,0.3262,2,N,5.0
NS5,83.0,25.0,57.0,42.0,40.0,40,3768.0,square4,r,0.1719,3,N,5.0
NS5,84.0,36.0,57.0,45.0,38.0,45,3813.0,square3,f,0.0672,2,N,5.0
NS5,85.0,36.0,62.0,44.0,42.0,42,3855.0,square4,r,0.3718,3,N,5.0
NS5,86.0,33.0,55.0,48.0,43.0,48,3903.0,square3,f,0.1882,2,N,5.0
NS5,87.0,37.0,53.0,44.0,46.0,44,3947.0,square3,f,0.1283,2,N,5.0
NS5,88.0,36.0,54.0,41.0,48.0,41,3988.0,square3,f,0.1804,2,N,5.0
NS5,89.0,39.0,62.0,47.0,47.0,47,4035.0,square3,f,0.1827,2,N,5.0
NS5,90.0,37.0,62.0,51.0,48.0,51,4086.0,square3,f,0.0019,2,N,5.0
NS5,91.0,40.0,64.0,48.0,53.0,48,4134.0,square3,f,0.1174,2,N,5.0
NS5,92.0,42.0,64.0,51.0,55.0,51,4185.0,square3,f,0.1415,2,N,5.0
NS5,93.0,39.0,63.0,51.0,53.0,51,4236.0,square3,f,0.0221,2,N,5.0
NS5,94.0,41.0,60.0,50.0,58.0,50,4286.0,square3,f,0.0561,2,N,5.0
NS5,95.0,36.0,55.0,53.0,52.0,53,4339.0,square3,f,0.1577,2,N,5.0
NS5,96.0,36.0,56.0,55.0,56.0,55,4394.0,square3,f,0.0017,2,N,5.0
NS5,97.0,28.0,52.0,57.0,53.0,57,4451.0,square3,f,0.1205,2,N,5.0
NS5,98.0,29.0,53.0,53.0,43.0,53,4504.0,square3,f,0.1241,2,N,5.0
NS5,99.0,25.0,55.0,53.0,46.0,53,4557.0,square3,f,0.042,2,N,5.0
V2,0.0,33.0,24.0,43.0,18.0,18,18.0,square4,f,0.732,3,V,2.0
V2,1.0,33.0,29.0,42.0,21.0,29,47.0,square2,j,0.2129,1,V,2.0
V2,2.0,37.0,26.0,45.0,22.0,45,92.0,square3,i,0.2257,2,V,2.0
V2,3.0,39.0,26.0,41.0,20.0,39,131.0,square1,r,0.4708,0,V,2.0
V2,4.0,29.0,32.0,45.0,19.0,45,176.0,square3,i,0.0975,2,V,2.0
V2,5.0,33.0,28.0,44.0,17.0,44,220.0,square3,i,0.3369,2,V,2.0
V2,6.0,32.0,24.0,49.0,20.0,24,244.0,square2,j,0.0566,1,V,2.0
V2,7.0,32.0,21.0,42.0,13.0,13,257.0,square4,f,0.3863,3,V,2.0
V2,8.0,35.0,23.0,45.0,19.0,35,292.0,square1,r,0.0553,0,V,2.0
V2,9.0,33.0,28.0,46.0,17.0,46,338.0,square3,i,0.1174,2,V,2.0
V2,10.0,39.0,27.0,45.0,21.0,45,383.0,square3,i,0.0019,2,V,2.0
V2,11.0,30.0,23.0,44.0,22.0,44,427.0,square3,i,0.0193,2,V,2.0
V2,12.0,31.0,26.0,43.0,16.0,43,470.0,square3,i,0.074,2,V,2.0
V2,13.0,35.0,26.0,43.0,22.0,43,513.0,square3,i,0.0581,2,V,2.0
V2,14.0,35.0,29.0,46.0,19.0,29,542.0,square2,j,0.3083,1,V,2.0
V2,15.0,36.0,22.0,44.0,20.0,44,586.0,square3,i,0.0209,2,V,2.0
V2,16.0,33.0,27.0,45.0,19.0,33,619.0,square1,r,0.1414,0,V,2.0
V2,17.0,35.0,25.0,41.0,15.0,41,660.0,square3,i,0.0019,2,V,2.0
V2,18.0,37.0,27.0,51.0,21.0,51,711.0,square3,i,0.0018,2,V,2.0
V2,19.0,33.0,25.0,43.0,18.0,18,729.0,square4,f,0.4289,3,V,2.0
V2,20.0,39.0,25.0,43.0,20.0,43,772.0,square3,i,0.0187,2,V,2.0
V2,21.0,27.0,32.0,43.0,24.0,43,815.0,square3,i,0.172,2,V,2.0
V2,22.0,35.0,27.0,50.0,13.0,50,865.0,square3,i,0.1845,2,V,2.0
V2,23.0,36.0,25.0,39.0,17.0,39,904.0,square3,i,0.0659,2,V,2.0
V2,24.0,32.0,45.0,39.0,59.0,39,943.0,square3,i,0.1601,2,V,2.0
V2,25.0,26.0,43.0,37.0,55.0,26,969.0,square1,r,0.845,0,V,2.0
V2,26.0,23.0,45.0,39.0,58.0,45,1014.0,square2,j,0.0586,1,V,2.0
V2,27.0,30.0,44.0,40.0,56.0,44,1058.0,square2,j,0.2204,1,V,2.0
V2,28.0,34.0,48.0,41.0,54.0,48,1106.0,square2,j,0.4281,1,V,2.0
V2,29.0,29.0,42.0,35.0,54.0,42,1148.0,square2,j,0.0828,1,V,2.0
V2,30.0,22.0,39.0,39.0,55.0,39,1187.0,square2,j,0.0015,1,V,2.0
V2,31.0,32.0,48.0,35.0,50.0,50,1237.0,square4,f,0.5374,3,V,2.0
V2,32.0,27.0,47.0,40.0,58.0,58,1295.0,square4,f,0.0018,3,V,2.0
V2,33.0,28.0,46.0,31.0,54.0,54,1349.0,square4,f,0.035,3,V,2.0
V2,34.0,28.0,44.0,41.0,49.0,49,1398.0,square4,f,0.0131,3,V,2.0
V2,35.0,31.0,44.0,33.0,59.0,59,1457.0,square4,f,0.1611,3,V,2.0
V2,36.0,29.0,48.0,30.0,55.0,55,1512.0,square4,f,0.1504,3,V,2.0
V2,37.0,25.0,45.0,32.0,51.0,51,1563.0,square4,f,0.0748,3,V,2.0
V2,38.0,29.0,48.0,33.0,54.0,54,1617.0,square4,f,0.0593,3,V,2.0
V2,39.0,29.0,44.0,33.0,54.0,54,1671.0,square4,f,0.0812,3,V,2.0
V2,40.0,33.0,42.0,37.0,61.0,61,1732.0,square4,f,0.2217,3,V,2.0
V2,41.0,28.0,45.0,41.0,57.0,57,1789.0,square4,f,0.0185,3,V,2.0
V2,42.0,33.0,46.0,36.0,54.0,54,1843.0,square4,f,0.1046,3,V,2.0
V2,43.0,31.0,42.0,40.0,57.0,57,1900.0,square4,f,0.0396,3,V,2.0
V2,44.0,27.0,45.0,38.0,56.0,56,1956.0,square4,f,0.0553,3,V,2.0
V2,45.0,27.0,44.0,32.0,51.0,51,2007.0,square4,f,0.1224,3,V,2.0
V2,46.0,28.0,44.0,39.0,57.0,57,2064.0,square4,f,0.1589,3,V,2.0
V2,47.0,30.0,45.0,36.0,56.0,56,2120.0,square4,f,0.1177,3,V,2.0
V2,48.0,31.0,47.0,41.0,59.0,59,2179.0,square4,f,0.0017,3,V,2.0
V2,49.0,32.0,45.0,33.0,57.0,99999,2179.0,invalid,,,-1,V,2.0
V2,50.0,24.0,38.0,36.0,52.0,52,2231.0,square4,f,1.5917,3,V,2.0
V2,51.0,29.0,48.0,34.0,54.0,54,2285.0,square4,f,0.1923,3,V,2.0
V2,52.0,30.0,50.0,38.0,56.0,56,2341.0,square4,f,0.2029,3,V,2.0
V2,53.0,27.0,47.0,33.0,55.0,55,2396.0,square4,f,0.1421,3,V,2.0
V2,54.0,34.0,21.0,45.0,25.0,25,2421.0,square4,f,0.2017,3,V,2.0
V2,55.0,36.0,19.0,39.0,24.0,24,2445.0,square4,f,0.0343,3,V,2.0
V2,56.0,29.0,19.0,45.0,18.0,18,2463.0,square4,f,0.1368,3,V,2.0
V2,57.0,29.0,20.0,39.0,20.0,29,2492.0,square1,r,0.3682,0,V,2.0
V2,58.0,40.0,18.0,42.0,21.0,42,2534.0,square3,i,0.1848,2,V,2.0
V2,59.0,31.0,17.0,44.0,23.0,17,2551.0,square2,j,0.1787,1,V,2.0
V2,60.0,31.0,19.0,42.0,20.0,42,2593.0,square3,i,0.0762,2,V,2.0
V2,61.0,34.0,16.0,41.0,25.0,41,2634.0,square3,i,0.1499,2,V,2.0
V2,62.0,28.0,12.0,41.0,22.0,41,2675.0,square3,i,0.0967,2,V,2.0
V2,63.0,32.0,14.0,45.0,26.0,45,2720.0,square3,i,0.0387,2,V,2.0
V2,64.0,36.0,21.0,41.0,25.0,41,2761.0,square3,i,0.0391,2,V,2.0
V2,65.0,32.0,13.0,39.0,24.0,39,2800.0,square3,i,0.074,2,V,2.0
V2,66.0,35.0,15.0,42.0,20.0,42,2842.0,square3,i,0.1809,2,V,2.0
V2,67.0,30.0,23.0,47.0,27.0,47,2889.0,square3,i,0.1078,2,V,2.0
V2,68.0,31.0,17.0,43.0,24.0,43,2932.0,square3,i,0.0174,2,V,2.0
V2,69.0,33.0,20.0,41.0,20.0,41,2973.0,square3,i,0.1172,2,V,2.0
V2,70.0,37.0,17.0,43.0,21.0,43,3016.0,square3,i,0.1382,2,V,2.0
V2,71.0,45.0,31.0,36.0,58.0,36,3052.0,square3,i,0.1185,2,V,2.0
V2,72.0,47.0,31.0,31.0,54.0,31,3083.0,square2,j,0.2652,1,V,2.0
V2,73.0,50.0,30.0,33.0,55.0,50,3133.0,square1,r,0.0341,0,V,2.0
V2,74.0,45.0,31.0,36.0,51.0,45,3178.0,square1,r,0.0018,0,V,2.0
V2,75.0,47.0,28.0,38.0,54.0,47,3225.0,square1,r,0.1575,0,V,2.0
V2,76.0,52.0,33.0,35.0,60.0,52,3277.0,square1,r,0.1809,0,V,2.0
V2,77.0,41.0,29.0,37.0,53.0,41,3318.0,square1,r,0.1402,0,V,2.0
V2,78.0,51.0,24.0,34.0,56.0,51,3369.0,square1,r,0.0223,0,V,2.0
V2,79.0,41.0,34.0,36.0,52.0,41,3410.0,square1,r,0.0641,0,V,2.0
V2,80.0,48.0,31.0,37.0,51.0,48,3458.0,square1,r,0.057,0,V,2.0
V2,81.0,43.0,32.0,40.0,53.0,43,3501.0,square1,r,0.2216,0,V,2.0
V2,82.0,48.0,25.0,37.0,58.0,48,3549.0,square1,r,0.2644,0,V,2.0
V2,83.0,45.0,32.0,36.0,61.0,45,3594.0,square1,r,0.0258,0,V,2.0
V2,84.0,47.0,29.0,39.0,60.0,47,3641.0,square1,r,0.1433,0,V,2.0
V2,85.0,49.0,30.0,39.0,54.0,49,3690.0,square1,r,0.1849,0,V,2.0
V2,86.0,46.0,28.0,33.0,51.0,46,3736.0,square1,r,0.0018,0,V,2.0
V2,87.0,45.0,24.0,37.0,55.0,45,3781.0,square1,r,0.201,0,V,2.0
V2,88.0,48.0,29.0,42.0,54.0,48,3829.0,square1,r,0.1489,0,V,2.0
V2,89.0,43.0,31.0,38.0,52.0,43,3872.0,square1,r,0.2826,0,V,2.0
V2,90.0,51.0,33.0,36.0,56.0,51,3923.0,square1,r,0.1581,0,V,2.0
V2,91.0,49.0,32.0,37.0,59.0,49,3972.0,square1,r,0.3113,0,V,2.0
V2,92.0,47.0,29.0,37.0,56.0,47,4019.0,square1,r,0.0561,0,V,2.0
V2,93.0,45.0,27.0,35.0,56.0,45,4064.0,square1,r,0.078,0,V,2.0
V2,94.0,45.0,31.0,31.0,49.0,45,4109.0,square1,r,0.0018,0,V,2.0
V2,95.0,47.0,33.0,36.0,52.0,47,4156.0,square1,r,0.2467,0,V,2.0
V2,96.0,44.0,28.0,37.0,59.0,44,4200.0,square1,r,0.0045,0,V,2.0
V2,97.0,48.0,28.0,33.0,55.0,48,4248.0,square1,r,0.2099,0,V,2.0
V2,98.0,49.0,29.0,39.0,60.0,49,4297.0,square1,r,0.041,0,V,2.0
V2,99.0,44.0,30.0,36.0,50.0,44,4341.0,square1,r,0.062,0,V,2.0
V6,0.0,43.0,59.0,68.0,49.0,59,59.0,square2,i,1.1343,1,V,6.0
V6,1.0,43.0,62.0,71.0,50.0,62,121.0,square2,i,0.6379,1,V,6.0
V6,2.0,48.0,61.0,72.0,51.0,61,182.0,square2,i,0.0761,1,V,6.0
V6,3.0,46.0,55.0,71.0,51.0,55,237.0,square2,i,0.0131,1,V,6.0
V6,4.0,44.0,61.0,74.0,48.0,61,298.0,square2,i,0.3132,1,V,6.0
V6,5.0,45.0,62.0,70.0,51.0,51,349.0,square4,j,0.3505,3,V,6.0
V6,6.0,42.0,67.0,73.0,46.0,42,391.0,square1,f,0.1205,0,V,6.0
V6,7.0,44.0,63.0,71.0,53.0,71,462.0,square3,r,0.1586,2,V,6.0
V6,8.0,41.0,62.0,73.0,52.0,73,535.0,square3,r,0.0787,2,V,6.0
V6,9.0,46.0,59.0,72.0,54.0,72,607.0,square3,r,0.0141,2,V,6.0
V6,10.0,45.0,59.0,70.0,53.0,70,677.0,square3,r,0.1842,2,V,6.0
V6,11.0,45.0,60.0,70.0,49.0,70,747.0,square3,r,0.0399,2,V,6.0
V6,12.0,45.0,66.0,64.0,48.0,64,811.0,square3,r,0.0174,2,V,6.0
V6,13.0,45.0,61.0,69.0,47.0,61,872.0,square2,i,0.3305,1,V,6.0
V6,14.0,47.0,60.0,71.0,56.0,56,928.0,square4,j,0.0172,3,V,6.0
V6,15.0,46.0,64.0,67.0,52.0,46,974.0,square1,f,0.0406,0,V,6.0
V6,16.0,50.0,60.0,69.0,54.0,69,1043.0,square3,r,0.1603,2,V,6.0
V6,17.0,43.0,60.0,70.0,53.0,70,1113.0,square3,r,0.1577,2,V,6.0
V6,18.0,46.0,63.0,72.0,55.0,72,1185.0,square3,r,0.242,2,V,6.0
V6,19.0,46.0,65.0,73.0,51.0,73,1258.0,square3,r,0.0763,2,V,6.0
V6,20.0,44.0,63.0,66.0,51.0,66,1324.0,square3,r,0.0585,2,V,6.0
V6,21.0,43.0,63.0,70.0,49.0,70,1394.0,square3,r,0.1572,2,V,6.0
V6,22.0,45.0,63.0,71.0,50.0,71,1465.0,square3,r,0.0967,2,V,6.0
V6,23.0,45.0,38.0,28.0,60.0,28,1493.0,square3,r,0.3462,2,V,6.0
V6,24.0,46.0,33.0,33.0,53.0,33,1526.0,square2,i,0.9089,1,V,6.0
V6,25.0,45.0,36.0,32.0,63.0,63,1589.0,square4,j,0.0754,3,V,6.0
V6,26.0,52.0,37.0,28.0,57.0,52,1641.0,square1,f,0.6364,0,V,6.0
V6,27.0,45.0,33.0,30.0,62.0,62,1703.0,square4,j,0.0833,3,V,6.0
V6,28.0,43.0,37.0,24.0,51.0,51,1754.0,square4,j,0.0886,3,V,6.0
V6,29.0,48.0,39.0,34.0,61.0,61,1815.0,square4,j,0.2913,3,V,6.0
V6,30.0,48.0,44.0,35.0,59.0,59,1874.0,square4,j,0.0115,3,V,6.0
V6,31.0,50.0,39.0,34.0,53.0,53,1927.0,square4,j,0.055,3,V,6.0
V6,32.0,44.0,33.0,33.0,54.0,33,1960.0,square3,r,0.076,2,V,6.0
V6,33.0,48.0,37.0,30.0,56.0,37,1997.0,square2,i,0.013,1,V,6.0
V6,34.0,52.0,37.0,27.0,59.0,52,2049.0,square1,f,0.1625,0,V,6.0
V6,35.0,47.0,32.0,29.0,59.0,59,2108.0,square4,j,0.0018,3,V,6.0
V6,36.0,45.0,37.0,27.0,56.0,56,2164.0,square4,j,0.2479,3,V,6.0
V6,37.0,39.0,37.0,31.0,57.0,57,2221.0,square4,j,0.1075,3,V,6.0
V6,38.0,50.0,38.0,29.0,56.0,56,2277.0,square4,j,0.14,3,V,6.0
V6,39.0,48.0,37.0,27.0,57.0,57,2334.0,square4,j,0.1672,3,V,6.0
V6,40.0,53.0,37.0,29.0,57.0,57,2391.0,square4,j,0.0638,3,V,6.0
V6,41.0,41.0,34.0,33.0,58.0,58,2449.0,square4,j,0.1223,3,V,6.0
V6,42.0,50.0,37.0,31.0,57.0,57,2506.0,square4,j,0.3667,3,V,6.0
V6,43.0,48.0,34.0,30.0,58.0,48,2554.0,square1,f,0.1187,0,V,6.0
V6,44.0,44.0,37.0,33.0,60.0,60,2614.0,square4,j,0.0543,3,V,6.0
V6,45.0,44.0,32.0,33.0,55.0,55,2669.0,square4,j,0.0857,3,V,6.0
V6,46.0,44.0,36.0,33.0,59.0,59,2728.0,square4,j,0.0545,3,V,6.0
V6,47.0,42.0,34.0,29.0,52.0,29,2757.0,square3,r,0.0962,2,V,6.0
V6,48.0,46.0,41.0,28.0,60.0,60,2817.0,square4,j,0.0808,3,V,6.0
V6,49.0,46.0,40.0,27.0,55.0,55,2872.0,square4,j,0.0453,3,V,6.0
V6,50.0,46.0,41.0,32.0,55.0,55,2927.0,square4,j,0.0134,3,V,6.0
V6,51.0,41.0,39.0,30.0,55.0,55,2982.0,square4,j,0.1575,3,V,6.0
V6,52.0,47.0,37.0,31.0,55.0,55,3037.0,square4,j,0.0622,3,V,6.0
V6,53.0,57.0,36.0,30.0,58.0,58,3095.0,square4,j,0.1834,3,V,6.0
V6,54.0,42.0,38.0,28.0,50.0,50,3145.0,square4,j,0.1173,3,V,6.0
V6,55.0,56.0,42.0,67.0,46.0,46,3191.0,square4,j,0.1414,3,V,6.0
V6,56.0,54.0,37.0,68.0,46.0,37,3228.0,square2,i,0.4549,1,V,6.0
V6,57.0,57.0,40.0,64.0,52.0,57,3285.0,square1,f,0.0748,0,V,6.0
V6,58.0,53.0,45.0,68.0,45.0,53,3338.0,square1,f,0.6021,0,V,6.0
V6,59.0,59.0,41.0,69.0,49.0,59,3397.0,square1,f,0.1157,0,V,6.0
V6,60.0,62.0,41.0,71.0,51.0,62,3459.0,square1,f,0.0952,0,V,6.0
V6,61.0,58.0,50.0,72.0,51.0,58,3517.0,square1,f,0.1585,0,V,6.0
V6,62.0,61.0,43.0,65.0,47.0,61,3578.0,square1,f,0.2008,0,V,6.0
V6,63.0,55.0,40.0,67.0,51.0,55,3633.0,square1,f,0.1375,0,V,6.0
V6,64.0,56.0,43.0,67.0,47.0,56,3689.0,square1,f,0.1209,0,V,6.0
V6,65.0,62.0,46.0,67.0,48.0,67,3756.0,square3,r,0.0343,2,V,6.0
V6,66.0,55.0,44.0,67.0,48.0,67,3823.0,square3,r,0.2641,2,V,6.0
V6,67.0,61.0,46.0,70.0,49.0,70,3893.0,square3,r,0.285,2,V,6.0
V6,68.0,63.0,41.0,72.0,46.0,72,3965.0,square3,r,0.2421,2,V,6.0
V6,69.0,59.0,41.0,68.0,48.0,68,4033.0,square3,r,0.0017,2,V,6.0
V6,70.0,59.0,37.0,70.0,45.0,70,4103.0,square3,r,0.2116,2,V,6.0
V6,71.0,83.0,64.0,56.0,70.0,56,4159.0,square3,r,0.0412,2,V,6.0
V6,72.0,82.0,59.0,53.0,75.0,53,4212.0,square3,r,0.4975,2,V,6.0
V6,73.0,85.0,67.0,58.0,73.0,58,4270.0,square3,r,0.2216,2,V,6.0
V6,74.0,79.0,67.0,61.0,73.0,61,4331.0,square3,r,0.1614,2,V,6.0
V6,75.0,84.0,62.0,53.0,69.0,62,4393.0,square2,i,0.5412,1,V,6.0
V6,76.0,81.0,60.0,55.0,76.0,60,4453.0,square2,i,0.0204,1,V,6.0
V6,77.0,84.0,61.0,60.0,72.0,72,4525.0,square4,j,0.1491,3,V,6.0
V6,78.0,90.0,61.0,54.0,74.0,74,4599.0,square4,j,0.0527,3,V,6.0
V6,79.0,80.0,64.0,51.0,75.0,80,4679.0,square1,f,0.2891,0,V,6.0
V6,80.0,85.0,62.0,56.0,78.0,85,4764.0,square1,f,0.0386,0,V,6.0
V6,81.0,86.0,65.0,58.0,69.0,86,4850.0,square1,f,0.0253,0,V,6.0
V6,82.0,83.0,62.0,58.0,77.0,83,4933.0,square1,f,0.0018,0,V,6.0
V6,83.0,87.0,61.0,59.0,70.0,87,5020.0,square1,f,0.1415,0,V,6.0
V6,84.0,89.0,65.0,54.0,78.0,89,5109.0,square1,f,0.0753,0,V,6.0
V6,85.0,78.0,63.0,55.0,75.0,78,5187.0,square1,f,0.0018,0,V,6.0
V6,86.0,87.0,67.0,52.0,75.0,87,5274.0,square1,f,0.3728,0,V,6.0
V6,87.0,86.0,62.0,60.0,75.0,86,5360.0,square1,f,1.6797,0,V,6.0
V6,88.0,79.0,67.0,56.0,76.0,79,5439.0,square1,f,0.1705,0,V,6.0
V6,89.0,83.0,61.0,57.0,75.0,83,5522.0,square1,f,0.138,0,V,6.0
V6,90.0,83.0,67.0,51.0,76.0,83,5605.0,square1,f,0.2213,0,V,6.0
V6,91.0,83.0,63.0,55.0,69.0,83,5688.0,square1,f,0.002,0,V,6.0
V6,92.0,89.0,56.0,53.0,68.0,89,5777.0,square1,f,0.0129,0,V,6.0
V6,93.0,84.0,61.0,59.0,74.0,84,5861.0,square1,f,0.2431,0,V,6.0
V6,94.0,77.0,58.0,58.0,76.0,77,5938.0,square1,f,0.0864,0,V,6.0
V6,95.0,82.0,60.0,53.0,74.0,82,6020.0,square1,f,0.0198,0,V,6.0
V6,96.0,87.0,61.0,56.0,71.0,87,6107.0,square1,f,0.1587,0,V,6.0
V6,97.0,83.0,66.0,55.0,75.0,83,6190.0,square1,f,0.1046,0,V,6.0
V6,98.0,81.0,63.0,55.0,76.0,81,6271.0,square1,f,0.0987,0,V,6.0
V6,99.0,92.0,63.0,61.0,78.0,92,6363.0,square1,f,1.2434,0,V,6.0
V7,0.0,86.0,61.0,78.0,68.0,86,86.0,square1,i,0.4479,0,V,7.0
V7,1.0,95.0,62.0,79.0,70.0,62,148.0,square2,j,0.3555,1,V,7.0
V7,2.0,89.0,67.0,81.0,77.0,81,229.0,square3,f,0.0385,2,V,7.0
V7,3.0,90.0,56.0,85.0,72.0,85,314.0,square3,f,0.3674,2,V,7.0
V7,4.0,91.0,65.0,77.0,71.0,91,405.0,square1,i,0.015,0,V,7.0
V7,5.0,91.0,58.0,84.0,72.0,84,489.0,square3,f,0.0019,2,V,7.0
V7,6.0,94.0,65.0,87.0,72.0,72,561.0,square4,r,0.1381,3,V,7.0
V7,7.0,89.0,67.0,79.0,67.0,89,650.0,square1,i,0.1174,0,V,7.0
V7,8.0,91.0,65.0,84.0,68.0,84,734.0,square3,f,0.0792,2,V,7.0
V7,9.0,92.0,60.0,87.0,69.0,60,794.0,square2,j,0.1084,1,V,7.0
V7,10.0,90.0,67.0,81.0,76.0,76,870.0,square4,r,0.2089,3,V,7.0
V7,11.0,86.0,67.0,83.0,73.0,86,956.0,square1,i,0.3553,0,V,7.0
V7,12.0,90.0,62.0,80.0,72.0,80,1036.0,square3,f,0.164,2,V,7.0
V7,13.0,84.0,60.0,88.0,71.0,84,1120.0,square1,i,0.0019,0,V,7.0
V7,14.0,95.0,64.0,80.0,70.0,95,1215.0,square1,i,0.1235,0,V,7.0
V7,15.0,86.0,60.0,81.0,70.0,86,1301.0,square1,i,0.1181,0,V,7.0
V7,16.0,85.0,65.0,77.0,69.0,85,1386.0,square1,i,0.1304,0,V,7.0
V7,17.0,91.0,65.0,81.0,70.0,91,1477.0,square1,i,0.187,0,V,7.0
V7,18.0,95.0,61.0,81.0,76.0,95,1572.0,square1,i,0.0218,0,V,7.0
V7,19.0,90.0,58.0,79.0,72.0,90,1662.0,square1,i,0.0131,0,V,7.0
V7,20.0,94.0,68.0,80.0,79.0,80,1742.0,square3,f,0.1997,2,V,7.0
V7,21.0,92.0,66.0,82.0,70.0,70,1812.0,square4,r,0.1927,3,V,7.0
V7,22.0,92.0,64.0,83.0,72.0,64,1876.0,square2,j,0.119,1,V,7.0
V7,23.0,91.0,68.0,82.0,73.0,91,1967.0,square1,i,0.0018,0,V,7.0
V7,24.0,87.0,71.0,82.0,72.0,87,2054.0,square1,i,0.0744,0,V,7.0
V7,25.0,91.0,68.0,90.0,74.0,91,2145.0,square1,i,0.1513,0,V,7.0
V7,26.0,89.0,65.0,83.0,72.0,89,2234.0,square1,i,0.047,0,V,7.0
V7,27.0,91.0,61.0,81.0,73.0,91,2325.0,square1,i,0.014,0,V,7.0
V7,28.0,90.0,66.0,81.0,72.0,90,2415.0,square1,i,0.0738,0,V,7.0
V7,29.0,89.0,67.0,77.0,71.0,89,2504.0,square1,i,0.1822,0,V,7.0
V7,30.0,95.0,68.0,84.0,71.0,95,2599.0,square1,i,0.0139,0,V,7.0
V7,31.0,95.0,61.0,81.0,70.0,95,2694.0,square1,i,0.0764,0,V,7.0
V7,32.0,89.0,65.0,82.0,75.0,89,2783.0,square1,i,0.2664,0,V,7.0
V7,33.0,77.0,50.0,80.0,61.0,77,2860.0,square1,i,0.0434,0,V,7.0
V7,34.0,76.0,54.0,78.0,61.0,78,2938.0,square3,f,0.3253,2,V,7.0
V7,35.0,71.0,51.0,80.0,64.0,64,3002.0,square4,r,0.0018,3,V,7.0
V7,36.0,75.0,51.0,80.0,62.0,80,3082.0,square3,f,0.002,2,V,7.0
V7,37.0,73.0,58.0,86.0,63.0,73,3155.0,square1,i,0.0217,0,V,7.0
V7,38.0,73.0,50.0,86.0,61.0,50,3205.0,square2,j,0.5227,1,V,7.0
V7,39.0,67.0,53.0,78.0,61.0,78,3283.0,square3,f,0.1279,2,V,7.0
V7,40.0,71.0,53.0,84.0,58.0,71,3354.0,square1,i,0.0238,0,V,7.0
V7,41.0,75.0,51.0,83.0,63.0,83,3437.0,square3,f,0.0056,2,V,7.0
V7,42.0,69.0,48.0,87.0,63.0,87,3524.0,square3,f,0.0805,2,V,7.0
V7,43.0,70.0,58.0,81.0,60.0,81,3605.0,square3,f,0.0339,2,V,7.0
V7,44.0,68.0,56.0,76.0,63.0,76,3681.0,square3,f,0.0331,2,V,7.0
V7,45.0,74.0,59.0,76.0,56.0,56,3737.0,square4,r,0.0829,3,V,7.0
V7,46.0,72.0,54.0,77.0,61.0,54,3791.0,square2,j,0.0838,1,V,7.0
V7,47.0,69.0,47.0,81.0,62.0,69,3860.0,square1,i,0.1159,0,V,7.0
V7,48.0,75.0,52.0,81.0,57.0,81,3941.0,square3,f,0.0333,2,V,7.0
V7,49.0,74.0,55.0,78.0,60.0,78,4019.0,square3,f,0.2029,2,V,7.0
V7,50.0,71.0,51.0,80.0,61.0,80,4099.0,square3,f,0.1864,2,V,7.0
V7,51.0,75.0,55.0,85.0,62.0,85,4184.0,square3,f,0.0265,2,V,7.0
V7,52.0,75.0,59.0,76.0,59.0,76,4260.0,square3,f,0.0953,2,V,7.0
V7,53.0,72.0,53.0,84.0,66.0,84,4344.0,square3,f,0.0593,2,V,7.0
V7,54.0,69.0,51.0,81.0,60.0,81,4425.0,square3,f,0.103,2,V,7.0
V7,55.0,74.0,56.0,75.0,54.0,75,4500.0,square3,f,0.1285,2,V,7.0
V7,56.0,76.0,51.0,83.0,58.0,83,4583.0,square3,f,0.2114,2,V,7.0
V7,57.0,71.0,53.0,80.0,64.0,80,4663.0,square3,f,0.0977,2,V,7.0
V7,58.0,81.0,56.0,79.0,61.0,79,4742.0,square3,f,0.1601,2,V,7.0
V7,59.0,71.0,55.0,83.0,59.0,83,4825.0,square3,f,0.1633,2,V,7.0
V7,60.0,73.0,53.0,83.0,64.0,83,4908.0,square3,f,0.1852,2,V,7.0
V7,61.0,70.0,53.0,77.0,63.0,70,4978.0,square1,i,0.3073,0,V,7.0
V7,62.0,71.0,54.0,76.0,61.0,61,5039.0,square4,r,0.2026,3,V,7.0
V7,63.0,68.0,45.0,79.0,65.0,79,5118.0,square3,f,0.1218,2,V,7.0
V7,64.0,65.0,55.0,79.0,59.0,79,5197.0,square3,f,0.0017,2,V,7.0
V7,65.0,74.0,54.0,81.0,61.0,81,5278.0,square3,f,0.0831,2,V,7.0
V7,66.0,70.0,56.0,81.0,63.0,81,5359.0,square3,f,0.0658,2,V,7.0
V7,67.0,70.0,85.0,64.0,92.0,64,5423.0,square3,f,0.1595,2,V,7.0
V7,68.0,73.0,85.0,68.0,92.0,68,5491.0,square3,f,0.0147,2,V,7.0
V7,69.0,75.0,83.0,70.0,91.0,75,5566.0,square1,i,0.2925,0,V,7.0
V7,70.0,75.0,85.0,69.0,91.0,85,5651.0,square2,j,0.1589,1,V,7.0
V7,71.0,71.0,86.0,65.0,94.0,94,5745.0,square4,r,0.0461,3,V,7.0
V7,72.0,77.0,86.0,65.0,98.0,98,5843.0,square4,r,0.0755,3,V,7.0
V7,73.0,77.0,84.0,63.0,94.0,94,5937.0,square4,r,0.1388,3,V,7.0
V7,74.0,71.0,86.0,64.0,91.0,91,6028.0,square4,r,0.159,3,V,7.0
V7,75.0,73.0,90.0,60.0,90.0,90,6118.0,square4,r,0.0017,3,V,7.0
V7,76.0,79.0,84.0,68.0,95.0,95,6213.0,square4,r,0.1252,3,V,7.0
V7,77.0,73.0,85.0,66.0,89.0,89,6302.0,square4,r,0.0206,3,V,7.0
V7,78.0,75.0,82.0,67.0,91.0,91,6393.0,square4,r,0.0017,3,V,7.0
V7,79.0,72.0,85.0,60.0,90.0,90,6483.0,square4,r,0.0572,3,V,7.0
V7,80.0,73.0,83.0,66.0,97.0,97,6580.0,square4,r,0.1207,3,V,7.0
V7,81.0,73.0,84.0,67.0,92.0,92,6672.0,square4,r,0.0129,3,V,7.0
V7,82.0,69.0,84.0,65.0,91.0,91,6763.0,square4,r,0.2341,3,V,7.0
V7,83.0,76.0,83.0,72.0,99.0,99,6862.0,square4,r,0.2684,3,V,7.0
V7,84.0,72.0,84.0,70.0,94.0,94,6956.0,square4,r,0.0587,3,V,7.0
V7,85.0,77.0,83.0,67.0,88.0,88,7044.0,square4,r,0.1454,3,V,7.0
V7,86.0,76.0,80.0,67.0,90.0,90,7134.0,square4,r,0.2869,3,V,7.0
V7,87.0,70.0,86.0,67.0,95.0,95,7229.0,square4,r,0.0194,3,V,7.0
V7,88.0,76.0,84.0,67.0,100.0,100,7329.0,square4,r,1.0132,3,V,7.0
V7,89.0,71.0,88.0,60.0,97.0,97,7426.0,square4,r,0.18,3,V,7.0
V7,90.0,69.0,82.0,71.0,95.0,69,7495.0,square1,i,0.3884,0,V,7.0
V7,91.0,80.0,84.0,65.0,92.0,84,7579.0,square2,j,0.0598,1,V,7.0
V7,92.0,77.0,85.0,68.0,85.0,68,7647.0,square3,f,0.1175,2,V,7.0
V7,93.0,72.0,84.0,66.0,91.0,91,7738.0,square4,r,0.1823,3,V,7.0
V7,94.0,69.0,83.0,66.0,95.0,95,7833.0,square4,r,0.0955,3,V,7.0
V7,95.0,70.0,86.0,75.0,91.0,91,7924.0,square4,r,0.2011,3,V,7.0
V7,96.0,74.0,85.0,66.0,88.0,88,8012.0,square4,r,0.263,3,V,7.0
V7,97.0,77.0,82.0,73.0,91.0,91,8103.0,square4,r,0.034,3,V,7.0
V7,98.0,76.0,91.0,62.0,94.0,94,8197.0,square4,r,0.0152,3,V,7.0
V7,99.0,74.0,84.0,67.0,88.0,88,8285.0,square4,r,0.0017,3,V,7.0
