block,Trial,square1,square2,square3,square4,currPoints,totalPoints,square,choiceKey.keys,choiceKey.rt,armNum,blockType,blockNum
prac,0.0,100.0,0.0,0.0,0.0,99999,0.0,invalid,,,-1,p,0.0
prac,1.0,100.0,0.0,0.0,0.0,0,0.0,square3,,,2,p,0.0
prac,2.0,100.0,0.0,0.0,0.0,100,100.0,square1,,,0,p,0.0
prac,3.0,100.0,0.0,0.0,0.0,0,100.0,square4,,,3,p,0.0
prac,4.0,100.0,0.0,0.0,0.0,0,100.0,square3,,,2,p,0.0
prac,5.0,100.0,0.0,0.0,0.0,100,200.0,square1,,,0,p,0.0
prac,6.0,100.0,0.0,0.0,0.0,100,300.0,square1,,,0,p,0.0
prac,7.0,100.0,0.0,0.0,0.0,100,400.0,square1,,,0,p,0.0
prac,8.0,100.0,0.0,0.0,0.0,100,500.0,square1,,,0,p,0.0
prac,9.0,100.0,0.0,0.0,0.0,100,600.0,square1,,,0,p,0.0
NS3,0.0,52.0,26.0,68.0,52.0,52,52.0,square4,j,0.9904,3,N,3.0
NS3,1.0,57.0,23.0,69.0,48.0,57,109.0,square1,r,0.7276,0,N,3.0
NS3,2.0,59.0,26.0,70.0,52.0,26,135.0,square2,f,0.5686,1,N,3.0
NS3,3.0,57.0,24.0,70.0,52.0,70,205.0,square3,i,0.5988,2,N,3.0
NS3,4.0,59.0,30.0,74.0,49.0,74,279.0,square3,i,0.5682,2,N,3.0
NS3,5.0,55.0,24.0,67.0,51.0,67,346.0,square3,i,0.5611,2,N,3.0
NS3,6.0,54.0,27.0,73.0,55.0,73,419.0,square3,i,0.579,2,N,3.0
NS3,7.0,55.0,28.0,66.0,43.0,66,485.0,square3,i,0.5034,2,N,3.0
NS3,8.0,57.0,30.0,65.0,45.0,65,550.0,square3,i,0.5014,2,N,3.0
NS3,9.0,53.0,33.0,54.0,37.0,54,604.0,square3,i,0.5217,2,N,3.0
NS3,10.0,46.0,27.0,54.0,43.0,54,658.0,square3,i,0.5648,2,N,3.0
NS3,11.0,48.0,31.0,58.0,51.0,51,709.0,square4,j,0.4515,3,N,3.0
NS3,12.0,50.0,27.0,54.0,53.0,50,759.0,square1,r,0.3491,0,N,3.0
NS3,13.0,49.0,28.0,62.0,50.0,28,787.0,square2,f,0.3489,1,N,3.0
NS3,14.0,53.0,28.0,62.0,52.0,62,849.0,square3,i,0.4012,2,N,3.0
NS3,15.0,52.0,25.0,57.0,57.0,57,906.0,square3,i,0.472,2,N,3.0
NS3,16.0,48.0,29.0,56.0,56.0,56,962.0,square3,i,0.3844,2,N,3.0
NS3,17.0,39.0,21.0,58.0,56.0,58,1020.0,square3,i,0.5624,2,N,3.0
NS3,18.0,40.0,23.0,58.0,60.0,58,1078.0,square3,i,0.43,2,N,3.0
NS3,19.0,40.0,26.0,63.0,58.0,63,1141.0,square3,i,0.4584,2,N,3.0
NS3,20.0,46.0,24.0,60.0,56.0,60,1201.0,square3,i,0.3385,2,N,3.0
NS3,21.0,42.0,27.0,61.0,55.0,61,1262.0,square3,i,0.4039,2,N,3.0
NS3,22.0,45.0,26.0,62.0,56.0,62,1324.0,square3,i,0.3523,2,N,3.0
NS3,23.0,39.0,21.0,64.0,60.0,64,1388.0,square3,i,0.4597,2,N,3.0
NS3,24.0,44.0,21.0,59.0,64.0,59,1447.0,square3,i,0.5107,2,N,3.0
NS3,25.0,44.0,22.0,58.0,65.0,44,1491.0,square1,r,0.3554,0,N,3.0
NS3,26.0,42.0,26.0,60.0,62.0,62,1553.0,square4,j,0.3128,3,N,3.0
NS3,27.0,38.0,18.0,55.0,67.0,67,1620.0,square4,j,0.3515,3,N,3.0
NS3,28.0,41.0,23.0,56.0,60.0,60,1680.0,square4,j,0.3714,3,N,3.0
NS3,29.0,38.0,16.0,52.0,66.0,52,1732.0,square3,i,0.384,2,N,3.0
NS3,30.0,36.0,13.0,61.0,64.0,64,1796.0,square4,j,0.2482,3,N,3.0
NS3,31.0,42.0,13.0,54.0,63.0,63,1859.0,square4,j,0.4449,3,N,3.0
NS3,32.0,38.0,18.0,50.0,62.0,62,1921.0,square4,j,0.297,3,N,3.0
NS3,33.0,29.0,20.0,51.0,64.0,64,1985.0,square4,j,0.3411,3,N,3.0
NS3,34.0,32.0,21.0,45.0,63.0,63,2048.0,square4,j,0.3169,3,N,3.0
NS3,35.0,30.0,17.0,46.0,65.0,65,2113.0,square4,j,0.2884,3,N,3.0
NS3,36.0,35.0,16.0,47.0,69.0,69,2182.0,square4,j,0.2795,3,N,3.0
NS3,37.0,34.0,18.0,45.0,68.0,68,2250.0,square4,j,0.2723,3,N,3.0
NS3,38.0,40.0,14.0,50.0,74.0,74,2324.0,square4,j,0.3122,3,N,3.0
NS3,39.0,39.0,15.0,49.0,73.0,73,2397.0,square4,j,0.2235,3,N,3.0
NS3,40.0,42.0,15.0,51.0,74.0,74,2471.0,square4,j,0.2809,3,N,3.0
NS3,41.0,38.0,17.0,43.0,74.0,74,2545.0,square4,j,0.2712,3,N,3.0
NS3,42.0,36.0,16.0,46.0,74.0,74,2619.0,square4,j,0.2326,3,N,3.0
NS3,43.0,41.0,21.0,44.0,76.0,76,2695.0,square4,j,0.2294,3,N,3.0
NS3,44.0,41.0,26.0,35.0,70.0,70,2765.0,square4,j,0.2377,3,N,3.0
NS3,45.0,39.0,27.0,33.0,75.0,75,2840.0,square4,j,0.278,3,N,3.0
NS3,46.0,45.0,25.0,38.0,77.0,77,2917.0,square4,j,0.3135,3,N,3.0
NS3,47.0,41.0,20.0,34.0,76.0,76,2993.0,square4,j,0.2507,3,N,3.0
NS3,48.0,37.0,25.0,34.0,77.0,77,3070.0,square4,j,0.4039,3,N,3.0
NS3,49.0,41.0,18.0,40.0,78.0,78,3148.0,square4,j,0.2936,3,N,3.0
NS3,50.0,42.0,17.0,41.0,83.0,83,3231.0,square4,j,0.2608,3,N,3.0
NS3,51.0,53.0,18.0,39.0,83.0,83,3314.0,square4,j,0.2785,3,N,3.0
NS3,52.0,55.0,19.0,34.0,82.0,82,3396.0,square4,j,0.2771,3,N,3.0
NS3,53.0,52.0,17.0,39.0,77.0,77,3473.0,square4,j,0.2491,3,N,3.0
NS3,54.0,55.0,21.0,46.0,77.0,77,3550.0,square4,j,0.282,3,N,3.0
NS3,55.0,48.0,21.0,49.0,75.0,75,3625.0,square4,j,0.305,3,N,3.0
NS3,56.0,50.0,25.0,51.0,74.0,74,3699.0,square4,j,0.3228,3,N,3.0
NS3,57.0,54.0,23.0,46.0,66.0,66,3765.0,square4,j,0.342,3,N,3.0
NS3,58.0,60.0,25.0,50.0,72.0,72,3837.0,square4,j,0.2447,3,N,3.0
NS3,59.0,54.0,23.0,46.0,72.0,72,3909.0,square4,j,0.273,3,N,3.0
NS3,60.0,51.0,26.0,50.0,72.0,72,3981.0,square4,j,0.035,3,N,3.0
NS3,61.0,57.0,27.0,54.0,71.0,71,4052.0,square4,j,0.2782,3,N,3.0
NS3,62.0,51.0,27.0,54.0,64.0,64,4116.0,square4,j,0.2187,3,N,3.0
NS3,63.0,54.0,25.0,42.0,62.0,62,4178.0,square4,j,0.3512,3,N,3.0
NS3,64.0,54.0,25.0,47.0,62.0,62,4240.0,square4,j,0.3004,3,N,3.0
NS3,65.0,48.0,26.0,45.0,60.0,60,4300.0,square4,j,0.4199,3,N,3.0
NS3,66.0,49.0,22.0,47.0,60.0,60,4360.0,square4,j,0.2557,3,N,3.0
NS3,67.0,49.0,26.0,45.0,65.0,65,4425.0,square4,j,0.3622,3,N,3.0
NS3,68.0,54.0,26.0,47.0,67.0,67,4492.0,square4,j,0.2872,3,N,3.0
NS3,69.0,48.0,22.0,45.0,56.0,56,4548.0,square4,j,0.2962,3,N,3.0
NS3,70.0,55.0,26.0,48.0,61.0,61,4609.0,square4,j,0.2717,3,N,3.0
NS3,71.0,55.0,29.0,43.0,60.0,60,4669.0,square4,j,0.3387,3,N,3.0
NS3,72.0,56.0,30.0,43.0,51.0,51,4720.0,square4,j,0.2358,3,N,3.0
NS3,73.0,55.0,27.0,47.0,56.0,56,4776.0,square4,j,0.2519,3,N,3.0
NS3,74.0,63.0,26.0,44.0,55.0,26,4802.0,square2,f,0.231,1,N,3.0
NS3,75.0,61.0,34.0,45.0,62.0,61,4863.0,square1,r,0.2307,0,N,3.0
NS3,76.0,55.0,28.0,45.0,62.0,55,4918.0,square1,r,0.2774,0,N,3.0
NS3,77.0,58.0,31.0,53.0,66.0,66,4984.0,square4,j,0.2721,3,N,3.0
NS3,78.0,55.0,29.0,51.0,60.0,55,5039.0,square1,r,0.313,0,N,3.0
NS3,79.0,51.0,29.0,52.0,68.0,52,5091.0,square3,i,0.3466,2,N,3.0
NS3,80.0,55.0,31.0,48.0,59.0,59,5150.0,square4,j,0.1307,3,N,3.0
NS3,81.0,56.0,38.0,56.0,64.0,64,5214.0,square4,j,0.2836,3,N,3.0
NS3,82.0,54.0,27.0,54.0,55.0,55,5269.0,square4,j,0.282,3,N,3.0
NS3,83.0,62.0,30.0,49.0,58.0,58,5327.0,square4,j,0.3034,3,N,3.0
NS3,84.0,64.0,24.0,47.0,62.0,62,5389.0,square4,j,0.2718,3,N,3.0
NS3,85.0,65.0,23.0,54.0,63.0,63,5452.0,square4,j,0.3083,3,N,3.0
NS3,86.0,68.0,25.0,56.0,65.0,65,5517.0,square4,j,0.2776,3,N,3.0
NS3,87.0,65.0,22.0,55.0,60.0,60,5577.0,square4,j,0.2645,3,N,3.0
NS3,88.0,64.0,20.0,58.0,65.0,65,5642.0,square4,j,0.2599,3,N,3.0
NS3,89.0,68.0,13.0,62.0,64.0,64,5706.0,square4,j,0.2636,3,N,3.0
NS3,90.0,72.0,13.0,52.0,64.0,64,5770.0,square4,j,0.2475,3,N,3.0
NS3,91.0,67.0,20.0,52.0,69.0,69,5839.0,square4,j,0.1943,3,N,3.0
NS3,92.0,72.0,21.0,58.0,64.0,64,5903.0,square4,j,0.2467,3,N,3.0
NS3,93.0,73.0,16.0,54.0,67.0,67,5970.0,square4,j,0.2674,3,N,3.0
NS3,94.0,69.0,17.0,51.0,64.0,64,6034.0,square4,j,0.3323,3,N,3.0
NS3,95.0,62.0,19.0,60.0,62.0,62,6096.0,square4,j,0.2498,3,N,3.0
NS3,96.0,67.0,15.0,56.0,67.0,67,6163.0,square4,j,0.2611,3,N,3.0
NS3,97.0,61.0,17.0,58.0,62.0,62,6225.0,square4,j,0.2206,3,N,3.0
NS3,98.0,59.0,13.0,58.0,58.0,58,6283.0,square4,j,0.2113,3,N,3.0
NS3,99.0,62.0,15.0,51.0,60.0,60,6343.0,square4,j,0.4205,3,N,3.0
NS12,0.0,80.0,24.0,40.0,79.0,80,80.0,square1,j,0.9588,0,N,12.0
NS12,1.0,78.0,28.0,44.0,78.0,78,158.0,square4,i,0.6062,3,N,12.0
NS12,2.0,77.0,28.0,37.0,82.0,28,186.0,square2,r,0.3522,1,N,12.0
NS12,3.0,76.0,33.0,39.0,82.0,39,225.0,square3,f,0.2707,2,N,12.0
NS12,4.0,79.0,37.0,34.0,78.0,79,304.0,square1,j,0.3187,0,N,12.0
NS12,5.0,83.0,33.0,28.0,81.0,81,385.0,square4,i,0.374,3,N,12.0
NS12,6.0,77.0,39.0,33.0,80.0,80,465.0,square4,i,0.6183,3,N,12.0
NS12,7.0,77.0,40.0,25.0,85.0,77,542.0,square1,j,0.3845,0,N,12.0
NS12,8.0,77.0,40.0,29.0,87.0,87,629.0,square4,i,0.2078,3,N,12.0
NS12,9.0,70.0,42.0,29.0,88.0,88,717.0,square4,i,0.3142,3,N,12.0
NS12,10.0,65.0,47.0,31.0,86.0,86,803.0,square4,i,0.3738,3,N,12.0
NS12,11.0,67.0,46.0,26.0,84.0,84,887.0,square4,i,0.3101,3,N,12.0
NS12,12.0,67.0,36.0,26.0,84.0,84,971.0,square4,i,0.3021,3,N,12.0
NS12,13.0,69.0,33.0,23.0,82.0,82,1053.0,square4,i,0.2387,3,N,12.0
NS12,14.0,66.0,35.0,20.0,81.0,66,1119.0,square1,j,0.3081,0,N,12.0
NS12,15.0,66.0,30.0,23.0,78.0,78,1197.0,square4,i,0.1299,3,N,12.0
NS12,16.0,69.0,28.0,17.0,74.0,74,1271.0,square4,i,0.3792,3,N,12.0
NS12,17.0,66.0,32.0,20.0,78.0,78,1349.0,square4,i,0.2685,3,N,12.0
NS12,18.0,60.0,33.0,26.0,76.0,76,1425.0,square4,i,0.419,3,N,12.0
NS12,19.0,63.0,37.0,23.0,76.0,76,1501.0,square4,i,0.2617,3,N,12.0
NS12,20.0,59.0,36.0,24.0,78.0,78,1579.0,square4,i,0.3192,3,N,12.0
NS12,21.0,59.0,35.0,25.0,79.0,79,1658.0,square4,i,0.2372,3,N,12.0
NS12,22.0,61.0,37.0,26.0,88.0,88,1746.0,square4,i,0.2572,3,N,12.0
NS12,23.0,61.0,37.0,25.0,83.0,83,1829.0,square4,i,0.3306,3,N,12.0
NS12,24.0,61.0,39.0,26.0,85.0,85,1914.0,square4,i,0.2191,3,N,12.0
NS12,25.0,63.0,30.0,29.0,77.0,77,1991.0,square4,i,0.2523,3,N,12.0
NS12,26.0,58.0,39.0,29.0,83.0,83,2074.0,square4,i,0.2844,3,N,12.0
NS12,27.0,60.0,34.0,32.0,85.0,85,2159.0,square4,i,0.2371,3,N,12.0
NS12,28.0,63.0,32.0,35.0,77.0,77,2236.0,square4,i,0.2428,3,N,12.0
NS12,29.0,61.0,35.0,23.0,79.0,79,2315.0,square4,i,0.2449,3,N,12.0
NS12,30.0,57.0,27.0,30.0,69.0,69,2384.0,square4,i,0.247,3,N,12.0
NS12,31.0,64.0,29.0,26.0,69.0,69,2453.0,square4,i,0.2069,3,N,12.0
NS12,32.0,65.0,29.0,33.0,69.0,69,2522.0,square4,i,0.2589,3,N,12.0
NS12,33.0,68.0,29.0,33.0,73.0,73,2595.0,square4,i,0.4102,3,N,12.0
NS12,34.0,69.0,29.0,29.0,67.0,69,2664.0,square1,j,0.3289,0,N,12.0
NS12,35.0,66.0,32.0,30.0,61.0,61,2725.0,square4,i,0.298,3,N,12.0
NS12,36.0,64.0,27.0,26.0,58.0,58,2783.0,square4,i,0.339,3,N,12.0
NS12,37.0,65.0,32.0,27.0,67.0,65,2848.0,square1,j,0.2314,0,N,12.0
NS12,38.0,63.0,32.0,30.0,64.0,63,2911.0,square1,j,0.2451,0,N,12.0
NS12,39.0,65.0,30.0,30.0,70.0,65,2976.0,square1,j,0.1859,0,N,12.0
NS12,40.0,71.0,37.0,32.0,69.0,71,3047.0,square1,j,0.2938,0,N,12.0
NS12,41.0,66.0,45.0,37.0,69.0,66,3113.0,square1,j,0.2913,0,N,12.0
NS12,42.0,75.0,42.0,35.0,65.0,75,3188.0,square1,j,0.3976,0,N,12.0
NS12,43.0,82.0,39.0,35.0,57.0,57,3245.0,square4,i,0.2526,3,N,12.0
NS12,44.0,81.0,34.0,34.0,61.0,81,3326.0,square1,j,0.2363,0,N,12.0
NS12,45.0,74.0,33.0,36.0,59.0,36,3362.0,square3,f,0.2709,2,N,12.0
NS12,46.0,77.0,32.0,40.0,57.0,32,3394.0,square2,r,0.0853,1,N,12.0
NS12,47.0,79.0,32.0,39.0,60.0,79,3473.0,square1,j,0.1548,0,N,12.0
NS12,48.0,80.0,28.0,34.0,62.0,80,3553.0,square1,j,0.226,0,N,12.0
NS12,49.0,76.0,23.0,37.0,64.0,76,3629.0,square1,j,0.271,0,N,12.0
NS12,50.0,75.0,25.0,37.0,65.0,75,3704.0,square1,j,0.2235,0,N,12.0
NS12,51.0,74.0,25.0,39.0,70.0,74,3778.0,square1,j,0.2521,0,N,12.0
NS12,52.0,79.0,26.0,40.0,73.0,79,3857.0,square1,j,0.1687,0,N,12.0
NS12,53.0,75.0,25.0,33.0,69.0,75,3932.0,square1,j,0.2052,0,N,12.0
NS12,54.0,79.0,25.0,38.0,68.0,79,4011.0,square1,j,0.2348,0,N,12.0
NS12,55.0,81.0,22.0,34.0,68.0,81,4092.0,square1,j,0.2288,0,N,12.0
NS12,56.0,72.0,29.0,39.0,69.0,72,4164.0,square1,j,0.3432,0,N,12.0
NS12,57.0,72.0,28.0,38.0,73.0,72,4236.0,square1,j,0.1381,0,N,12.0
NS12,58.0,69.0,25.0,32.0,71.0,69,4305.0,square1,j,0.1925,0,N,12.0
NS12,59.0,75.0,30.0,33.0,69.0,75,4380.0,square1,j,0.3467,0,N,12.0
NS12,60.0,68.0,28.0,39.0,68.0,68,4448.0,square1,j,0.2118,0,N,12.0
NS12,61.0,69.0,32.0,37.0,60.0,69,4517.0,square1,j,0.2421,0,N,12.0
NS12,62.0,63.0,37.0,39.0,55.0,63,4580.0,square1,j,0.2453,0,N,12.0
NS12,63.0,63.0,38.0,43.0,54.0,63,4643.0,square1,j,0.1807,0,N,12.0
NS12,64.0,60.0,30.0,35.0,55.0,60,4703.0,square1,j,0.2021,0,N,12.0
NS12,65.0,60.0,37.0,34.0,55.0,60,4763.0,square1,j,0.2524,0,N,12.0
NS12,66.0,61.0,40.0,35.0,51.0,61,4824.0,square1,j,0.2782,0,N,12.0
NS12,67.0,65.0,37.0,35.0,53.0,65,4889.0,square1,j,0.2563,0,N,12.0
NS12,68.0,62.0,33.0,38.0,50.0,62,4951.0,square1,j,0.2183,0,N,12.0
NS12,69.0,56.0,41.0,29.0,54.0,56,5007.0,square1,j,0.2501,0,N,12.0
NS12,70.0,56.0,39.0,30.0,57.0,57,5064.0,square4,i,0.3956,3,N,12.0
NS12,71.0,61.0,40.0,33.0,64.0,61,5125.0,square1,j,0.2856,0,N,12.0
NS12,72.0,51.0,42.0,35.0,67.0,67,5192.0,square4,i,0.4403,3,N,12.0
NS12,73.0,56.0,39.0,39.0,67.0,67,5259.0,square4,i,0.4678,3,N,12.0
NS12,74.0,50.0,38.0,40.0,63.0,63,5322.0,square4,i,0.212,3,N,12.0
NS12,75.0,52.0,37.0,41.0,67.0,52,5374.0,square1,j,0.1966,0,N,12.0
NS12,76.0,47.0,40.0,46.0,67.0,40,5414.0,square2,r,0.1919,1,N,12.0
NS12,77.0,45.0,35.0,47.0,67.0,47,5461.0,square3,f,0.184,2,N,12.0
NS12,78.0,44.0,38.0,52.0,66.0,66,5527.0,square4,i,0.0706,3,N,12.0
NS12,79.0,41.0,38.0,52.0,64.0,41,5568.0,square1,j,0.2694,0,N,12.0
NS12,80.0,36.0,41.0,57.0,58.0,58,5626.0,square4,i,0.237,3,N,12.0
NS12,81.0,36.0,42.0,66.0,63.0,63,5689.0,square4,i,0.2735,3,N,12.0
NS12,82.0,35.0,44.0,65.0,62.0,62,5751.0,square4,i,0.3346,3,N,12.0
NS12,83.0,37.0,42.0,70.0,65.0,65,5816.0,square4,i,0.298,3,N,12.0
NS12,84.0,35.0,39.0,72.0,58.0,58,5874.0,square4,i,0.2112,3,N,12.0
NS12,85.0,30.0,40.0,62.0,55.0,55,5929.0,square4,i,0.3671,3,N,12.0
NS12,86.0,36.0,40.0,65.0,59.0,59,5988.0,square4,i,0.2647,3,N,12.0
NS12,87.0,31.0,41.0,67.0,57.0,57,6045.0,square4,i,0.3674,3,N,12.0
NS12,88.0,30.0,50.0,67.0,52.0,52,6097.0,square4,i,0.2852,3,N,12.0
NS12,89.0,28.0,41.0,69.0,54.0,28,6125.0,square1,j,0.2897,0,N,12.0
NS12,90.0,29.0,41.0,61.0,57.0,41,6166.0,square2,r,0.2171,1,N,12.0
NS12,91.0,30.0,36.0,59.0,54.0,59,6225.0,square3,f,0.1286,2,N,12.0
NS12,92.0,28.0,29.0,60.0,54.0,60,6285.0,square3,f,0.202,2,N,12.0
NS12,93.0,30.0,35.0,62.0,52.0,62,6347.0,square3,f,0.2373,2,N,12.0
NS12,94.0,30.0,36.0,60.0,56.0,60,6407.0,square3,f,0.26,2,N,12.0
NS12,95.0,29.0,33.0,63.0,60.0,63,6470.0,square3,f,0.2225,2,N,12.0
NS12,96.0,29.0,30.0,59.0,59.0,59,6529.0,square3,f,0.2617,2,N,12.0
NS12,97.0,31.0,35.0,61.0,61.0,61,6590.0,square3,f,0.2513,2,N,12.0
NS12,98.0,31.0,40.0,67.0,58.0,67,6657.0,square3,f,0.1937,2,N,12.0
NS12,99.0,33.0,37.0,65.0,67.0,65,6722.0,square3,f,0.2851,2,N,12.0
NS4,0.0,55.0,53.0,59.0,44.0,53,53.0,square2,f,0.9573,1,N,4.0
NS4,1.0,49.0,56.0,64.0,41.0,41,94.0,square4,r,0.6604,3,N,4.0
NS4,2.0,50.0,54.0,71.0,48.0,50,144.0,square1,i,0.4767,0,N,4.0
NS4,3.0,53.0,58.0,67.0,50.0,67,211.0,square3,j,0.3008,2,N,4.0
NS4,4.0,49.0,51.0,70.0,55.0,70,281.0,square3,j,0.2553,2,N,4.0
NS4,5.0,55.0,59.0,73.0,58.0,59,340.0,square2,f,0.2367,1,N,4.0
NS4,6.0,56.0,54.0,71.0,57.0,71,411.0,square3,j,0.2191,2,N,4.0
NS4,7.0,60.0,54.0,75.0,52.0,75,486.0,square3,j,0.3106,2,N,4.0
NS4,8.0,58.0,53.0,74.0,52.0,74,560.0,square3,j,0.2685,2,N,4.0
NS4,9.0,46.0,48.0,78.0,51.0,78,638.0,square3,j,0.2374,2,N,4.0
NS4,10.0,55.0,48.0,78.0,51.0,78,716.0,square3,j,0.2884,2,N,4.0
NS4,11.0,55.0,44.0,79.0,49.0,79,795.0,square3,j,0.2699,2,N,4.0
NS4,12.0,50.0,40.0,79.0,50.0,79,874.0,square3,j,0.1983,2,N,4.0
NS4,13.0,45.0,39.0,79.0,53.0,79,953.0,square3,j,0.2348,2,N,4.0
NS4,14.0,44.0,38.0,77.0,56.0,77,1030.0,square3,j,0.2017,2,N,4.0
NS4,15.0,45.0,32.0,68.0,52.0,68,1098.0,square3,j,0.1552,2,N,4.0
NS4,16.0,49.0,32.0,74.0,53.0,74,1172.0,square3,j,0.1858,2,N,4.0
NS4,17.0,45.0,32.0,69.0,51.0,69,1241.0,square3,j,0.2416,2,N,4.0
NS4,18.0,50.0,34.0,69.0,47.0,69,1310.0,square3,j,0.1955,2,N,4.0
NS4,19.0,50.0,36.0,65.0,53.0,65,1375.0,square3,j,0.4047,2,N,4.0
NS4,20.0,45.0,36.0,62.0,53.0,62,1437.0,square3,j,0.2482,2,N,4.0
NS4,21.0,49.0,35.0,62.0,55.0,62,1499.0,square3,j,0.2846,2,N,4.0
NS4,22.0,53.0,32.0,61.0,60.0,32,1531.0,square2,f,0.2517,1,N,4.0
NS4,23.0,52.0,33.0,58.0,54.0,52,1583.0,square1,i,0.1108,0,N,4.0
NS4,24.0,48.0,32.0,52.0,60.0,60,1643.0,square4,r,0.0618,3,N,4.0
NS4,25.0,47.0,30.0,53.0,57.0,53,1696.0,square3,j,0.1086,2,N,4.0
NS4,26.0,50.0,30.0,60.0,55.0,55,1751.0,square4,r,0.2373,3,N,4.0
NS4,27.0,50.0,28.0,62.0,47.0,47,1798.0,square4,r,0.1848,3,N,4.0
NS4,28.0,54.0,28.0,58.0,49.0,58,1856.0,square3,j,0.184,2,N,4.0
NS4,29.0,44.0,29.0,50.0,49.0,50,1906.0,square3,j,0.2685,2,N,4.0
NS4,30.0,43.0,26.0,55.0,57.0,26,1932.0,square2,f,0.2676,1,N,4.0
NS4,31.0,43.0,25.0,60.0,54.0,43,1975.0,square1,i,0.0381,0,N,4.0
NS4,32.0,34.0,27.0,58.0,56.0,58,2033.0,square3,j,0.0611,2,N,4.0
NS4,33.0,34.0,20.0,60.0,62.0,60,2093.0,square3,j,0.254,2,N,4.0
NS4,34.0,38.0,28.0,58.0,57.0,58,2151.0,square3,j,0.1539,2,N,4.0
NS4,35.0,40.0,24.0,63.0,59.0,59,2210.0,square4,r,0.2445,3,N,4.0
NS4,36.0,36.0,30.0,56.0,63.0,63,2273.0,square4,r,0.207,3,N,4.0
NS4,37.0,40.0,29.0,54.0,63.0,63,2336.0,square4,r,0.1981,3,N,4.0
NS4,38.0,40.0,33.0,53.0,69.0,69,2405.0,square4,r,0.1847,3,N,4.0
NS4,39.0,36.0,30.0,57.0,67.0,67,2472.0,square4,r,0.208,3,N,4.0
NS4,40.0,33.0,33.0,58.0,68.0,58,2530.0,square3,j,0.0287,2,N,4.0
NS4,41.0,34.0,28.0,58.0,72.0,72,2602.0,square4,r,0.1238,3,N,4.0
NS4,42.0,35.0,30.0,60.0,70.0,70,2672.0,square4,r,0.0958,3,N,4.0
NS4,43.0,35.0,34.0,57.0,63.0,63,2735.0,square4,r,0.2478,3,N,4.0
NS4,44.0,30.0,32.0,59.0,69.0,69,2804.0,square4,r,0.2371,3,N,4.0
NS4,45.0,29.0,31.0,60.0,66.0,66,2870.0,square4,r,0.2229,3,N,4.0
NS4,46.0,35.0,34.0,66.0,66.0,66,2936.0,square4,r,0.0688,3,N,4.0
NS4,47.0,35.0,28.0,63.0,62.0,62,2998.0,square4,r,0.1168,3,N,4.0
NS4,48.0,37.0,37.0,61.0,55.0,55,3053.0,square4,r,0.1718,3,N,4.0
NS4,49.0,40.0,34.0,59.0,54.0,59,3112.0,square3,j,0.2362,2,N,4.0
NS4,50.0,39.0,38.0,68.0,51.0,68,3180.0,square3,j,0.1091,2,N,4.0
NS4,51.0,46.0,28.0,69.0,48.0,69,3249.0,square3,j,0.2504,2,N,4.0
NS4,52.0,40.0,34.0,62.0,49.0,62,3311.0,square3,j,0.1847,2,N,4.0
NS4,53.0,39.0,34.0,63.0,48.0,63,3374.0,square3,j,0.2028,2,N,4.0
NS4,54.0,44.0,31.0,58.0,47.0,58,3432.0,square3,j,0.2603,2,N,4.0
NS4,55.0,42.0,30.0,68.0,46.0,68,3500.0,square3,j,0.2543,2,N,4.0
NS4,56.0,36.0,25.0,69.0,44.0,69,3569.0,square3,j,0.2348,2,N,4.0
NS4,57.0,35.0,29.0,71.0,46.0,71,3640.0,square3,j,0.1875,2,N,4.0
NS4,58.0,43.0,28.0,68.0,47.0,68,3708.0,square3,j,0.2637,2,N,4.0
NS4,59.0,43.0,27.0,67.0,43.0,67,3775.0,square3,j,0.1587,2,N,4.0
NS4,60.0,40.0,25.0,72.0,46.0,72,3847.0,square3,j,0.1846,2,N,4.0
NS4,61.0,39.0,32.0,63.0,43.0,63,3910.0,square3,j,0.1298,2,N,4.0
NS4,62.0,39.0,29.0,61.0,39.0,61,3971.0,square3,j,0.2005,2,N,4.0
NS4,63.0,41.0,28.0,59.0,40.0,59,4030.0,square3,j,0.0972,2,N,4.0
NS4,64.0,41.0,31.0,57.0,51.0,57,4087.0,square3,j,0.3086,2,N,4.0
NS4,65.0,46.0,36.0,59.0,58.0,59,4146.0,square3,j,0.2793,2,N,4.0
NS4,66.0,45.0,36.0,53.0,46.0,46,4192.0,square4,r,0.2866,3,N,4.0
NS4,67.0,40.0,34.0,49.0,46.0,40,4232.0,square1,i,0.2452,0,N,4.0
NS4,68.0,43.0,37.0,48.0,48.0,37,4269.0,square2,f,0.3284,1,N,4.0
NS4,69.0,42.0,36.0,44.0,56.0,44,4313.0,square3,j,0.2714,2,N,4.0
NS4,70.0,40.0,38.0,47.0,58.0,58,4371.0,square4,r,0.1714,3,N,4.0
NS4,71.0,36.0,34.0,42.0,63.0,63,4434.0,square4,r,0.0862,3,N,4.0
NS4,72.0,38.0,36.0,36.0,66.0,66,4500.0,square4,r,0.2365,3,N,4.0
NS4,73.0,36.0,40.0,40.0,66.0,66,4566.0,square4,r,0.1742,3,N,4.0
NS4,74.0,31.0,38.0,46.0,67.0,67,4633.0,square4,r,0.2447,3,N,4.0
NS4,75.0,40.0,33.0,42.0,64.0,64,4697.0,square4,r,0.2101,3,N,4.0
NS4,76.0,38.0,35.0,42.0,64.0,64,4761.0,square4,r,0.2294,3,N,4.0
NS4,77.0,40.0,35.0,39.0,66.0,66,4827.0,square4,r,0.2006,3,N,4.0
NS4,78.0,40.0,33.0,38.0,68.0,38,4865.0,square3,j,0.089,2,N,4.0
NS4,79.0,40.0,38.0,31.0,70.0,40,4905.0,square1,i,0.1179,0,N,4.0
NS4,80.0,37.0,35.0,33.0,73.0,35,4940.0,square2,f,0.1694,1,N,4.0
NS4,81.0,34.0,35.0,30.0,70.0,70,5010.0,square4,r,0.1203,3,N,4.0
NS4,82.0,35.0,37.0,31.0,66.0,66,5076.0,square4,r,0.0948,3,N,4.0
NS4,83.0,42.0,32.0,28.0,67.0,67,5143.0,square4,r,0.0906,3,N,4.0
NS4,84.0,38.0,35.0,30.0,68.0,68,5211.0,square4,r,0.2012,3,N,4.0
NS4,85.0,43.0,35.0,32.0,64.0,64,5275.0,square4,r,0.1106,3,N,4.0
NS4,86.0,49.0,35.0,32.0,70.0,70,5345.0,square4,r,0.1588,3,N,4.0
NS4,87.0,48.0,34.0,32.0,69.0,69,5414.0,square4,r,0.1598,3,N,4.0
NS4,88.0,50.0,35.0,30.0,64.0,64,5478.0,square4,r,0.1287,3,N,4.0
NS4,89.0,48.0,34.0,32.0,68.0,68,5546.0,square4,r,0.1366,3,N,4.0
NS4,90.0,53.0,29.0,27.0,68.0,68,5614.0,square4,r,0.2127,3,N,4.0
NS4,91.0,54.0,27.0,34.0,68.0,68,5682.0,square4,r,0.1845,3,N,4.0
NS4,92.0,52.0,20.0,35.0,69.0,69,5751.0,square4,r,0.2441,3,N,4.0
NS4,93.0,42.0,15.0,33.0,68.0,68,5819.0,square4,r,0.2077,3,N,4.0
NS4,94.0,40.0,24.0,37.0,72.0,72,5891.0,square4,r,0.1778,3,N,4.0
NS4,95.0,43.0,25.0,43.0,69.0,69,5960.0,square4,r,0.2018,3,N,4.0
NS4,96.0,41.0,29.0,43.0,74.0,74,6034.0,square4,r,0.2091,3,N,4.0
NS4,97.0,46.0,32.0,42.0,78.0,78,6112.0,square4,r,0.2221,3,N,4.0
NS4,98.0,48.0,26.0,46.0,75.0,75,6187.0,square4,r,0.2511,3,N,4.0
NS4,99.0,46.0,27.0,45.0,71.0,71,6258.0,square4,r,0.2351,3,N,4.0
V3,0.0,62.0,45.0,70.0,53.0,45,45.0,square2,j,0.9739,1,V,3.0
V3,1.0,63.0,47.0,76.0,60.0,63,108.0,square1,f,0.2516,0,V,3.0
V3,2.0,65.0,54.0,73.0,57.0,73,181.0,square3,r,0.0852,2,V,3.0
V3,3.0,68.0,51.0,71.0,51.0,51,232.0,square4,i,0.0541,3,V,3.0
V3,4.0,61.0,49.0,75.0,53.0,75,307.0,square3,r,0.0773,2,V,3.0
V3,5.0,65.0,47.0,74.0,50.0,74,381.0,square3,r,0.1024,2,V,3.0
V3,6.0,61.0,51.0,72.0,57.0,72,453.0,square3,r,0.2342,2,V,3.0
V3,7.0,67.0,49.0,75.0,55.0,75,528.0,square3,r,0.1641,2,V,3.0
V3,8.0,64.0,48.0,76.0,56.0,76,604.0,square3,r,0.1011,2,V,3.0
V3,9.0,67.0,49.0,71.0,56.0,71,675.0,square3,r,0.04,2,V,3.0
V3,10.0,65.0,50.0,71.0,56.0,71,746.0,square3,r,0.1283,2,V,3.0
V3,11.0,63.0,43.0,78.0,58.0,78,824.0,square3,r,0.1596,2,V,3.0
V3,12.0,66.0,53.0,73.0,54.0,73,897.0,square3,r,0.0452,2,V,3.0
V3,13.0,64.0,46.0,78.0,51.0,78,975.0,square3,r,0.1845,2,V,3.0
V3,14.0,67.0,51.0,71.0,58.0,71,1046.0,square3,r,0.1741,2,V,3.0
V3,15.0,61.0,50.0,73.0,54.0,73,1119.0,square3,r,0.1231,2,V,3.0
V3,16.0,64.0,52.0,74.0,54.0,74,1193.0,square3,r,0.2293,2,V,3.0
V3,17.0,61.0,48.0,74.0,55.0,74,1267.0,square3,r,0.2535,2,V,3.0
V3,18.0,65.0,50.0,70.0,59.0,70,1337.0,square3,r,0.2538,2,V,3.0
V3,19.0,64.0,52.0,76.0,56.0,76,1413.0,square3,r,0.1349,2,V,3.0
V3,20.0,64.0,50.0,69.0,58.0,69,1482.0,square3,r,0.202,2,V,3.0
V3,21.0,66.0,50.0,72.0,56.0,72,1554.0,square3,r,0.178,2,V,3.0
V3,22.0,43.0,48.0,40.0,62.0,40,1594.0,square3,r,0.2875,2,V,3.0
V3,23.0,41.0,51.0,35.0,59.0,51,1645.0,square2,j,0.3146,1,V,3.0
V3,24.0,51.0,51.0,37.0,60.0,60,1705.0,square4,i,0.0574,3,V,3.0
V3,25.0,45.0,53.0,36.0,57.0,45,1750.0,square1,f,0.1447,0,V,3.0
V3,26.0,44.0,51.0,38.0,59.0,59,1809.0,square4,i,0.6031,3,V,3.0
V3,27.0,43.0,51.0,34.0,66.0,66,1875.0,square4,i,0.2378,3,V,3.0
V3,28.0,47.0,51.0,40.0,67.0,67,1942.0,square4,i,0.1208,3,V,3.0
V3,29.0,42.0,55.0,35.0,65.0,65,2007.0,square4,i,0.1215,3,V,3.0
V3,30.0,49.0,54.0,36.0,62.0,62,2069.0,square4,i,0.1752,3,V,3.0
V3,31.0,50.0,53.0,42.0,66.0,66,2135.0,square4,i,0.1172,3,V,3.0
V3,32.0,47.0,53.0,34.0,58.0,58,2193.0,square4,i,0.3863,3,V,3.0
V3,33.0,45.0,56.0,34.0,62.0,62,2255.0,square4,i,0.1549,3,V,3.0
V3,34.0,48.0,54.0,38.0,64.0,64,2319.0,square4,i,0.2692,3,V,3.0
V3,35.0,39.0,55.0,42.0,65.0,65,2384.0,square4,i,0.2073,3,V,3.0
V3,36.0,46.0,57.0,41.0,63.0,63,2447.0,square4,i,0.1505,3,V,3.0
V3,37.0,43.0,54.0,41.0,65.0,65,2512.0,square4,i,0.2069,3,V,3.0
V3,38.0,47.0,52.0,37.0,63.0,63,2575.0,square4,i,0.154,3,V,3.0
V3,39.0,47.0,53.0,38.0,55.0,55,2630.0,square4,i,0.3303,3,V,3.0
V3,40.0,41.0,54.0,39.0,64.0,64,2694.0,square4,i,0.1716,3,V,3.0
V3,41.0,48.0,52.0,38.0,64.0,64,2758.0,square4,i,0.1841,3,V,3.0
V3,42.0,45.0,50.0,34.0,63.0,63,2821.0,square4,i,0.2022,3,V,3.0
V3,43.0,44.0,50.0,34.0,62.0,62,2883.0,square4,i,0.2383,3,V,3.0
V3,44.0,47.0,55.0,39.0,65.0,65,2948.0,square4,i,0.1941,3,V,3.0
V3,45.0,45.0,55.0,31.0,63.0,63,3011.0,square4,i,0.2842,3,V,3.0
V3,46.0,42.0,52.0,38.0,64.0,64,3075.0,square4,i,0.1853,3,V,3.0
V3,47.0,44.0,53.0,37.0,55.0,55,3130.0,square4,i,0.2747,3,V,3.0
V3,48.0,44.0,49.0,37.0,58.0,58,3188.0,square4,i,0.0601,3,V,3.0
V3,49.0,48.0,58.0,35.0,54.0,54,3242.0,square4,i,0.247,3,V,3.0
V3,50.0,42.0,28.0,30.0,52.0,52,3294.0,square4,i,0.1528,3,V,3.0
V3,51.0,46.0,29.0,32.0,51.0,51,3345.0,square4,i,0.2132,3,V,3.0
V3,52.0,37.0,20.0,36.0,50.0,50,3395.0,square4,i,0.2672,3,V,3.0
V3,53.0,44.0,22.0,34.0,55.0,55,3450.0,square4,i,0.4134,3,V,3.0
V3,54.0,37.0,27.0,26.0,50.0,50,3500.0,square4,i,0.2726,3,V,3.0
V3,55.0,41.0,21.0,39.0,53.0,53,3553.0,square4,i,0.3469,3,V,3.0
V3,56.0,40.0,20.0,38.0,51.0,51,3604.0,square4,i,0.1506,3,V,3.0
V3,57.0,44.0,28.0,31.0,57.0,57,3661.0,square4,i,0.2018,3,V,3.0
V3,58.0,46.0,20.0,28.0,49.0,49,3710.0,square4,i,0.2099,3,V,3.0
V3,59.0,44.0,24.0,30.0,55.0,30,3740.0,square3,r,0.218,2,V,3.0
V3,60.0,42.0,29.0,29.0,51.0,29,3769.0,square2,j,0.1307,1,V,3.0
V3,61.0,41.0,21.0,30.0,46.0,41,3810.0,square1,f,0.0977,0,V,3.0
V3,62.0,41.0,27.0,31.0,49.0,49,3859.0,square4,i,0.0515,3,V,3.0
V3,63.0,42.0,27.0,34.0,51.0,51,3910.0,square4,i,0.3926,3,V,3.0
V3,64.0,41.0,24.0,30.0,47.0,47,3957.0,square4,i,0.2663,3,V,3.0
V3,65.0,36.0,18.0,34.0,48.0,34,3991.0,square3,r,0.2524,2,V,3.0
V3,66.0,39.0,28.0,35.0,45.0,39,4030.0,square1,f,0.2352,0,V,3.0
V3,67.0,42.0,21.0,32.0,46.0,21,4051.0,square2,j,0.129,1,V,3.0
V3,68.0,40.0,24.0,35.0,53.0,53,4104.0,square4,i,0.251,3,V,3.0
V3,69.0,48.0,23.0,34.0,50.0,50,4154.0,square4,i,0.2181,3,V,3.0
V3,70.0,40.0,27.0,31.0,49.0,49,4203.0,square4,i,0.252,3,V,3.0
V3,71.0,41.0,23.0,28.0,51.0,51,4254.0,square4,i,0.1764,3,V,3.0
V3,72.0,42.0,25.0,33.0,55.0,55,4309.0,square4,i,0.1918,3,V,3.0
V3,73.0,41.0,24.0,35.0,55.0,55,4364.0,square4,i,0.139,3,V,3.0
V3,74.0,38.0,26.0,28.0,53.0,53,4417.0,square4,i,0.1746,3,V,3.0
V3,75.0,54.0,39.0,69.0,50.0,50,4467.0,square4,i,0.2021,3,V,3.0
V3,76.0,55.0,42.0,64.0,53.0,53,4520.0,square4,i,0.1201,3,V,3.0
V3,77.0,59.0,37.0,66.0,44.0,44,4564.0,square4,i,0.1678,3,V,3.0
V3,78.0,58.0,38.0,60.0,46.0,46,4610.0,square4,i,0.2072,3,V,3.0
V3,79.0,54.0,35.0,66.0,49.0,66,4676.0,square3,r,0.2639,2,V,3.0
V3,80.0,60.0,36.0,68.0,44.0,68,4744.0,square3,r,0.0796,2,V,3.0
V3,81.0,55.0,38.0,66.0,51.0,55,4799.0,square1,f,0.2349,0,V,3.0
V3,82.0,57.0,47.0,64.0,50.0,47,4846.0,square2,j,0.0703,1,V,3.0
V3,83.0,57.0,37.0,63.0,45.0,63,4909.0,square3,r,0.1359,2,V,3.0
V3,84.0,54.0,40.0,65.0,53.0,65,4974.0,square3,r,0.2245,2,V,3.0
V3,85.0,58.0,41.0,63.0,48.0,63,5037.0,square3,r,0.0594,2,V,3.0
V3,86.0,53.0,38.0,57.0,49.0,57,5094.0,square3,r,0.1855,2,V,3.0
V3,87.0,49.0,42.0,60.0,43.0,60,5154.0,square3,r,0.1535,2,V,3.0
V3,88.0,56.0,35.0,70.0,46.0,70,5224.0,square3,r,0.1076,2,V,3.0
V3,89.0,58.0,39.0,63.0,52.0,63,5287.0,square3,r,0.2389,2,V,3.0
V3,90.0,59.0,43.0,63.0,45.0,63,5350.0,square3,r,0.2463,2,V,3.0
V3,91.0,54.0,37.0,69.0,49.0,69,5419.0,square3,r,0.1813,2,V,3.0
V3,92.0,56.0,41.0,61.0,47.0,61,5480.0,square3,r,0.1085,2,V,3.0
V3,93.0,58.0,35.0,68.0,47.0,68,5548.0,square3,r,0.1415,2,V,3.0
V3,94.0,61.0,37.0,67.0,51.0,67,5615.0,square3,r,0.2519,2,V,3.0
V3,95.0,57.0,32.0,64.0,47.0,64,5679.0,square3,r,0.15,2,V,3.0
V3,96.0,53.0,38.0,63.0,48.0,63,5742.0,square3,r,0.0685,2,V,3.0
V3,97.0,57.0,44.0,71.0,50.0,71,5813.0,square3,r,0.2355,2,V,3.0
V3,98.0,56.0,39.0,70.0,47.0,70,5883.0,square3,r,0.158,2,V,3.0
V3,99.0,62.0,40.0,67.0,49.0,67,5950.0,square3,r,0.1739,2,V,3.0
V8,0.0,49.0,55.0,64.0,74.0,55,55.0,square2,f,0.8292,1,V,8.0
V8,1.0,51.0,54.0,70.0,81.0,70,125.0,square3,j,0.3441,2,V,8.0
V8,2.0,46.0,62.0,70.0,77.0,46,171.0,square1,i,0.3018,0,V,8.0
V8,3.0,46.0,56.0,67.0,75.0,75,246.0,square4,r,0.2702,3,V,8.0
V8,4.0,50.0,59.0,67.0,83.0,83,329.0,square4,r,0.4125,3,V,8.0
V8,5.0,51.0,54.0,65.0,78.0,65,394.0,square3,j,0.1425,2,V,8.0
V8,6.0,45.0,57.0,66.0,80.0,80,474.0,square4,r,0.0573,3,V,8.0
V8,7.0,46.0,64.0,68.0,77.0,64,538.0,square2,f,0.1178,1,V,8.0
V8,8.0,50.0,57.0,66.0,73.0,73,611.0,square4,r,0.0174,3,V,8.0
V8,9.0,46.0,56.0,71.0,72.0,72,683.0,square4,r,0.1113,3,V,8.0
V8,10.0,56.0,58.0,67.0,75.0,75,758.0,square4,r,0.234,3,V,8.0
V8,11.0,50.0,61.0,69.0,74.0,74,832.0,square4,r,0.0574,3,V,8.0
V8,12.0,59.0,59.0,69.0,77.0,77,909.0,square4,r,0.1971,3,V,8.0
V8,13.0,50.0,56.0,72.0,77.0,77,986.0,square4,r,0.1138,3,V,8.0
V8,14.0,48.0,55.0,65.0,80.0,80,1066.0,square4,r,0.2338,3,V,8.0
V8,15.0,48.0,58.0,65.0,76.0,76,1142.0,square4,r,0.1864,3,V,8.0
V8,16.0,49.0,58.0,67.0,75.0,75,1217.0,square4,r,0.1438,3,V,8.0
V8,17.0,51.0,56.0,68.0,76.0,76,1293.0,square4,r,0.1603,3,V,8.0
V8,18.0,52.0,63.0,69.0,80.0,80,1373.0,square4,r,0.134,3,V,8.0
V8,19.0,54.0,54.0,71.0,79.0,79,1452.0,square4,r,0.2082,3,V,8.0
V8,20.0,48.0,53.0,62.0,77.0,77,1529.0,square4,r,0.1189,3,V,8.0
V8,21.0,44.0,61.0,66.0,77.0,77,1606.0,square4,r,0.1841,3,V,8.0
V8,22.0,52.0,58.0,64.0,78.0,78,1684.0,square4,r,0.1623,3,V,8.0
V8,23.0,50.0,49.0,67.0,79.0,79,1763.0,square4,r,0.223,3,V,8.0
V8,24.0,49.0,59.0,69.0,74.0,74,1837.0,square4,r,0.2367,3,V,8.0
V8,25.0,46.0,61.0,65.0,81.0,81,1918.0,square4,r,0.1367,3,V,8.0
V8,26.0,49.0,58.0,63.0,35.0,35,1953.0,square4,r,0.0891,3,V,8.0
V8,27.0,48.0,51.0,66.0,41.0,66,2019.0,square3,j,0.3882,2,V,8.0
V8,28.0,46.0,55.0,65.0,38.0,55,2074.0,square2,f,0.0172,1,V,8.0
V8,29.0,47.0,58.0,69.0,40.0,47,2121.0,square1,i,0.0643,0,V,8.0
V8,30.0,42.0,55.0,67.0,43.0,67,2188.0,square3,j,0.07,2,V,8.0
V8,31.0,49.0,56.0,64.0,36.0,64,2252.0,square3,j,0.1645,2,V,8.0
V8,32.0,49.0,55.0,69.0,38.0,69,2321.0,square3,j,0.0938,2,V,8.0
V8,33.0,44.0,52.0,65.0,48.0,65,2386.0,square3,j,0.088,2,V,8.0
V8,34.0,44.0,57.0,70.0,45.0,70,2456.0,square3,j,0.2523,2,V,8.0
V8,35.0,44.0,54.0,68.0,38.0,68,2524.0,square3,j,0.0283,2,V,8.0
V8,36.0,45.0,56.0,64.0,40.0,64,2588.0,square3,j,0.1457,2,V,8.0
V8,37.0,47.0,57.0,66.0,37.0,66,2654.0,square3,j,0.2464,2,V,8.0
V8,38.0,49.0,50.0,66.0,37.0,66,2720.0,square3,j,0.0633,2,V,8.0
V8,39.0,51.0,56.0,61.0,39.0,61,2781.0,square3,j,0.2026,2,V,8.0
V8,40.0,47.0,59.0,66.0,41.0,66,2847.0,square3,j,0.1016,2,V,8.0
V8,41.0,42.0,56.0,69.0,42.0,69,2916.0,square3,j,0.0258,2,V,8.0
V8,42.0,47.0,57.0,72.0,35.0,72,2988.0,square3,j,0.0928,2,V,8.0
V8,43.0,47.0,57.0,63.0,44.0,63,3051.0,square3,j,0.1009,2,V,8.0
V8,44.0,45.0,58.0,67.0,42.0,67,3118.0,square3,j,0.1028,2,V,8.0
V8,45.0,44.0,56.0,66.0,43.0,66,3184.0,square3,j,0.0175,2,V,8.0
V8,46.0,46.0,53.0,70.0,37.0,70,3254.0,square3,j,0.1426,2,V,8.0
V8,47.0,54.0,53.0,71.0,41.0,71,3325.0,square3,j,0.073,2,V,8.0
V8,48.0,49.0,53.0,69.0,37.0,69,3394.0,square3,j,0.0509,2,V,8.0
V8,49.0,39.0,57.0,65.0,47.0,65,3459.0,square3,j,0.1021,2,V,8.0
V8,50.0,48.0,55.0,65.0,41.0,65,3524.0,square3,j,0.3179,2,V,8.0
V8,51.0,45.0,61.0,68.0,43.0,68,3592.0,square3,j,0.154,2,V,8.0
V8,52.0,53.0,52.0,68.0,37.0,68,3660.0,square3,j,0.1094,2,V,8.0
V8,53.0,47.0,55.0,66.0,46.0,66,3726.0,square3,j,0.1217,2,V,8.0
V8,54.0,49.0,53.0,61.0,39.0,61,3787.0,square3,j,0.0246,2,V,8.0
V8,55.0,53.0,70.0,55.0,72.0,55,3842.0,square3,j,0.0692,2,V,8.0
V8,56.0,57.0,63.0,48.0,73.0,48,3890.0,square3,j,0.0728,2,V,8.0
V8,57.0,53.0,71.0,45.0,80.0,80,3970.0,square4,r,0.1745,3,V,8.0
V8,58.0,57.0,69.0,52.0,73.0,57,4027.0,square1,i,0.4174,0,V,8.0
V8,59.0,58.0,67.0,54.0,73.0,67,4094.0,square2,f,0.1172,1,V,8.0
V8,60.0,55.0,66.0,47.0,76.0,76,4170.0,square4,r,0.0875,3,V,8.0
V8,61.0,56.0,65.0,54.0,72.0,72,4242.0,square4,r,0.1521,3,V,8.0
V8,62.0,56.0,65.0,49.0,75.0,75,4317.0,square4,r,0.0777,3,V,8.0
V8,63.0,61.0,65.0,44.0,78.0,78,4395.0,square4,r,0.1837,3,V,8.0
V8,64.0,54.0,66.0,48.0,75.0,75,4470.0,square4,r,0.0458,3,V,8.0
V8,65.0,59.0,65.0,46.0,79.0,79,4549.0,square4,r,0.1626,3,V,8.0
V8,66.0,51.0,62.0,46.0,73.0,73,4622.0,square4,r,0.1465,3,V,8.0
V8,67.0,60.0,70.0,45.0,76.0,76,4698.0,square4,r,0.1815,3,V,8.0
V8,68.0,63.0,64.0,47.0,73.0,73,4771.0,square4,r,0.2136,3,V,8.0
V8,69.0,58.0,66.0,43.0,77.0,77,4848.0,square4,r,0.2145,3,V,8.0
V8,70.0,59.0,65.0,49.0,73.0,73,4921.0,square4,r,0.0132,3,V,8.0
V8,71.0,60.0,64.0,49.0,79.0,79,5000.0,square4,r,0.0686,3,V,8.0
V8,72.0,96.0,68.0,78.0,67.0,67,5067.0,square4,r,0.0846,3,V,8.0
V8,73.0,96.0,68.0,79.0,64.0,64,5131.0,square4,r,0.1136,3,V,8.0
V8,74.0,92.0,67.0,81.0,62.0,62,5193.0,square4,r,0.23,3,V,8.0
V8,75.0,96.0,72.0,83.0,62.0,62,5255.0,square4,r,0.1308,3,V,8.0
V8,76.0,94.0,70.0,77.0,57.0,57,5312.0,square4,r,0.114,3,V,8.0
V8,77.0,91.0,68.0,81.0,59.0,59,5371.0,square4,r,0.1816,3,V,8.0
V8,78.0,90.0,73.0,80.0,63.0,63,5434.0,square4,r,0.0562,3,V,8.0
V8,79.0,90.0,73.0,83.0,61.0,61,5495.0,square4,r,0.124,3,V,8.0
V8,80.0,95.0,75.0,81.0,66.0,66,5561.0,square4,r,0.1662,3,V,8.0
V8,81.0,92.0,72.0,81.0,57.0,57,5618.0,square4,r,0.1976,3,V,8.0
V8,82.0,91.0,71.0,80.0,61.0,61,5679.0,square4,r,0.001,3,V,8.0
V8,83.0,90.0,66.0,83.0,62.0,62,5741.0,square4,r,0.1581,3,V,8.0
V8,84.0,93.0,67.0,87.0,65.0,65,5806.0,square4,r,0.114,3,V,8.0
V8,85.0,85.0,70.0,80.0,62.0,62,5868.0,square4,r,0.0012,3,V,8.0
V8,86.0,84.0,72.0,85.0,62.0,62,5930.0,square4,r,0.1136,3,V,8.0
V8,87.0,91.0,68.0,82.0,65.0,65,5995.0,square4,r,0.0622,3,V,8.0
V8,88.0,93.0,67.0,83.0,61.0,61,6056.0,square4,r,0.8016,3,V,8.0
V8,89.0,95.0,68.0,78.0,66.0,66,6122.0,square4,r,0.2686,3,V,8.0
V8,90.0,91.0,73.0,80.0,60.0,60,6182.0,square4,r,0.2387,3,V,8.0
V8,91.0,93.0,68.0,81.0,64.0,64,6246.0,square4,r,0.175,3,V,8.0
V8,92.0,90.0,75.0,82.0,67.0,67,6313.0,square4,r,0.4639,3,V,8.0
V8,93.0,92.0,70.0,82.0,66.0,66,6379.0,square4,r,0.1411,3,V,8.0
V8,94.0,90.0,71.0,78.0,63.0,63,6442.0,square4,r,0.2296,3,V,8.0
V8,95.0,88.0,65.0,78.0,63.0,63,6505.0,square4,r,0.2003,3,V,8.0
V8,96.0,89.0,72.0,85.0,62.0,62,6567.0,square4,r,0.2357,3,V,8.0
V8,97.0,92.0,72.0,77.0,67.0,67,6634.0,square4,r,0.2288,3,V,8.0
V8,98.0,86.0,63.0,82.0,62.0,62,6696.0,square4,r,0.2387,3,V,8.0
V8,99.0,90.0,66.0,75.0,61.0,61,6757.0,square4,r,0.2172,3,V,8.0
V7,0.0,86.0,61.0,78.0,68.0,61,61.0,square2,r,0.9093,1,V,7.0
V7,1.0,95.0,62.0,79.0,70.0,79,140.0,square3,i,0.0874,2,V,7.0
V7,2.0,89.0,67.0,81.0,77.0,89,229.0,square1,f,0.0467,0,V,7.0
V7,3.0,90.0,56.0,85.0,72.0,72,301.0,square4,j,0.147,3,V,7.0
V7,4.0,91.0,65.0,77.0,71.0,91,392.0,square1,f,0.1576,0,V,7.0
V7,5.0,91.0,58.0,84.0,72.0,91,483.0,square1,f,0.0009,0,V,7.0
V7,6.0,94.0,65.0,87.0,72.0,94,577.0,square1,f,0.1741,0,V,7.0
V7,7.0,89.0,67.0,79.0,67.0,89,666.0,square1,f,0.1324,0,V,7.0
V7,8.0,91.0,65.0,84.0,68.0,91,757.0,square1,f,0.1014,0,V,7.0
V7,9.0,92.0,60.0,87.0,69.0,92,849.0,square1,f,0.2189,0,V,7.0
V7,10.0,90.0,67.0,81.0,76.0,90,939.0,square1,f,0.147,0,V,7.0
V7,11.0,86.0,67.0,83.0,73.0,86,1025.0,square1,f,0.1479,0,V,7.0
V7,12.0,90.0,62.0,80.0,72.0,90,1115.0,square1,f,0.1549,0,V,7.0
V7,13.0,84.0,60.0,88.0,71.0,84,1199.0,square1,f,0.0871,0,V,7.0
V7,14.0,95.0,64.0,80.0,70.0,95,1294.0,square1,f,0.2377,0,V,7.0
V7,15.0,86.0,60.0,81.0,70.0,86,1380.0,square1,f,0.1476,0,V,7.0
V7,16.0,85.0,65.0,77.0,69.0,85,1465.0,square1,f,0.3844,0,V,7.0
V7,17.0,91.0,65.0,81.0,70.0,91,1556.0,square1,f,0.1395,0,V,7.0
V7,18.0,95.0,61.0,81.0,76.0,95,1651.0,square1,f,0.2975,0,V,7.0
V7,19.0,90.0,58.0,79.0,72.0,90,1741.0,square1,f,0.2001,0,V,7.0
V7,20.0,94.0,68.0,80.0,79.0,94,1835.0,square1,f,0.2333,0,V,7.0
V7,21.0,92.0,66.0,82.0,70.0,92,1927.0,square1,f,0.1823,0,V,7.0
V7,22.0,92.0,64.0,83.0,72.0,92,2019.0,square1,f,0.1627,0,V,7.0
V7,23.0,91.0,68.0,82.0,73.0,91,2110.0,square1,f,0.2503,0,V,7.0
V7,24.0,87.0,71.0,82.0,72.0,87,2197.0,square1,f,0.2516,0,V,7.0
V7,25.0,91.0,68.0,90.0,74.0,91,2288.0,square1,f,0.252,0,V,7.0
V7,26.0,89.0,65.0,83.0,72.0,89,2377.0,square1,f,0.1815,0,V,7.0
V7,27.0,91.0,61.0,81.0,73.0,91,2468.0,square1,f,0.1785,0,V,7.0
V7,28.0,90.0,66.0,81.0,72.0,90,2558.0,square1,f,0.1139,0,V,7.0
V7,29.0,89.0,67.0,77.0,71.0,89,2647.0,square1,f,0.1648,0,V,7.0
V7,30.0,95.0,68.0,84.0,71.0,95,2742.0,square1,f,0.1704,0,V,7.0
V7,31.0,95.0,61.0,81.0,70.0,95,2837.0,square1,f,0.174,0,V,7.0
V7,32.0,89.0,65.0,82.0,75.0,89,2926.0,square1,f,0.1707,0,V,7.0
V7,33.0,77.0,50.0,80.0,61.0,77,3003.0,square1,f,0.1129,0,V,7.0
V7,34.0,76.0,54.0,78.0,61.0,76,3079.0,square1,f,0.1396,0,V,7.0
V7,35.0,71.0,51.0,80.0,64.0,71,3150.0,square1,f,0.1844,0,V,7.0
V7,36.0,75.0,51.0,80.0,62.0,75,3225.0,square1,f,0.2077,0,V,7.0
V7,37.0,73.0,58.0,86.0,63.0,73,3298.0,square1,f,0.2248,0,V,7.0
V7,38.0,73.0,50.0,86.0,61.0,73,3371.0,square1,f,0.382,0,V,7.0
V7,39.0,67.0,53.0,78.0,61.0,67,3438.0,square1,f,0.2684,0,V,7.0
V7,40.0,71.0,53.0,84.0,58.0,58,3496.0,square4,j,0.296,3,V,7.0
V7,41.0,75.0,51.0,83.0,63.0,83,3579.0,square3,i,0.1034,2,V,7.0
V7,42.0,69.0,48.0,87.0,63.0,48,3627.0,square2,r,0.2483,1,V,7.0
V7,43.0,70.0,58.0,81.0,60.0,81,3708.0,square3,i,0.1976,2,V,7.0
V7,44.0,68.0,56.0,76.0,63.0,68,3776.0,square1,f,0.2582,0,V,7.0
V7,45.0,74.0,59.0,76.0,56.0,76,3852.0,square3,i,0.2688,2,V,7.0
V7,46.0,72.0,54.0,77.0,61.0,77,3929.0,square3,i,0.2636,2,V,7.0
V7,47.0,69.0,47.0,81.0,62.0,81,4010.0,square3,i,0.1995,2,V,7.0
V7,48.0,75.0,52.0,81.0,57.0,81,4091.0,square3,i,0.1207,2,V,7.0
V7,49.0,74.0,55.0,78.0,60.0,78,4169.0,square3,i,0.1203,2,V,7.0
V7,50.0,71.0,51.0,80.0,61.0,80,4249.0,square3,i,0.1957,2,V,7.0
V7,51.0,75.0,55.0,85.0,62.0,85,4334.0,square3,i,0.3068,2,V,7.0
V7,52.0,75.0,59.0,76.0,59.0,76,4410.0,square3,i,0.1314,2,V,7.0
V7,53.0,72.0,53.0,84.0,66.0,84,4494.0,square3,i,0.1314,2,V,7.0
V7,54.0,69.0,51.0,81.0,60.0,81,4575.0,square3,i,0.206,2,V,7.0
V7,55.0,74.0,56.0,75.0,54.0,75,4650.0,square3,i,0.2708,2,V,7.0
V7,56.0,76.0,51.0,83.0,58.0,83,4733.0,square3,i,0.1359,2,V,7.0
V7,57.0,71.0,53.0,80.0,64.0,80,4813.0,square3,i,0.0836,2,V,7.0
V7,58.0,81.0,56.0,79.0,61.0,79,4892.0,square3,i,0.1539,2,V,7.0
V7,59.0,71.0,55.0,83.0,59.0,83,4975.0,square3,i,0.0976,2,V,7.0
V7,60.0,73.0,53.0,83.0,64.0,83,5058.0,square3,i,0.2238,2,V,7.0
V7,61.0,70.0,53.0,77.0,63.0,77,5135.0,square3,i,0.1645,2,V,7.0
V7,62.0,71.0,54.0,76.0,61.0,76,5211.0,square3,i,0.1139,2,V,7.0
V7,63.0,68.0,45.0,79.0,65.0,79,5290.0,square3,i,0.0842,2,V,7.0
V7,64.0,65.0,55.0,79.0,59.0,79,5369.0,square3,i,0.0506,2,V,7.0
V7,65.0,74.0,54.0,81.0,61.0,81,5450.0,square3,i,0.201,2,V,7.0
V7,66.0,70.0,56.0,81.0,63.0,81,5531.0,square3,i,0.0011,2,V,7.0
V7,67.0,70.0,85.0,64.0,92.0,64,5595.0,square3,i,0.0507,2,V,7.0
V7,68.0,73.0,85.0,68.0,92.0,68,5663.0,square3,i,0.184,2,V,7.0
V7,69.0,75.0,83.0,70.0,91.0,75,5738.0,square1,f,0.3852,0,V,7.0
V7,70.0,75.0,85.0,69.0,91.0,85,5823.0,square2,r,0.2342,1,V,7.0
V7,71.0,71.0,86.0,65.0,94.0,94,5917.0,square4,j,0.084,3,V,7.0
V7,72.0,77.0,86.0,65.0,98.0,98,6015.0,square4,j,0.2177,3,V,7.0
V7,73.0,77.0,84.0,63.0,94.0,94,6109.0,square4,j,0.2007,3,V,7.0
V7,74.0,71.0,86.0,64.0,91.0,91,6200.0,square4,j,0.3507,3,V,7.0
V7,75.0,73.0,90.0,60.0,90.0,90,6290.0,square4,j,0.0838,3,V,7.0
V7,76.0,79.0,84.0,68.0,95.0,95,6385.0,square4,j,0.1504,3,V,7.0
V7,77.0,73.0,85.0,66.0,89.0,89,6474.0,square4,j,0.1841,3,V,7.0
V7,78.0,75.0,82.0,67.0,91.0,91,6565.0,square4,j,0.4339,3,V,7.0
V7,79.0,72.0,85.0,60.0,90.0,90,6655.0,square4,j,0.134,3,V,7.0
V7,80.0,73.0,83.0,66.0,97.0,97,6752.0,square4,j,0.1843,3,V,7.0
V7,81.0,73.0,84.0,67.0,92.0,92,6844.0,square4,j,0.0344,3,V,7.0
V7,82.0,69.0,84.0,65.0,91.0,91,6935.0,square4,j,0.1677,3,V,7.0
V7,83.0,76.0,83.0,72.0,99.0,99,7034.0,square4,j,0.1346,3,V,7.0
V7,84.0,72.0,84.0,70.0,94.0,94,7128.0,square4,j,0.2342,3,V,7.0
V7,85.0,77.0,83.0,67.0,88.0,88,7216.0,square4,j,0.101,3,V,7.0
V7,86.0,76.0,80.0,67.0,90.0,90,7306.0,square4,j,0.2673,3,V,7.0
V7,87.0,70.0,86.0,67.0,95.0,95,7401.0,square4,j,0.284,3,V,7.0
V7,88.0,76.0,84.0,67.0,100.0,100,7501.0,square4,j,0.3004,3,V,7.0
V7,89.0,71.0,88.0,60.0,97.0,97,7598.0,square4,j,0.1342,3,V,7.0
V7,90.0,69.0,82.0,71.0,95.0,95,7693.0,square4,j,0.0505,3,V,7.0
V7,91.0,80.0,84.0,65.0,92.0,92,7785.0,square4,j,0.1173,3,V,7.0
V7,92.0,77.0,85.0,68.0,85.0,85,7870.0,square4,j,0.0841,3,V,7.0
V7,93.0,72.0,84.0,66.0,91.0,91,7961.0,square4,j,0.2007,3,V,7.0
V7,94.0,69.0,83.0,66.0,95.0,95,8056.0,square4,j,0.3008,3,V,7.0
V7,95.0,70.0,86.0,75.0,91.0,91,8147.0,square4,j,0.184,3,V,7.0
V7,96.0,74.0,85.0,66.0,88.0,88,8235.0,square4,j,0.2337,3,V,7.0
V7,97.0,77.0,82.0,73.0,91.0,91,8326.0,square4,j,0.3344,3,V,7.0
V7,98.0,76.0,91.0,62.0,94.0,94,8420.0,square4,j,0.167,3,V,7.0
V7,99.0,74.0,84.0,67.0,88.0,88,8508.0,square4,j,0.2341,3,V,7.0
