block,Trial,square1,square2,square3,square4,currPoints,totalPoints,square,choiceKey.keys,choiceKey.rt,armNum,blockType,blockNum
prac,0.0,100.0,0.0,0.0,0.0,0,0.0,square3,,,2,p,0.0
prac,1.0,100.0,0.0,0.0,0.0,0,0.0,square2,,,1,p,0.0
prac,2.0,100.0,0.0,0.0,0.0,100,100.0,square1,,,0,p,0.0
prac,3.0,100.0,0.0,0.0,0.0,0,100.0,square4,,,3,p,0.0
prac,4.0,100.0,0.0,0.0,0.0,100,200.0,square1,,,0,p,0.0
prac,5.0,100.0,0.0,0.0,0.0,100,300.0,square1,,,0,p,0.0
prac,6.0,100.0,0.0,0.0,0.0,100,400.0,square1,,,0,p,0.0
prac,7.0,100.0,0.0,0.0,0.0,100,500.0,square1,,,0,p,0.0
prac,8.0,100.0,0.0,0.0,0.0,100,600.0,square1,,,0,p,0.0
prac,9.0,100.0,0.0,0.0,0.0,100,700.0,square1,,,0,p,0.0
V2,0.0,33.0,24.0,43.0,18.0,24,24.0,square2,r,0.6734,1,V,2.0
V2,1.0,33.0,29.0,42.0,21.0,29,53.0,square2,r,0.329400001,1,V,2.0
V2,2.0,37.0,26.0,45.0,22.0,26,79.0,square2,r,0.190599999,1,V,2.0
V2,3.0,39.0,26.0,41.0,20.0,20,99.0,square4,i,0.191,3,V,2.0
V2,4.0,29.0,32.0,45.0,19.0,29,128.0,square1,j,0.2178,0,V,2.0
V2,5.0,33.0,28.0,44.0,17.0,33,161.0,square1,j,0.114,0,V,2.0
V2,6.0,32.0,24.0,49.0,20.0,32,193.0,square1,j,0.183799999,0,V,2.0
V2,7.0,32.0,21.0,42.0,13.0,32,225.0,square1,j,0.000700001,0,V,2.0
V2,8.0,35.0,23.0,45.0,19.0,35,260.0,square1,j,0.0841,0,V,2.0
V2,9.0,33.0,28.0,46.0,17.0,33,293.0,square1,j,0.134599999,0,V,2.0
V2,10.0,39.0,27.0,45.0,21.0,39,332.0,square1,j,0.169,0,V,2.0
V2,11.0,30.0,23.0,44.0,22.0,30,362.0,square1,j,0.0685,0,V,2.0
V2,12.0,31.0,26.0,43.0,16.0,43,405.0,square3,f,0.1522,2,V,2.0
V2,13.0,35.0,26.0,43.0,22.0,43,448.0,square3,f,0.184599999,2,V,2.0
V2,14.0,35.0,29.0,46.0,19.0,46,494.0,square3,f,0.1683,2,V,2.0
V2,15.0,36.0,22.0,44.0,20.0,44,538.0,square3,f,0.061,2,V,2.0
V2,16.0,33.0,27.0,45.0,19.0,45,583.0,square3,f,0.0531,2,V,2.0
V2,17.0,35.0,25.0,41.0,15.0,41,624.0,square3,f,0.1015,2,V,2.0
V2,18.0,37.0,27.0,51.0,21.0,51,675.0,square3,f,0.0678,2,V,2.0
V2,19.0,33.0,25.0,43.0,18.0,43,718.0,square3,f,0.1303,2,V,2.0
V2,20.0,39.0,25.0,43.0,20.0,39,757.0,square1,j,0.1343,0,V,2.0
V2,21.0,27.0,32.0,43.0,24.0,32,789.0,square2,r,0.108599999,1,V,2.0
V2,22.0,35.0,27.0,50.0,13.0,13,802.0,square4,i,0.145599999,3,V,2.0
V2,23.0,36.0,25.0,39.0,17.0,25,827.0,square2,r,0.1455,1,V,2.0
V2,24.0,32.0,45.0,39.0,59.0,45,872.0,square2,r,0.1632,1,V,2.0
V2,25.0,26.0,43.0,37.0,55.0,43,915.0,square2,r,0.0632,1,V,2.0
V2,26.0,23.0,45.0,39.0,58.0,45,960.0,square2,r,0.0025,1,V,2.0
V2,27.0,30.0,44.0,40.0,56.0,40,1000.0,square3,f,0.0635,2,V,2.0
V2,28.0,34.0,48.0,41.0,54.0,41,1041.0,square3,f,0.0369,2,V,2.0
V2,29.0,29.0,42.0,35.0,54.0,35,1076.0,square3,f,0.194400001,2,V,2.0
V2,30.0,22.0,39.0,39.0,55.0,22,1098.0,square1,j,0.096,0,V,2.0
V2,31.0,32.0,48.0,35.0,50.0,35,1133.0,square3,f,0.0441,2,V,2.0
V2,32.0,27.0,47.0,40.0,58.0,40,1173.0,square3,f,0.111400001,2,V,2.0
V2,33.0,28.0,46.0,31.0,54.0,31,1204.0,square3,f,0.0471,2,V,2.0
V2,34.0,28.0,44.0,41.0,49.0,41,1245.0,square3,f,0.0618,2,V,2.0
V2,35.0,31.0,44.0,33.0,59.0,33,1278.0,square3,f,0.178700001,2,V,2.0
V2,36.0,29.0,48.0,30.0,55.0,29,1307.0,square1,j,0.0298,0,V,2.0
V2,37.0,25.0,45.0,32.0,51.0,32,1339.0,square3,f,0.1802,2,V,2.0
V2,38.0,29.0,48.0,33.0,54.0,33,1372.0,square3,f,0.0977,2,V,2.0
V2,39.0,29.0,44.0,33.0,54.0,29,1401.0,square1,j,0.5334,0,V,2.0
V2,40.0,33.0,42.0,37.0,61.0,37,1438.0,square3,f,0.243900001,2,V,2.0
V2,41.0,28.0,45.0,41.0,57.0,28,1466.0,square1,j,0.3125,0,V,2.0
V2,42.0,33.0,46.0,36.0,54.0,36,1502.0,square3,f,0.1951,2,V,2.0
V2,43.0,31.0,42.0,40.0,57.0,31,1533.0,square1,j,0.463,0,V,2.0
V2,44.0,27.0,45.0,38.0,56.0,38,1571.0,square3,f,0.3119,2,V,2.0
V2,45.0,27.0,44.0,32.0,51.0,44,1615.0,square2,r,0.2642,1,V,2.0
V2,46.0,28.0,44.0,39.0,57.0,44,1659.0,square2,r,0.1958,1,V,2.0
V2,47.0,30.0,45.0,36.0,56.0,45,1704.0,square2,r,0.177599999,1,V,2.0
V2,48.0,31.0,47.0,41.0,59.0,47,1751.0,square2,r,0.1962,1,V,2.0
V2,49.0,32.0,45.0,33.0,57.0,45,1796.0,square2,r,0.1779,1,V,2.0
V2,50.0,24.0,38.0,36.0,52.0,38,1834.0,square2,r,0.0971,1,V,2.0
V2,51.0,29.0,48.0,34.0,54.0,48,1882.0,square2,r,0.1308,1,V,2.0
V2,52.0,30.0,50.0,38.0,56.0,50,1932.0,square2,r,0.213200001,1,V,2.0
V2,53.0,27.0,47.0,33.0,55.0,47,1979.0,square2,r,0.146200001,1,V,2.0
V2,54.0,34.0,21.0,45.0,25.0,21,2000.0,square2,r,0.1466,1,V,2.0
V2,55.0,36.0,19.0,39.0,24.0,24,2024.0,square4,i,0.1963,3,V,2.0
V2,56.0,29.0,19.0,45.0,18.0,18,2042.0,square4,i,0.196,3,V,2.0
V2,57.0,29.0,20.0,39.0,20.0,20,2062.0,square2,r,0.0445,1,V,2.0
V2,58.0,40.0,18.0,42.0,21.0,18,2080.0,square2,r,0.028700001,1,V,2.0
V2,59.0,31.0,17.0,44.0,23.0,44,2124.0,square3,f,0.263,2,V,2.0
V2,60.0,31.0,19.0,42.0,20.0,42,2166.0,square3,f,0.1757,2,V,2.0
V2,61.0,34.0,16.0,41.0,25.0,41,2207.0,square3,f,0.193900001,2,V,2.0
V2,62.0,28.0,12.0,41.0,22.0,41,2248.0,square3,f,0.246,2,V,2.0
V2,63.0,32.0,14.0,45.0,26.0,45,2293.0,square3,f,0.2625,2,V,2.0
V2,64.0,36.0,21.0,41.0,25.0,41,2334.0,square3,f,0.193299999,2,V,2.0
V2,65.0,32.0,13.0,39.0,24.0,39,2373.0,square3,f,0.3174,2,V,2.0
V2,66.0,35.0,15.0,42.0,20.0,42,2415.0,square3,f,0.2093,2,V,2.0
V2,67.0,30.0,23.0,47.0,27.0,47,2462.0,square3,f,0.235200001,2,V,2.0
V2,68.0,31.0,17.0,43.0,24.0,43,2505.0,square3,f,0.1023,2,V,2.0
V2,69.0,33.0,20.0,41.0,20.0,41,2546.0,square3,f,0.1856,2,V,2.0
V2,70.0,37.0,17.0,43.0,21.0,43,2589.0,square3,f,0.1062,2,V,2.0
V2,71.0,45.0,31.0,36.0,58.0,45,2634.0,square1,j,0.189799999,0,V,2.0
V2,72.0,47.0,31.0,31.0,54.0,31,2665.0,square3,f,0.323599999,2,V,2.0
V2,73.0,50.0,30.0,33.0,55.0,33,2698.0,square3,f,0.218,2,V,2.0
V2,74.0,45.0,31.0,36.0,51.0,36,2734.0,square3,f,0.1518,2,V,2.0
V2,75.0,47.0,28.0,38.0,54.0,38,2772.0,square3,f,0.267,2,V,2.0
V2,76.0,52.0,33.0,35.0,60.0,35,2807.0,square3,f,0.1816,2,V,2.0
V2,77.0,41.0,29.0,37.0,53.0,41,2848.0,square1,j,0.132,0,V,2.0
V2,78.0,51.0,24.0,34.0,56.0,51,2899.0,square1,j,0.0677,0,V,2.0
V2,79.0,41.0,34.0,36.0,52.0,41,2940.0,square1,j,0.0829,0,V,2.0
V2,80.0,48.0,31.0,37.0,51.0,48,2988.0,square1,j,0.118799999,0,V,2.0
V2,81.0,43.0,32.0,40.0,53.0,43,3031.0,square1,j,0.0669,0,V,2.0
V2,82.0,48.0,25.0,37.0,58.0,48,3079.0,square1,j,0.0665,0,V,2.0
V2,83.0,45.0,32.0,36.0,61.0,45,3124.0,square1,j,0.0809,0,V,2.0
V2,84.0,47.0,29.0,39.0,60.0,47,3171.0,square1,j,0.0952,0,V,2.0
V2,85.0,49.0,30.0,39.0,54.0,49,3220.0,square1,j,0.1115,0,V,2.0
V2,86.0,46.0,28.0,33.0,51.0,46,3266.0,square1,j,0.0017,0,V,2.0
V2,87.0,45.0,24.0,37.0,55.0,45,3311.0,square1,j,0.0957,0,V,2.0
V2,88.0,48.0,29.0,42.0,54.0,54,3365.0,square4,i,0.1273,3,V,2.0
V2,89.0,43.0,31.0,38.0,52.0,52,3417.0,square4,i,0.065,3,V,2.0
V2,90.0,51.0,33.0,36.0,56.0,56,3473.0,square4,i,0.2446,3,V,2.0
V2,91.0,49.0,32.0,37.0,59.0,59,3532.0,square4,i,0.0295,3,V,2.0
V2,92.0,47.0,29.0,37.0,56.0,56,3588.0,square4,i,0.2137,3,V,2.0
V2,93.0,45.0,27.0,35.0,56.0,56,3644.0,square4,i,0.090900001,3,V,2.0
V2,94.0,45.0,31.0,31.0,49.0,49,3693.0,square4,i,0.123,3,V,2.0
V2,95.0,47.0,33.0,36.0,52.0,52,3745.0,square4,i,0.0146,3,V,2.0
V2,96.0,44.0,28.0,37.0,59.0,59,3804.0,square4,i,0.1908,3,V,2.0
V2,97.0,48.0,28.0,33.0,55.0,55,3859.0,square4,i,0.066,3,V,2.0
V2,98.0,49.0,29.0,39.0,60.0,60,3919.0,square4,i,0.0806,3,V,2.0
V2,99.0,44.0,30.0,36.0,50.0,50,3969.0,square4,i,0.1443,3,V,2.0
V3,0.0,62.0,45.0,70.0,53.0,62,62.0,square1,f,0.8385,0,V,3.0
V3,1.0,63.0,47.0,76.0,60.0,63,125.0,square1,f,0.134900001,0,V,3.0
V3,2.0,65.0,54.0,73.0,57.0,65,190.0,square1,f,0.2428,0,V,3.0
V3,3.0,68.0,51.0,71.0,51.0,68,258.0,square1,f,0.1333,0,V,3.0
V3,4.0,61.0,49.0,75.0,53.0,61,319.0,square1,f,0.0338,0,V,3.0
V3,5.0,65.0,47.0,74.0,50.0,65,384.0,square1,f,0.0523,0,V,3.0
V3,6.0,61.0,51.0,72.0,57.0,72,456.0,square3,r,0.049799999,2,V,3.0
V3,7.0,67.0,49.0,75.0,55.0,75,531.0,square3,r,0.018400001,2,V,3.0
V3,8.0,64.0,48.0,76.0,56.0,76,607.0,square3,r,0.0096,2,V,3.0
V3,9.0,67.0,49.0,71.0,56.0,71,678.0,square3,r,0.1345,2,V,3.0
V3,10.0,65.0,50.0,71.0,56.0,50,728.0,square2,i,0.196,1,V,3.0
V3,11.0,63.0,43.0,78.0,58.0,58,786.0,square4,j,0.0531,3,V,3.0
V3,12.0,66.0,53.0,73.0,54.0,73,859.0,square3,r,0.3153,2,V,3.0
V3,13.0,64.0,46.0,78.0,51.0,51,910.0,square4,j,0.0017,3,V,3.0
V3,14.0,67.0,51.0,71.0,58.0,71,981.0,square3,r,0.401299999,2,V,3.0
V3,15.0,61.0,50.0,73.0,54.0,73,1054.0,square3,r,0.0813,2,V,3.0
V3,16.0,64.0,52.0,74.0,54.0,74,1128.0,square3,r,0.167099999,2,V,3.0
V3,17.0,61.0,48.0,74.0,55.0,74,1202.0,square3,r,0.3009,2,V,3.0
V3,18.0,65.0,50.0,70.0,59.0,70,1272.0,square3,r,0.1851,2,V,3.0
V3,19.0,64.0,52.0,76.0,56.0,76,1348.0,square3,r,0.1438,2,V,3.0
V3,20.0,64.0,50.0,69.0,58.0,69,1417.0,square3,r,0.0853,2,V,3.0
V3,21.0,66.0,50.0,72.0,56.0,72,1489.0,square3,r,0.0902,2,V,3.0
V3,22.0,43.0,48.0,40.0,62.0,40,1529.0,square3,r,0.217900001,2,V,3.0
V3,23.0,41.0,51.0,35.0,59.0,41,1570.0,square1,f,0.1169,0,V,3.0
V3,24.0,51.0,51.0,37.0,60.0,60,1630.0,square4,j,0.0498,3,V,3.0
V3,25.0,45.0,53.0,36.0,57.0,53,1683.0,square2,i,0.0013,1,V,3.0
V3,26.0,44.0,51.0,38.0,59.0,59,1742.0,square4,j,0.001700001,3,V,3.0
V3,27.0,43.0,51.0,34.0,66.0,66,1808.0,square4,j,0.077400001,3,V,3.0
V3,28.0,47.0,51.0,40.0,67.0,67,1875.0,square4,j,0.102799999,3,V,3.0
V3,29.0,42.0,55.0,35.0,65.0,65,1940.0,square4,j,0.1742,3,V,3.0
V3,30.0,49.0,54.0,36.0,62.0,62,2002.0,square4,j,0.1182,3,V,3.0
V3,31.0,50.0,53.0,42.0,66.0,66,2068.0,square4,j,0.001900001,3,V,3.0
V3,32.0,47.0,53.0,34.0,58.0,58,2126.0,square4,j,0.1846,3,V,3.0
V3,33.0,45.0,56.0,34.0,62.0,62,2188.0,square4,j,0.9531,3,V,3.0
V3,34.0,48.0,54.0,38.0,64.0,64,2252.0,square4,j,0.1511,3,V,3.0
V3,35.0,39.0,55.0,42.0,65.0,65,2317.0,square4,j,0.0398,3,V,3.0
V3,36.0,46.0,57.0,41.0,63.0,63,2380.0,square4,j,0.1776,3,V,3.0
V3,37.0,43.0,54.0,41.0,65.0,65,2445.0,square4,j,0.079,3,V,3.0
V3,38.0,47.0,52.0,37.0,63.0,63,2508.0,square4,j,0.001700001,3,V,3.0
V3,39.0,47.0,53.0,38.0,55.0,55,2563.0,square4,j,0.1655,3,V,3.0
V3,40.0,41.0,54.0,39.0,64.0,41,2604.0,square1,f,0.1062,0,V,3.0
V3,41.0,48.0,52.0,38.0,64.0,38,2642.0,square3,r,0.1839,2,V,3.0
V3,42.0,45.0,50.0,34.0,63.0,50,2692.0,square2,i,0.286400001,1,V,3.0
V3,43.0,44.0,50.0,34.0,62.0,62,2754.0,square4,j,0.0319,3,V,3.0
V3,44.0,47.0,55.0,39.0,65.0,65,2819.0,square4,j,0.1074,3,V,3.0
V3,45.0,45.0,55.0,31.0,63.0,63,2882.0,square4,j,0.1003,3,V,3.0
V3,46.0,42.0,52.0,38.0,64.0,64,2946.0,square4,j,0.0728,3,V,3.0
V3,47.0,44.0,53.0,37.0,55.0,55,3001.0,square4,j,0.001400001,3,V,3.0
V3,48.0,44.0,49.0,37.0,58.0,58,3059.0,square4,j,0.0851,3,V,3.0
V3,49.0,48.0,58.0,35.0,54.0,54,3113.0,square4,j,0.465200001,3,V,3.0
V3,50.0,42.0,28.0,30.0,52.0,52,3165.0,square4,j,0.1459,3,V,3.0
V3,51.0,46.0,29.0,32.0,51.0,29,3194.0,square2,i,0.0952,1,V,3.0
V3,52.0,37.0,20.0,36.0,50.0,36,3230.0,square3,r,0.0803,2,V,3.0
V3,53.0,44.0,22.0,34.0,55.0,44,3274.0,square1,f,0.1797,0,V,3.0
V3,54.0,37.0,27.0,26.0,50.0,50,3324.0,square4,j,0.0628,3,V,3.0
V3,55.0,41.0,21.0,39.0,53.0,53,3377.0,square4,j,0.112299999,3,V,3.0
V3,56.0,40.0,20.0,38.0,51.0,51,3428.0,square4,j,0.145200001,3,V,3.0
V3,57.0,44.0,28.0,31.0,57.0,57,3485.0,square4,j,0.0793,3,V,3.0
V3,58.0,46.0,20.0,28.0,49.0,49,3534.0,square4,j,0.046200001,3,V,3.0
V3,59.0,44.0,24.0,30.0,55.0,55,3589.0,square4,j,0.0015,3,V,3.0
V3,60.0,42.0,29.0,29.0,51.0,51,3640.0,square4,j,0.1973,3,V,3.0
V3,61.0,41.0,21.0,30.0,46.0,46,3686.0,square4,j,0.128400001,3,V,3.0
V3,62.0,41.0,27.0,31.0,49.0,49,3735.0,square4,j,0.002,3,V,3.0
V3,63.0,42.0,27.0,34.0,51.0,51,3786.0,square4,j,0.0016,3,V,3.0
V3,64.0,41.0,24.0,30.0,47.0,47,3833.0,square4,j,0.1912,3,V,3.0
V3,65.0,36.0,18.0,34.0,48.0,48,3881.0,square4,j,0.067,3,V,3.0
V3,66.0,39.0,28.0,35.0,45.0,45,3926.0,square4,j,0.0672,3,V,3.0
V3,67.0,42.0,21.0,32.0,46.0,46,3972.0,square4,j,0.0682,3,V,3.0
V3,68.0,40.0,24.0,35.0,53.0,24,3996.0,square2,i,0.182200001,1,V,3.0
V3,69.0,48.0,23.0,34.0,50.0,34,4030.0,square3,r,0.1688,2,V,3.0
V3,70.0,40.0,27.0,31.0,49.0,40,4070.0,square1,f,0.1848,0,V,3.0
V3,71.0,41.0,23.0,28.0,51.0,51,4121.0,square4,j,0.0667,3,V,3.0
V3,72.0,42.0,25.0,33.0,55.0,55,4176.0,square4,j,0.1163,3,V,3.0
V3,73.0,41.0,24.0,35.0,55.0,55,4231.0,square4,j,0.066900001,3,V,3.0
V3,74.0,38.0,26.0,28.0,53.0,53,4284.0,square4,j,0.1621,3,V,3.0
V3,75.0,54.0,39.0,69.0,50.0,50,4334.0,square4,j,0.1144,3,V,3.0
V3,76.0,55.0,42.0,64.0,53.0,53,4387.0,square4,j,0.052900001,3,V,3.0
V3,77.0,59.0,37.0,66.0,44.0,44,4431.0,square4,j,0.1343,3,V,3.0
V3,78.0,58.0,38.0,60.0,46.0,46,4477.0,square4,j,0.001900001,3,V,3.0
V3,79.0,54.0,35.0,66.0,49.0,49,4526.0,square4,j,0.0486,3,V,3.0
V3,80.0,60.0,36.0,68.0,44.0,44,4570.0,square4,j,0.0364,3,V,3.0
V3,81.0,55.0,38.0,66.0,51.0,55,4625.0,square1,f,0.112099999,0,V,3.0
V3,82.0,57.0,47.0,64.0,50.0,57,4682.0,square1,f,0.2055,0,V,3.0
V3,83.0,57.0,37.0,63.0,45.0,57,4739.0,square1,f,0.03,0,V,3.0
V3,84.0,54.0,40.0,65.0,53.0,54,4793.0,square1,f,0.2292,0,V,3.0
V3,85.0,58.0,41.0,63.0,48.0,58,4851.0,square1,f,0.1962,0,V,3.0
V3,86.0,53.0,38.0,57.0,49.0,53,4904.0,square1,f,0.2278,0,V,3.0
V3,87.0,49.0,42.0,60.0,43.0,49,4953.0,square1,f,0.0461,0,V,3.0
V3,88.0,56.0,35.0,70.0,46.0,99999,4953.0,invalid,,,-1,V,3.0
V3,89.0,58.0,39.0,63.0,52.0,58,5011.0,square1,f,0.046299999,0,V,3.0
V3,90.0,59.0,43.0,63.0,45.0,59,5070.0,square1,f,0.0793,0,V,3.0
V3,91.0,54.0,37.0,69.0,49.0,69,5139.0,square3,r,0.0516,2,V,3.0
V3,92.0,56.0,41.0,61.0,47.0,61,5200.0,square3,r,0.1467,2,V,3.0
V3,93.0,58.0,35.0,68.0,47.0,68,5268.0,square3,r,0.0467,2,V,3.0
V3,94.0,61.0,37.0,67.0,51.0,67,5335.0,square3,r,0.1677,2,V,3.0
V3,95.0,57.0,32.0,64.0,47.0,64,5399.0,square3,r,0.2365,2,V,3.0
V3,96.0,53.0,38.0,63.0,48.0,63,5462.0,square3,r,0.217,2,V,3.0
V3,97.0,57.0,44.0,71.0,50.0,71,5533.0,square3,r,0.2609,2,V,3.0
V3,98.0,56.0,39.0,70.0,47.0,70,5603.0,square3,r,0.4596,2,V,3.0
V3,99.0,62.0,40.0,67.0,49.0,67,5670.0,square3,r,0.145,2,V,3.0
V12,0.0,47.0,30.0,38.0,55.0,55,55.0,square4,f,1.4101,3,V,12.0
V12,1.0,46.0,33.0,39.0,57.0,39,94.0,square3,j,0.106900001,2,V,12.0
V12,2.0,51.0,29.0,42.0,52.0,51,145.0,square1,i,0.0802,0,V,12.0
V12,3.0,52.0,30.0,38.0,62.0,30,175.0,square2,r,0.141299999,1,V,12.0
V12,4.0,48.0,30.0,39.0,62.0,62,237.0,square4,f,0.062700001,3,V,12.0
V12,5.0,55.0,34.0,43.0,61.0,61,298.0,square4,f,0.128299999,3,V,12.0
V12,6.0,45.0,35.0,42.0,56.0,45,343.0,square1,i,0.0233,0,V,12.0
V12,7.0,48.0,29.0,35.0,57.0,57,400.0,square4,f,0.0015,3,V,12.0
V12,8.0,46.0,33.0,38.0,59.0,38,438.0,square3,j,0.0452,2,V,12.0
V12,9.0,44.0,31.0,42.0,56.0,56,494.0,square4,f,0.068,3,V,12.0
V12,10.0,48.0,34.0,45.0,55.0,55,549.0,square4,f,0.0485,3,V,12.0
V12,11.0,45.0,32.0,41.0,55.0,55,604.0,square4,f,0.089200001,3,V,12.0
V12,12.0,52.0,26.0,42.0,57.0,57,661.0,square4,f,0.0016,3,V,12.0
V12,13.0,56.0,31.0,41.0,54.0,54,715.0,square4,f,0.201,3,V,12.0
V12,14.0,44.0,34.0,40.0,64.0,64,779.0,square4,f,0.066799999,3,V,12.0
V12,15.0,48.0,32.0,39.0,61.0,61,840.0,square4,f,0.301400001,3,V,12.0
V12,16.0,49.0,33.0,37.0,58.0,58,898.0,square4,f,0.101400001,3,V,12.0
V12,17.0,45.0,33.0,43.0,57.0,57,955.0,square4,f,0.2745,3,V,12.0
V12,18.0,45.0,28.0,40.0,58.0,58,1013.0,square4,f,0.167700001,3,V,12.0
V12,19.0,42.0,33.0,43.0,59.0,59,1072.0,square4,f,0.1691,3,V,12.0
V12,20.0,46.0,30.0,38.0,62.0,62,1134.0,square4,f,0.0554,3,V,12.0
V12,21.0,46.0,35.0,40.0,55.0,55,1189.0,square4,f,0.1677,3,V,12.0
V12,22.0,46.0,34.0,36.0,63.0,63,1252.0,square4,f,0.1331,3,V,12.0
V12,23.0,54.0,34.0,42.0,56.0,56,1308.0,square4,f,0.0766,3,V,12.0
V12,24.0,44.0,30.0,41.0,59.0,59,1367.0,square4,f,0.195400001,3,V,12.0
V12,25.0,49.0,33.0,37.0,64.0,64,1431.0,square4,f,0.094799999,3,V,12.0
V12,26.0,52.0,34.0,39.0,57.0,57,1488.0,square4,f,0.073799999,3,V,12.0
V12,27.0,50.0,26.0,37.0,55.0,55,1543.0,square4,f,0.0942,3,V,12.0
V12,28.0,41.0,29.0,46.0,21.0,21,1564.0,square4,f,0.1874,3,V,12.0
V12,29.0,41.0,28.0,51.0,20.0,20,1584.0,square4,f,0.3118,3,V,12.0
V12,30.0,32.0,31.0,46.0,22.0,31,1615.0,square2,r,0.246299999,1,V,12.0
V12,31.0,38.0,28.0,45.0,22.0,38,1653.0,square1,i,0.1454,0,V,12.0
V12,32.0,35.0,27.0,44.0,16.0,44,1697.0,square3,j,0.1384,2,V,12.0
V12,33.0,39.0,29.0,49.0,21.0,49,1746.0,square3,j,0.119400001,2,V,12.0
V12,34.0,39.0,28.0,49.0,15.0,49,1795.0,square3,j,0.160200001,2,V,12.0
V12,35.0,36.0,29.0,50.0,17.0,50,1845.0,square3,j,0.0018,2,V,12.0
V12,36.0,41.0,28.0,48.0,12.0,48,1893.0,square3,j,0.0166,2,V,12.0
V12,37.0,34.0,29.0,46.0,25.0,46,1939.0,square3,j,0.177900001,2,V,12.0
V12,38.0,38.0,28.0,51.0,19.0,51,1990.0,square3,j,0.0021,2,V,12.0
V12,39.0,39.0,31.0,45.0,13.0,45,2035.0,square3,j,0.1613,2,V,12.0
V12,40.0,35.0,28.0,46.0,26.0,46,2081.0,square3,j,0.0463,2,V,12.0
V12,41.0,38.0,27.0,46.0,20.0,46,2127.0,square3,j,0.001,2,V,12.0
V12,42.0,40.0,26.0,50.0,23.0,50,2177.0,square3,j,0.0019,2,V,12.0
V12,43.0,33.0,30.0,45.0,18.0,45,2222.0,square3,j,0.1105,2,V,12.0
V12,44.0,39.0,31.0,46.0,22.0,46,2268.0,square3,j,0.2445,2,V,12.0
V12,45.0,32.0,26.0,42.0,20.0,42,2310.0,square3,j,0.0617,2,V,12.0
V12,46.0,36.0,29.0,43.0,24.0,29,2339.0,square2,r,0.145,1,V,12.0
V12,47.0,37.0,30.0,46.0,21.0,37,2376.0,square1,i,0.162900001,0,V,12.0
V12,48.0,37.0,27.0,44.0,19.0,19,2395.0,square4,f,0.1605,3,V,12.0
V12,49.0,36.0,33.0,55.0,16.0,55,2450.0,square3,j,0.0462,2,V,12.0
V12,50.0,45.0,28.0,44.0,18.0,44,2494.0,square3,j,0.177299999,2,V,12.0
V12,51.0,35.0,32.0,49.0,19.0,49,2543.0,square3,j,0.002,2,V,12.0
V12,52.0,36.0,56.0,31.0,52.0,31,2574.0,square3,j,0.1792,2,V,12.0
V12,53.0,36.0,57.0,29.0,45.0,29,2603.0,square3,j,0.2,2,V,12.0
V12,54.0,38.0,61.0,28.0,51.0,28,2631.0,square3,j,0.0296,2,V,12.0
V12,55.0,35.0,60.0,29.0,47.0,60,2691.0,square2,r,0.2489,1,V,12.0
V12,56.0,34.0,62.0,29.0,46.0,62,2753.0,square2,r,0.1844,1,V,12.0
V12,57.0,43.0,57.0,32.0,46.0,57,2810.0,square2,r,0.0019,1,V,12.0
V12,58.0,40.0,59.0,32.0,50.0,59,2869.0,square2,r,0.188900001,1,V,12.0
V12,59.0,41.0,62.0,33.0,48.0,62,2931.0,square2,r,0.179,1,V,12.0
V12,60.0,36.0,61.0,32.0,49.0,61,2992.0,square2,r,0.002,1,V,12.0
V12,61.0,39.0,56.0,32.0,44.0,56,3048.0,square2,r,0.1997,1,V,12.0
V12,62.0,39.0,57.0,30.0,46.0,57,3105.0,square2,r,0.0021,1,V,12.0
V12,63.0,42.0,53.0,29.0,46.0,53,3158.0,square2,r,0.1588,1,V,12.0
V12,64.0,35.0,57.0,32.0,50.0,57,3215.0,square2,r,0.1562,1,V,12.0
V12,65.0,44.0,58.0,32.0,49.0,58,3273.0,square2,r,0.0354,1,V,12.0
V12,66.0,44.0,56.0,29.0,52.0,56,3329.0,square2,r,0.0985,1,V,12.0
V12,67.0,41.0,60.0,30.0,49.0,60,3389.0,square2,r,0.232900001,1,V,12.0
V12,68.0,42.0,58.0,32.0,45.0,58,3447.0,square2,r,0.410799999,1,V,12.0
V12,69.0,36.0,60.0,33.0,50.0,60,3507.0,square2,r,0.5526,1,V,12.0
V12,70.0,36.0,57.0,27.0,46.0,57,3564.0,square2,r,0.1862,1,V,12.0
V12,71.0,41.0,59.0,32.0,48.0,59,3623.0,square2,r,0.100099999,1,V,12.0
V12,72.0,34.0,59.0,31.0,49.0,59,3682.0,square2,r,0.087,1,V,12.0
V12,73.0,71.0,53.0,65.0,49.0,53,3735.0,square2,r,0.0719,1,V,12.0
V12,74.0,69.0,49.0,63.0,45.0,49,3784.0,square2,r,0.127099999,1,V,12.0
V12,75.0,72.0,51.0,56.0,46.0,51,3835.0,square2,r,0.3362,1,V,12.0
V12,76.0,72.0,48.0,58.0,43.0,48,3883.0,square2,r,0.241099999,1,V,12.0
V12,77.0,74.0,57.0,59.0,44.0,57,3940.0,square2,r,0.2452,1,V,12.0
V12,78.0,69.0,55.0,63.0,50.0,55,3995.0,square2,r,0.1785,1,V,12.0
V12,79.0,73.0,53.0,58.0,43.0,53,4048.0,square2,r,0.069,1,V,12.0
V12,80.0,71.0,47.0,65.0,40.0,47,4095.0,square2,r,0.062700001,1,V,12.0
V12,81.0,66.0,49.0,57.0,40.0,49,4144.0,square2,r,0.2445,1,V,12.0
V12,82.0,71.0,53.0,57.0,48.0,53,4197.0,square2,r,0.1455,1,V,12.0
V12,83.0,70.0,50.0,56.0,49.0,50,4247.0,square2,r,0.0456,1,V,12.0
V12,84.0,69.0,45.0,64.0,43.0,45,4292.0,square2,r,0.1788,1,V,12.0
V12,85.0,64.0,48.0,54.0,42.0,48,4340.0,square2,r,0.2123,1,V,12.0
V12,86.0,71.0,49.0,63.0,44.0,49,4389.0,square2,r,0.030799999,1,V,12.0
V12,87.0,72.0,52.0,55.0,42.0,52,4441.0,square2,r,0.0937,1,V,12.0
V12,88.0,64.0,48.0,59.0,44.0,48,4489.0,square2,r,0.2293,1,V,12.0
V12,89.0,69.0,48.0,62.0,45.0,48,4537.0,square2,r,0.1114,1,V,12.0
V12,90.0,68.0,56.0,60.0,42.0,56,4593.0,square2,r,0.0106,1,V,12.0
V12,91.0,69.0,52.0,62.0,45.0,52,4645.0,square2,r,0.2602,1,V,12.0
V12,92.0,65.0,50.0,64.0,47.0,50,4695.0,square2,r,0.051799999,1,V,12.0
V12,93.0,68.0,51.0,62.0,43.0,51,4746.0,square2,r,0.0503,1,V,12.0
V12,94.0,68.0,52.0,60.0,38.0,52,4798.0,square2,r,0.2189,1,V,12.0
V12,95.0,71.0,52.0,58.0,47.0,52,4850.0,square2,r,0.9856,1,V,12.0
V12,96.0,66.0,49.0,59.0,44.0,49,4899.0,square2,r,0.2947,1,V,12.0
V12,97.0,74.0,47.0,54.0,47.0,47,4946.0,square2,r,0.035,1,V,12.0
V12,98.0,68.0,43.0,64.0,41.0,43,4989.0,square2,r,0.214099999,1,V,12.0
V12,99.0,71.0,53.0,62.0,44.0,53,5042.0,square2,r,0.547099999,1,V,12.0
S11,0.0,49.0,53.0,49.0,45.0,49,49.0,square3,f,0.802,2,S,11.0
S11,1.0,54.0,56.0,42.0,50.0,56,105.0,square2,j,1.0141,1,S,11.0
S11,2.0,39.0,51.0,39.0,43.0,43,148.0,square4,i,0.3163,3,S,11.0
S11,3.0,53.0,50.0,38.0,43.0,53,201.0,square1,r,0.0218,0,S,11.0
S11,4.0,47.0,54.0,39.0,48.0,54,255.0,square2,j,0.1009,1,S,11.0
S11,5.0,47.0,52.0,40.0,46.0,52,307.0,square2,j,0.1184,1,S,11.0
S11,6.0,47.0,46.0,44.0,54.0,46,353.0,square2,j,0.033099999,1,S,11.0
S11,7.0,48.0,51.0,35.0,51.0,51,404.0,square2,j,0.1117,1,S,11.0
S11,8.0,52.0,49.0,36.0,43.0,49,453.0,square2,j,0.1013,1,S,11.0
S11,9.0,47.0,53.0,41.0,55.0,53,506.0,square2,j,0.092,1,S,11.0
S11,10.0,44.0,48.0,41.0,43.0,48,554.0,square2,j,0.161200001,1,S,11.0
S11,11.0,41.0,54.0,38.0,43.0,54,608.0,square2,j,0.029599999,1,S,11.0
S11,12.0,45.0,54.0,44.0,45.0,54,662.0,square2,j,0.002,1,S,11.0
S11,13.0,54.0,52.0,44.0,50.0,52,714.0,square2,j,0.079599999,1,S,11.0
S11,14.0,57.0,58.0,36.0,45.0,58,772.0,square2,j,0.1785,1,S,11.0
S11,15.0,48.0,54.0,43.0,49.0,54,826.0,square2,j,0.1283,1,S,11.0
S11,16.0,58.0,47.0,42.0,46.0,47,873.0,square2,j,0.1275,1,S,11.0
S11,17.0,41.0,61.0,42.0,53.0,61,934.0,square2,j,0.0636,1,S,11.0
S11,18.0,51.0,58.0,33.0,39.0,58,992.0,square2,j,0.131,1,S,11.0
S11,19.0,48.0,49.0,37.0,42.0,49,1041.0,square2,j,0.179599999,1,S,11.0
S11,20.0,52.0,52.0,45.0,46.0,52,1093.0,square2,j,0.017700001,1,S,11.0
S11,21.0,47.0,53.0,44.0,51.0,53,1146.0,square2,j,0.171,1,S,11.0
S11,22.0,49.0,54.0,37.0,41.0,54,1200.0,square2,j,0.161700001,1,S,11.0
S11,23.0,52.0,54.0,41.0,45.0,54,1254.0,square2,j,0.0017,1,S,11.0
S11,24.0,42.0,56.0,41.0,45.0,56,1310.0,square2,j,0.2727,1,S,11.0
S11,25.0,52.0,56.0,42.0,44.0,56,1366.0,square2,j,0.157,1,S,11.0
S11,26.0,43.0,56.0,41.0,45.0,56,1422.0,square2,j,0.0312,1,S,11.0
S11,27.0,48.0,50.0,40.0,43.0,50,1472.0,square2,j,0.1163,1,S,11.0
S11,28.0,46.0,49.0,38.0,48.0,49,1521.0,square2,j,0.1582,1,S,11.0
S11,29.0,46.0,55.0,40.0,42.0,55,1576.0,square2,j,0.011900001,1,S,11.0
S11,30.0,46.0,56.0,43.0,37.0,56,1632.0,square2,j,0.211299999,1,S,11.0
S11,31.0,42.0,49.0,44.0,42.0,49,1681.0,square2,j,0.0134,1,S,11.0
S11,32.0,51.0,52.0,36.0,40.0,52,1733.0,square2,j,0.064,1,S,11.0
S11,33.0,44.0,53.0,39.0,43.0,53,1786.0,square2,j,0.1795,1,S,11.0
S11,34.0,52.0,52.0,43.0,49.0,52,1838.0,square2,j,0.0457,1,S,11.0
S11,35.0,53.0,51.0,38.0,45.0,51,1889.0,square2,j,0.0297,1,S,11.0
S11,36.0,50.0,44.0,42.0,48.0,44,1933.0,square2,j,0.116799999,1,S,11.0
S11,37.0,49.0,51.0,40.0,48.0,51,1984.0,square2,j,0.1713,1,S,11.0
S11,38.0,47.0,47.0,39.0,38.0,47,2031.0,square2,j,0.1846,1,S,11.0
S11,39.0,51.0,55.0,40.0,42.0,55,2086.0,square2,j,0.0359,1,S,11.0
S11,40.0,50.0,52.0,41.0,44.0,52,2138.0,square2,j,0.0487,1,S,11.0
S11,41.0,47.0,50.0,46.0,50.0,50,2188.0,square2,j,0.063,1,S,11.0
S11,42.0,52.0,48.0,41.0,47.0,48,2236.0,square2,j,0.0771,1,S,11.0
S11,43.0,50.0,56.0,34.0,42.0,56,2292.0,square2,j,0.011400001,1,S,11.0
S11,44.0,42.0,48.0,37.0,49.0,48,2340.0,square2,j,0.1117,1,S,11.0
S11,45.0,47.0,47.0,41.0,40.0,47,2387.0,square2,j,0.0626,1,S,11.0
S11,46.0,50.0,56.0,40.0,44.0,56,2443.0,square2,j,0.1621,1,S,11.0
S11,47.0,46.0,48.0,38.0,47.0,48,2491.0,square2,j,0.1161,1,S,11.0
S11,48.0,45.0,54.0,44.0,41.0,54,2545.0,square2,j,0.1627,1,S,11.0
S11,49.0,44.0,53.0,41.0,41.0,53,2598.0,square2,j,0.1624,1,S,11.0
S9,0.0,36.0,36.0,32.0,32.0,99999,0.0,invalid,,,-1,S,9.0
S9,1.0,40.0,29.0,36.0,24.0,24,24.0,square4,r,0.834799999,3,S,9.0
S9,2.0,31.0,43.0,22.0,29.0,31,55.0,square1,f,0.333900001,0,S,9.0
S9,3.0,41.0,33.0,28.0,27.0,28,83.0,square3,j,0.3609,2,S,9.0
S9,4.0,34.0,29.0,32.0,31.0,29,112.0,square2,i,0.2524,1,S,9.0
S9,5.0,41.0,32.0,22.0,29.0,41,153.0,square1,f,0.001599999,0,S,9.0
S9,6.0,44.0,30.0,21.0,28.0,21,174.0,square3,j,0.600599999,2,S,9.0
S9,7.0,39.0,37.0,26.0,24.0,37,211.0,square2,i,0.285,1,S,9.0
S9,8.0,41.0,33.0,23.0,20.0,20,231.0,square4,r,0.321099999,3,S,9.0
S9,9.0,30.0,35.0,24.0,27.0,30,261.0,square1,f,0.112400001,0,S,9.0
S9,10.0,41.0,29.0,23.0,28.0,41,302.0,square1,f,0.1292,0,S,9.0
S9,11.0,37.0,38.0,22.0,33.0,37,339.0,square1,f,0.0625,0,S,9.0
S9,12.0,35.0,31.0,27.0,32.0,35,374.0,square1,f,0.262,0,S,9.0
S9,13.0,38.0,37.0,30.0,29.0,38,412.0,square1,f,0.0581,0,S,9.0
S9,14.0,36.0,38.0,30.0,37.0,36,448.0,square1,f,0.0677,0,S,9.0
S9,15.0,40.0,29.0,27.0,24.0,40,488.0,square1,f,0.107299999,0,S,9.0
S9,16.0,33.0,37.0,29.0,28.0,33,521.0,square1,f,0.1005,0,S,9.0
S9,17.0,41.0,32.0,36.0,31.0,41,562.0,square1,f,0.1096,0,S,9.0
S9,18.0,39.0,26.0,16.0,35.0,39,601.0,square1,f,0.1691,0,S,9.0
S9,19.0,35.0,30.0,23.0,27.0,35,636.0,square1,f,0.0255,0,S,9.0
S9,20.0,39.0,34.0,23.0,29.0,39,675.0,square1,f,0.184599999,0,S,9.0
S9,21.0,35.0,37.0,28.0,31.0,35,710.0,square1,f,0.1662,0,S,9.0
S9,22.0,37.0,30.0,23.0,38.0,37,747.0,square1,f,0.002099999,0,S,9.0
S9,23.0,37.0,34.0,27.0,34.0,37,784.0,square1,f,0.032099999,0,S,9.0
S9,24.0,31.0,34.0,26.0,27.0,31,815.0,square1,f,0.201099999,0,S,9.0
S9,25.0,38.0,40.0,29.0,24.0,38,853.0,square1,f,0.032099999,0,S,9.0
S9,26.0,43.0,31.0,21.0,24.0,43,896.0,square1,f,0.134,0,S,9.0
S9,27.0,30.0,31.0,23.0,28.0,30,926.0,square1,f,0.0487,0,S,9.0
S9,28.0,44.0,32.0,31.0,32.0,44,970.0,square1,f,0.1237,0,S,9.0
S9,29.0,36.0,38.0,22.0,22.0,36,1006.0,square1,f,0.0676,0,S,9.0
S9,30.0,41.0,30.0,26.0,29.0,41,1047.0,square1,f,0.0018,0,S,9.0
S9,31.0,39.0,37.0,30.0,32.0,39,1086.0,square1,f,0.179299999,0,S,9.0
S9,32.0,35.0,39.0,28.0,31.0,35,1121.0,square1,f,0.0275,0,S,9.0
S9,33.0,37.0,39.0,29.0,32.0,37,1158.0,square1,f,0.1831,0,S,9.0
S9,34.0,46.0,33.0,21.0,25.0,46,1204.0,square1,f,0.0588,0,S,9.0
S9,35.0,38.0,33.0,28.0,28.0,38,1242.0,square1,f,0.0289,0,S,9.0
S9,36.0,40.0,37.0,21.0,32.0,40,1282.0,square1,f,0.0023,0,S,9.0
S9,37.0,38.0,43.0,23.0,37.0,38,1320.0,square1,f,0.1792,0,S,9.0
S9,38.0,36.0,31.0,29.0,29.0,36,1356.0,square1,f,0.160900001,0,S,9.0
S9,39.0,41.0,29.0,26.0,28.0,41,1397.0,square1,f,0.001599999,0,S,9.0
S9,40.0,32.0,36.0,26.0,28.0,32,1429.0,square1,f,0.213400001,0,S,9.0
S9,41.0,40.0,37.0,35.0,28.0,40,1469.0,square1,f,0.1783,0,S,9.0
S9,42.0,43.0,32.0,26.0,37.0,43,1512.0,square1,f,0.1692,0,S,9.0
S9,43.0,40.0,31.0,23.0,31.0,40,1552.0,square1,f,0.0136,0,S,9.0
S9,44.0,42.0,38.0,24.0,40.0,42,1594.0,square1,f,0.045,0,S,9.0
S9,45.0,36.0,35.0,30.0,33.0,36,1630.0,square1,f,0.169400001,0,S,9.0
S9,46.0,38.0,30.0,33.0,26.0,38,1668.0,square1,f,0.014,0,S,9.0
S9,47.0,39.0,37.0,25.0,26.0,39,1707.0,square1,f,0.0267,0,S,9.0
S9,48.0,36.0,35.0,26.0,27.0,36,1743.0,square1,f,0.0825,0,S,9.0
S9,49.0,40.0,32.0,24.0,28.0,40,1783.0,square1,f,0.099099999,0,S,9.0
S5,0.0,90.0,70.0,79.0,84.0,90,90.0,square1,r,1.6247,0,S,5.0
S5,1.0,92.0,77.0,83.0,81.0,83,173.0,square3,f,0.3178,2,S,5.0
S5,2.0,83.0,72.0,81.0,76.0,72,245.0,square2,j,0.1163,1,S,5.0
S5,3.0,87.0,72.0,79.0,81.0,81,326.0,square4,i,0.4343,3,S,5.0
S5,4.0,86.0,81.0,78.0,72.0,86,412.0,square1,r,0.1054,0,S,5.0
S5,5.0,89.0,70.0,79.0,83.0,89,501.0,square1,r,0.1496,0,S,5.0
S5,6.0,86.0,69.0,81.0,81.0,86,587.0,square1,r,0.0103,0,S,5.0
S5,7.0,82.0,72.0,86.0,80.0,82,669.0,square1,r,0.3193,0,S,5.0
S5,8.0,84.0,67.0,80.0,77.0,84,753.0,square1,r,0.001400001,0,S,5.0
S5,9.0,92.0,80.0,86.0,84.0,92,845.0,square1,r,0.0898,0,S,5.0
S5,10.0,82.0,71.0,80.0,80.0,82,927.0,square1,r,0.128700001,0,S,5.0
S5,11.0,80.0,75.0,79.0,75.0,80,1007.0,square1,r,0.0667,0,S,5.0
S5,12.0,84.0,75.0,80.0,82.0,84,1091.0,square1,r,0.0439,0,S,5.0
S5,13.0,85.0,74.0,74.0,81.0,85,1176.0,square1,r,0.1586,0,S,5.0
S5,14.0,81.0,79.0,85.0,81.0,81,1257.0,square1,r,0.1783,0,S,5.0
S5,15.0,81.0,75.0,76.0,77.0,81,1338.0,square1,r,0.084,0,S,5.0
S5,16.0,86.0,74.0,78.0,74.0,86,1424.0,square1,r,0.0015,0,S,5.0
S5,17.0,81.0,77.0,81.0,77.0,81,1505.0,square1,r,0.0499,0,S,5.0
S5,18.0,87.0,70.0,84.0,82.0,87,1592.0,square1,r,0.183,0,S,5.0
S5,19.0,84.0,76.0,83.0,76.0,84,1676.0,square1,r,0.031,0,S,5.0
S5,20.0,79.0,78.0,82.0,76.0,79,1755.0,square1,r,0.027900001,0,S,5.0
S5,21.0,86.0,68.0,80.0,72.0,86,1841.0,square1,r,0.0296,0,S,5.0
S5,22.0,93.0,80.0,85.0,84.0,93,1934.0,square1,r,0.2305,0,S,5.0
S5,23.0,87.0,73.0,76.0,70.0,87,2021.0,square1,r,0.048400001,0,S,5.0
S5,24.0,85.0,69.0,81.0,78.0,85,2106.0,square1,r,0.0675,0,S,5.0
S5,25.0,89.0,77.0,77.0,76.0,89,2195.0,square1,r,0.0316,0,S,5.0
S5,26.0,84.0,71.0,81.0,75.0,84,2279.0,square1,r,0.179099999,0,S,5.0
S5,27.0,84.0,75.0,82.0,71.0,84,2363.0,square1,r,0.0317,0,S,5.0
S5,28.0,83.0,72.0,82.0,78.0,83,2446.0,square1,r,0.0022,0,S,5.0
S5,29.0,91.0,67.0,79.0,74.0,91,2537.0,square1,r,0.1125,0,S,5.0
S5,30.0,82.0,69.0,81.0,77.0,82,2619.0,square1,r,0.0021,0,S,5.0
S5,31.0,82.0,72.0,80.0,78.0,82,2701.0,square1,r,0.2271,0,S,5.0
S5,32.0,83.0,73.0,91.0,80.0,83,2784.0,square1,r,0.110900001,0,S,5.0
S5,33.0,83.0,68.0,85.0,78.0,83,2867.0,square1,r,0.0149,0,S,5.0
S5,34.0,89.0,79.0,83.0,77.0,89,2956.0,square1,r,0.029099999,0,S,5.0
S5,35.0,88.0,72.0,79.0,80.0,88,3044.0,square1,r,0.061,0,S,5.0
S5,36.0,90.0,74.0,84.0,76.0,90,3134.0,square1,r,0.0153,0,S,5.0
S5,37.0,85.0,75.0,80.0,82.0,85,3219.0,square1,r,0.0447,0,S,5.0
S5,38.0,78.0,74.0,85.0,79.0,78,3297.0,square1,r,0.0022,0,S,5.0
S5,39.0,87.0,73.0,87.0,85.0,87,3384.0,square1,r,0.0266,0,S,5.0
S5,40.0,83.0,67.0,81.0,80.0,83,3467.0,square1,r,0.0288,0,S,5.0
S5,41.0,82.0,69.0,88.0,80.0,82,3549.0,square1,r,0.130299999,0,S,5.0
S5,42.0,85.0,78.0,91.0,80.0,85,3634.0,square1,r,0.062299999,0,S,5.0
S5,43.0,89.0,74.0,78.0,74.0,89,3723.0,square1,r,0.0022,0,S,5.0
S5,44.0,90.0,74.0,77.0,85.0,90,3813.0,square1,r,0.061,0,S,5.0
S5,45.0,89.0,68.0,81.0,78.0,89,3902.0,square1,r,0.0127,0,S,5.0
S5,46.0,86.0,70.0,86.0,68.0,86,3988.0,square1,r,0.2301,0,S,5.0
S5,47.0,90.0,77.0,85.0,84.0,90,4078.0,square1,r,0.0277,0,S,5.0
S5,48.0,76.0,66.0,82.0,79.0,76,4154.0,square1,r,0.076,0,S,5.0
S5,49.0,84.0,73.0,82.0,75.0,84,4238.0,square1,r,0.0457,0,S,5.0
S10,0.0,72.0,76.0,80.0,64.0,80,80.0,square3,r,1.4156,2,S,10.0
S10,1.0,76.0,75.0,74.0,65.0,65,145.0,square4,f,0.358799999,3,S,10.0
S10,2.0,70.0,72.0,79.0,74.0,70,215.0,square1,j,0.3153,0,S,10.0
S10,3.0,69.0,77.0,76.0,68.0,77,292.0,square2,i,0.388200001,1,S,10.0
S10,4.0,72.0,79.0,77.0,70.0,77,369.0,square3,r,0.082799999,2,S,10.0
S10,5.0,68.0,74.0,72.0,64.0,72,441.0,square3,r,0.178,2,S,10.0
S10,6.0,70.0,77.0,72.0,62.0,72,513.0,square3,r,0.1332,2,S,10.0
S10,7.0,78.0,81.0,80.0,74.0,80,593.0,square3,r,0.0435,2,S,10.0
S10,8.0,78.0,78.0,82.0,66.0,82,675.0,square3,r,0.034799999,2,S,10.0
S10,9.0,69.0,76.0,77.0,65.0,77,752.0,square3,r,0.1825,2,S,10.0
S10,10.0,72.0,78.0,72.0,75.0,72,824.0,square3,r,0.193900001,2,S,10.0
S10,11.0,71.0,76.0,78.0,66.0,78,902.0,square3,r,0.1337,2,S,10.0
S10,12.0,73.0,83.0,79.0,69.0,79,981.0,square3,r,0.2327,2,S,10.0
S10,13.0,68.0,77.0,65.0,65.0,65,1046.0,square3,r,0.0942,2,S,10.0
S10,14.0,69.0,84.0,79.0,65.0,79,1125.0,square3,r,0.1518,2,S,10.0
S10,15.0,72.0,84.0,70.0,71.0,70,1195.0,square3,r,0.2381,2,S,10.0
S10,16.0,79.0,80.0,82.0,67.0,82,1277.0,square3,r,0.185200001,2,S,10.0
S10,17.0,69.0,83.0,75.0,70.0,75,1352.0,square3,r,0.201400001,2,S,10.0
S10,18.0,69.0,75.0,69.0,68.0,69,1421.0,square3,r,0.048599999,2,S,10.0
S10,19.0,70.0,83.0,73.0,66.0,73,1494.0,square3,r,0.0423,2,S,10.0
S10,20.0,69.0,83.0,75.0,66.0,75,1569.0,square3,r,0.1335,2,S,10.0
S10,21.0,77.0,70.0,75.0,70.0,75,1644.0,square3,r,0.1602,2,S,10.0
S10,22.0,73.0,77.0,81.0,69.0,81,1725.0,square3,r,0.0441,2,S,10.0
S10,23.0,73.0,78.0,70.0,65.0,70,1795.0,square3,r,0.235,2,S,10.0
S10,24.0,70.0,80.0,75.0,66.0,75,1870.0,square3,r,0.0622,2,S,10.0
S10,25.0,70.0,80.0,73.0,72.0,73,1943.0,square3,r,0.1421,2,S,10.0
S10,26.0,73.0,75.0,73.0,75.0,73,2016.0,square3,r,0.0923,2,S,10.0
S10,27.0,77.0,81.0,83.0,66.0,83,2099.0,square3,r,0.0105,2,S,10.0
S10,28.0,73.0,79.0,79.0,73.0,79,2178.0,square3,r,0.1585,2,S,10.0
S10,29.0,73.0,79.0,72.0,69.0,72,2250.0,square3,r,0.0135,2,S,10.0
S10,30.0,71.0,85.0,79.0,69.0,79,2329.0,square3,r,0.1959,2,S,10.0
S10,31.0,71.0,85.0,83.0,66.0,83,2412.0,square3,r,0.0794,2,S,10.0
S10,32.0,78.0,79.0,77.0,65.0,79,2491.0,square2,i,0.0804,1,S,10.0
S10,33.0,83.0,79.0,72.0,68.0,83,2574.0,square1,j,0.63,0,S,10.0
S10,34.0,68.0,74.0,79.0,72.0,99999,2574.0,invalid,,,-1,S,10.0
S10,35.0,70.0,83.0,79.0,67.0,67,2641.0,square4,f,0.0648,3,S,10.0
S10,36.0,67.0,76.0,75.0,72.0,75,2716.0,square3,r,0.176799999,2,S,10.0
S10,37.0,76.0,82.0,79.0,60.0,79,2795.0,square3,r,0.062,2,S,10.0
S10,38.0,72.0,75.0,69.0,68.0,69,2864.0,square3,r,0.0619,2,S,10.0
S10,39.0,73.0,78.0,76.0,70.0,76,2940.0,square3,r,0.1334,2,S,10.0
S10,40.0,76.0,77.0,66.0,60.0,66,3006.0,square3,r,0.050400001,2,S,10.0
S10,41.0,74.0,83.0,73.0,67.0,73,3079.0,square3,r,0.098,2,S,10.0
S10,42.0,72.0,69.0,80.0,63.0,80,3159.0,square3,r,0.2445,2,S,10.0
S10,43.0,69.0,74.0,72.0,68.0,72,3231.0,square3,r,0.157,2,S,10.0
S10,44.0,67.0,76.0,70.0,65.0,70,3301.0,square3,r,0.015200001,2,S,10.0
S10,45.0,76.0,81.0,74.0,72.0,74,3375.0,square3,r,0.1816,2,S,10.0
S10,46.0,76.0,79.0,76.0,66.0,76,3451.0,square3,r,0.0857,2,S,10.0
S10,47.0,67.0,81.0,84.0,60.0,84,3535.0,square3,r,0.0134,2,S,10.0
S10,48.0,73.0,83.0,75.0,66.0,75,3610.0,square3,r,0.0916,2,S,10.0
S10,49.0,66.0,77.0,74.0,71.0,74,3684.0,square3,r,0.244799999,2,S,10.0
S7,0.0,68.0,73.0,62.0,57.0,57,57.0,square4,r,0.6951,3,S,7.0
S7,1.0,74.0,67.0,66.0,59.0,67,124.0,square2,f,0.6822,1,S,7.0
S7,2.0,68.0,69.0,65.0,60.0,65,189.0,square3,j,0.350799999,2,S,7.0
S7,3.0,74.0,68.0,65.0,63.0,74,263.0,square1,i,0.8683,0,S,7.0
S7,4.0,68.0,74.0,67.0,63.0,74,337.0,square2,f,0.300599999,1,S,7.0
S7,5.0,68.0,67.0,61.0,57.0,61,398.0,square3,j,0.4021,2,S,7.0
S7,6.0,72.0,64.0,65.0,51.0,51,449.0,square4,r,0.150400001,3,S,7.0
S7,7.0,69.0,63.0,69.0,63.0,69,518.0,square1,i,0.1147,0,S,7.0
S7,8.0,71.0,68.0,63.0,54.0,68,586.0,square2,f,0.269099999,1,S,7.0
S7,9.0,81.0,66.0,68.0,62.0,81,667.0,square1,i,0.066599999,0,S,7.0
S7,10.0,72.0,73.0,68.0,61.0,72,739.0,square1,i,0.002,0,S,7.0
S7,11.0,72.0,72.0,62.0,58.0,72,811.0,square1,i,0.199700001,0,S,7.0
S7,12.0,66.0,66.0,62.0,61.0,66,877.0,square1,i,0.0637,0,S,7.0
S7,13.0,73.0,75.0,75.0,68.0,73,950.0,square1,i,0.102,0,S,7.0
S7,14.0,71.0,73.0,72.0,66.0,71,1021.0,square1,i,0.0155,0,S,7.0
S7,15.0,75.0,68.0,68.0,65.0,75,1096.0,square1,i,0.0529,0,S,7.0
S7,16.0,67.0,65.0,62.0,56.0,67,1163.0,square1,i,0.135700001,0,S,7.0
S7,17.0,72.0,67.0,63.0,64.0,72,1235.0,square1,i,0.176900001,0,S,7.0
S7,18.0,73.0,69.0,66.0,65.0,73,1308.0,square1,i,0.1425,0,S,7.0
S7,19.0,75.0,70.0,62.0,58.0,75,1383.0,square1,i,0.0017,0,S,7.0
S7,20.0,76.0,63.0,67.0,62.0,76,1459.0,square1,i,0.0441,0,S,7.0
S7,21.0,79.0,76.0,63.0,64.0,79,1538.0,square1,i,0.0842,0,S,7.0
S7,22.0,67.0,72.0,63.0,62.0,67,1605.0,square1,i,0.0272,0,S,7.0
S7,23.0,69.0,71.0,70.0,62.0,69,1674.0,square1,i,0.1784,0,S,7.0
S7,24.0,74.0,67.0,70.0,62.0,74,1748.0,square1,i,0.0355,0,S,7.0
S7,25.0,70.0,67.0,72.0,62.0,70,1818.0,square1,i,0.0952,0,S,7.0
S7,26.0,72.0,62.0,74.0,65.0,72,1890.0,square1,i,0.167099999,0,S,7.0
S7,27.0,69.0,70.0,68.0,62.0,69,1959.0,square1,i,0.046,0,S,7.0
S7,28.0,65.0,66.0,60.0,62.0,65,2024.0,square1,i,0.1285,0,S,7.0
S7,29.0,70.0,64.0,60.0,68.0,70,2094.0,square1,i,0.0465,0,S,7.0
S7,30.0,69.0,69.0,64.0,57.0,69,2163.0,square1,i,0.1445,0,S,7.0
S7,31.0,77.0,67.0,65.0,60.0,77,2240.0,square1,i,0.0456,0,S,7.0
S7,32.0,67.0,75.0,65.0,58.0,67,2307.0,square1,i,0.0018,0,S,7.0
S7,33.0,74.0,66.0,66.0,60.0,74,2381.0,square1,i,0.2287,0,S,7.0
S7,34.0,72.0,72.0,66.0,61.0,72,2453.0,square1,i,0.0281,0,S,7.0
S7,35.0,67.0,68.0,64.0,62.0,67,2520.0,square1,i,0.0683,0,S,7.0
S7,36.0,64.0,63.0,70.0,58.0,64,2584.0,square1,i,0.0155,0,S,7.0
S7,37.0,80.0,72.0,64.0,53.0,80,2664.0,square1,i,0.151400001,0,S,7.0
S7,38.0,78.0,69.0,76.0,67.0,78,2742.0,square1,i,0.2007,0,S,7.0
S7,39.0,69.0,66.0,60.0,67.0,69,2811.0,square1,i,0.1013,0,S,7.0
S7,40.0,72.0,71.0,63.0,66.0,72,2883.0,square1,i,0.1989,0,S,7.0
S7,41.0,80.0,73.0,65.0,63.0,80,2963.0,square1,i,0.203400001,0,S,7.0
S7,42.0,77.0,60.0,65.0,59.0,77,3040.0,square1,i,0.3395,0,S,7.0
S7,43.0,70.0,72.0,70.0,63.0,70,3110.0,square1,i,0.418,0,S,7.0
S7,44.0,77.0,70.0,66.0,58.0,77,3187.0,square1,i,0.082700001,0,S,7.0
S7,45.0,75.0,69.0,73.0,58.0,75,3262.0,square1,i,0.2185,0,S,7.0
S7,46.0,74.0,71.0,63.0,63.0,74,3336.0,square1,i,0.2265,0,S,7.0
S7,47.0,73.0,75.0,71.0,64.0,73,3409.0,square1,i,0.169700001,0,S,7.0
S7,48.0,78.0,79.0,64.0,58.0,78,3487.0,square1,i,0.2778,0,S,7.0
S7,49.0,75.0,72.0,66.0,72.0,75,3562.0,square1,i,0.0019,0,S,7.0
S2,0.0,62.0,57.0,71.0,74.0,57,57.0,square2,r,0.7962,1,S,2.0
S2,1.0,64.0,59.0,72.0,67.0,64,121.0,square1,f,0.968,0,S,2.0
S2,2.0,68.0,57.0,75.0,68.0,68,189.0,square4,j,0.319,3,S,2.0
S2,3.0,69.0,57.0,80.0,70.0,80,269.0,square3,i,1.3905,2,S,2.0
S2,4.0,66.0,60.0,74.0,68.0,66,335.0,square1,f,0.155,0,S,2.0
S2,5.0,63.0,62.0,77.0,72.0,77,412.0,square3,i,0.684400001,2,S,2.0
S2,6.0,69.0,61.0,75.0,74.0,74,486.0,square4,j,0.1515,3,S,2.0
S2,7.0,74.0,66.0,79.0,72.0,66,552.0,square2,r,0.0015,1,S,2.0
S2,8.0,81.0,65.0,76.0,72.0,76,628.0,square3,i,0.1345,2,S,2.0
S2,9.0,70.0,66.0,78.0,70.0,78,706.0,square3,i,0.0102,2,S,2.0
S2,10.0,70.0,72.0,70.0,74.0,70,776.0,square3,i,0.0685,2,S,2.0
S2,11.0,64.0,66.0,72.0,67.0,72,848.0,square3,i,0.119099999,2,S,2.0
S2,12.0,66.0,57.0,70.0,67.0,70,918.0,square3,i,0.148,2,S,2.0
S2,13.0,68.0,68.0,71.0,73.0,71,989.0,square3,i,0.1115,2,S,2.0
S2,14.0,70.0,63.0,77.0,71.0,77,1066.0,square3,i,0.1659,2,S,2.0
S2,15.0,64.0,66.0,75.0,66.0,75,1141.0,square3,i,0.0182,2,S,2.0
S2,16.0,67.0,61.0,73.0,70.0,73,1214.0,square3,i,0.1002,2,S,2.0
S2,17.0,65.0,58.0,71.0,75.0,71,1285.0,square3,i,0.2289,2,S,2.0
S2,18.0,72.0,64.0,81.0,61.0,81,1366.0,square3,i,0.0618,2,S,2.0
S2,19.0,60.0,63.0,72.0,65.0,72,1438.0,square3,i,0.112099999,2,S,2.0
S2,20.0,68.0,56.0,71.0,70.0,71,1509.0,square3,i,0.0928,2,S,2.0
S2,21.0,65.0,65.0,74.0,71.0,74,1583.0,square3,i,0.0699,2,S,2.0
S2,22.0,69.0,62.0,77.0,72.0,77,1660.0,square3,i,0.8133,2,S,2.0
S2,23.0,64.0,71.0,74.0,65.0,74,1734.0,square3,i,0.1464,2,S,2.0
S2,24.0,66.0,62.0,78.0,70.0,78,1812.0,square3,i,0.0114,2,S,2.0
S2,25.0,67.0,69.0,76.0,66.0,76,1888.0,square3,i,0.095,2,S,2.0
S2,26.0,65.0,63.0,74.0,69.0,74,1962.0,square3,i,0.161,2,S,2.0
S2,27.0,68.0,64.0,67.0,68.0,67,2029.0,square3,i,0.003599999,2,S,2.0
S2,28.0,61.0,52.0,71.0,68.0,71,2100.0,square3,i,0.0448,2,S,2.0
S2,29.0,67.0,64.0,73.0,69.0,73,2173.0,square3,i,0.1452,2,S,2.0
S2,30.0,67.0,53.0,77.0,67.0,77,2250.0,square3,i,0.1456,2,S,2.0
S2,31.0,67.0,69.0,69.0,68.0,69,2319.0,square3,i,0.001599999,2,S,2.0
S2,32.0,71.0,63.0,73.0,70.0,73,2392.0,square3,i,0.0785,2,S,2.0
S2,33.0,61.0,65.0,68.0,71.0,68,2460.0,square3,i,0.0442,2,S,2.0
S2,34.0,66.0,55.0,78.0,68.0,78,2538.0,square3,i,0.0619,2,S,2.0
S2,35.0,60.0,57.0,66.0,66.0,66,2604.0,square3,i,0.0771,2,S,2.0
S2,36.0,64.0,63.0,73.0,72.0,73,2677.0,square3,i,0.045700001,2,S,2.0
S2,37.0,65.0,62.0,75.0,68.0,75,2752.0,square3,i,0.0939,2,S,2.0
S2,38.0,69.0,57.0,71.0,62.0,71,2823.0,square3,i,0.0023,2,S,2.0
S2,39.0,72.0,66.0,74.0,74.0,74,2897.0,square3,i,0.1441,2,S,2.0
S2,40.0,66.0,63.0,76.0,59.0,76,2973.0,square3,i,0.0275,2,S,2.0
S2,41.0,74.0,64.0,67.0,76.0,67,3040.0,square3,i,0.078099999,2,S,2.0
S2,42.0,62.0,67.0,72.0,68.0,72,3112.0,square3,i,0.098599999,2,S,2.0
S2,43.0,69.0,63.0,75.0,71.0,75,3187.0,square3,i,0.111900001,2,S,2.0
S2,44.0,72.0,60.0,74.0,67.0,74,3261.0,square3,i,0.0019,2,S,2.0
S2,45.0,69.0,63.0,76.0,73.0,76,3337.0,square3,i,0.094,2,S,2.0
S2,46.0,64.0,71.0,75.0,72.0,75,3412.0,square3,i,0.0685,2,S,2.0
S2,47.0,75.0,62.0,75.0,69.0,75,3487.0,square3,i,0.093900001,2,S,2.0
S2,48.0,66.0,65.0,74.0,68.0,74,3561.0,square3,i,0.019,2,S,2.0
S2,49.0,67.0,64.0,72.0,76.0,72,3633.0,square3,i,0.4622,2,S,2.0
