block,Trial,square1,square2,square3,square4,currPoints,totalPoints,square,choiceKey.keys,choiceKey.rt,armNum,blockType,blockNum
prac,0.0,100.0,0.0,0.0,0.0,99999,0.0,invalid,,,-1,p,0.0
prac,1.0,100.0,0.0,0.0,0.0,99999,0.0,invalid,,,-1,p,0.0
prac,2.0,100.0,0.0,0.0,0.0,99999,0.0,invalid,,,-1,p,0.0
prac,3.0,100.0,0.0,0.0,0.0,99999,0.0,invalid,,,-1,p,0.0
prac,4.0,100.0,0.0,0.0,0.0,99999,0.0,invalid,,,-1,p,0.0
prac,5.0,100.0,0.0,0.0,0.0,99999,0.0,invalid,,,-1,p,0.0
prac,6.0,100.0,0.0,0.0,0.0,0,0.0,square4,,,3,p,0.0
prac,7.0,100.0,0.0,0.0,0.0,99999,0.0,invalid,,,-1,p,0.0
prac,8.0,100.0,0.0,0.0,0.0,0,0.0,square4,,,3,p,0.0
prac,9.0,100.0,0.0,0.0,0.0,0,0.0,square4,,,3,p,0.0
V12,0.0,47.0,30.0,38.0,55.0,55,55.0,square4,r,0.536,3,V,12.0
V12,1.0,46.0,33.0,39.0,57.0,57,112.0,square4,r,0.376,3,V,12.0
V12,2.0,51.0,29.0,42.0,52.0,52,164.0,square4,r,0.316,3,V,12.0
V12,3.0,52.0,30.0,38.0,62.0,38,202.0,square3,j,0.611,2,V,12.0
V12,4.0,48.0,30.0,39.0,62.0,48,250.0,square1,i,0.165,0,V,12.0
V12,5.0,55.0,34.0,43.0,61.0,34,284.0,square2,f,0.265,1,V,12.0
V12,6.0,45.0,35.0,42.0,56.0,56,340.0,square4,r,0.304,3,V,12.0
V12,7.0,48.0,29.0,35.0,57.0,57,397.0,square4,r,0.101,3,V,12.0
V12,8.0,46.0,33.0,38.0,59.0,59,456.0,square4,r,0.67,3,V,12.0
V12,9.0,44.0,31.0,42.0,56.0,56,512.0,square4,r,0.063,3,V,12.0
V12,10.0,48.0,34.0,45.0,55.0,55,567.0,square4,r,0.111,3,V,12.0
V12,11.0,45.0,32.0,41.0,55.0,55,622.0,square4,r,0.1,3,V,12.0
V12,12.0,52.0,26.0,42.0,57.0,52,674.0,square1,i,0.561,0,V,12.0
V12,13.0,56.0,31.0,41.0,54.0,56,730.0,square1,i,0.264,0,V,12.0
V12,14.0,44.0,34.0,40.0,64.0,64,794.0,square4,r,0.279,3,V,12.0
V12,15.0,48.0,32.0,39.0,61.0,48,842.0,square1,i,0.182,0,V,12.0
V12,16.0,49.0,33.0,37.0,58.0,58,900.0,square4,r,0.109,3,V,12.0
V12,17.0,45.0,33.0,43.0,57.0,57,957.0,square4,r,0.68,3,V,12.0
V12,18.0,45.0,28.0,40.0,58.0,45,1002.0,square1,i,0.281,0,V,12.0
V12,19.0,42.0,33.0,43.0,59.0,59,1061.0,square4,r,0.752,3,V,12.0
V12,20.0,46.0,30.0,38.0,62.0,62,1123.0,square4,r,0.263,3,V,12.0
V12,21.0,46.0,35.0,40.0,55.0,55,1178.0,square4,r,0.211,3,V,12.0
V12,22.0,46.0,34.0,36.0,63.0,63,1241.0,square4,r,0.231,3,V,12.0
V12,23.0,54.0,34.0,42.0,56.0,56,1297.0,square4,r,0.175,3,V,12.0
V12,24.0,44.0,30.0,41.0,59.0,59,1356.0,square4,r,0.016,3,V,12.0
V12,25.0,49.0,33.0,37.0,64.0,64,1420.0,square4,r,0.0,3,V,12.0
V12,26.0,52.0,34.0,39.0,57.0,57,1477.0,square4,r,0.061,3,V,12.0
V12,27.0,50.0,26.0,37.0,55.0,55,1532.0,square4,r,0.098,3,V,12.0
V12,28.0,41.0,29.0,46.0,21.0,41,1573.0,square1,i,0.175,0,V,12.0
V12,29.0,41.0,28.0,51.0,20.0,20,1593.0,square4,r,0.03,3,V,12.0
V12,30.0,32.0,31.0,46.0,22.0,22,1615.0,square4,r,0.283,3,V,12.0
V12,31.0,38.0,28.0,45.0,22.0,28,1643.0,square2,f,0.265,1,V,12.0
V12,32.0,35.0,27.0,44.0,16.0,35,1678.0,square1,i,0.698,0,V,12.0
V12,33.0,39.0,29.0,49.0,21.0,49,1727.0,square3,j,0.299,2,V,12.0
V12,34.0,39.0,28.0,49.0,15.0,49,1776.0,square3,j,0.248,2,V,12.0
V12,35.0,36.0,29.0,50.0,17.0,50,1826.0,square3,j,0.203,2,V,12.0
V12,36.0,41.0,28.0,48.0,12.0,48,1874.0,square3,j,0.135,2,V,12.0
V12,37.0,34.0,29.0,46.0,25.0,46,1920.0,square3,j,0.033,2,V,12.0
V12,38.0,38.0,28.0,51.0,19.0,51,1971.0,square3,j,0.043,2,V,12.0
V12,39.0,39.0,31.0,45.0,13.0,45,2016.0,square3,j,0.066,2,V,12.0
V12,40.0,35.0,28.0,46.0,26.0,46,2062.0,square3,j,0.014,2,V,12.0
V12,41.0,38.0,27.0,46.0,20.0,46,2108.0,square3,j,0.633,2,V,12.0
V12,42.0,40.0,26.0,50.0,23.0,50,2158.0,square3,j,0.195,2,V,12.0
V12,43.0,33.0,30.0,45.0,18.0,45,2203.0,square3,j,0.029,2,V,12.0
V12,44.0,39.0,31.0,46.0,22.0,46,2249.0,square3,j,0.049,2,V,12.0
V12,45.0,32.0,26.0,42.0,20.0,42,2291.0,square3,j,0.583,2,V,12.0
V12,46.0,36.0,29.0,43.0,24.0,43,2334.0,square3,j,0.262,2,V,12.0
V12,47.0,37.0,30.0,46.0,21.0,46,2380.0,square3,j,0.062,2,V,12.0
V12,48.0,37.0,27.0,44.0,19.0,37,2417.0,square1,i,0.265,0,V,12.0
V12,49.0,36.0,33.0,55.0,16.0,55,2472.0,square3,j,0.127,2,V,12.0
V12,50.0,45.0,28.0,44.0,18.0,44,2516.0,square3,j,0.218,2,V,12.0
V12,51.0,35.0,32.0,49.0,19.0,49,2565.0,square3,j,0.147,2,V,12.0
V12,52.0,36.0,56.0,31.0,52.0,31,2596.0,square3,j,0.216,2,V,12.0
V12,53.0,36.0,57.0,29.0,45.0,45,2641.0,square4,r,0.331,3,V,12.0
V12,54.0,38.0,61.0,28.0,51.0,51,2692.0,square4,r,0.212,3,V,12.0
V12,55.0,35.0,60.0,29.0,47.0,47,2739.0,square4,r,0.187,3,V,12.0
V12,56.0,34.0,62.0,29.0,46.0,46,2785.0,square4,r,0.156,3,V,12.0
V12,57.0,43.0,57.0,32.0,46.0,57,2842.0,square2,f,0.203,1,V,12.0
V12,58.0,40.0,59.0,32.0,50.0,59,2901.0,square2,f,0.215,1,V,12.0
V12,59.0,41.0,62.0,33.0,48.0,62,2963.0,square2,f,0.195,1,V,12.0
V12,60.0,36.0,61.0,32.0,49.0,61,3024.0,square2,f,0.089,1,V,12.0
V12,61.0,39.0,56.0,32.0,44.0,56,3080.0,square2,f,0.051,1,V,12.0
V12,62.0,39.0,57.0,30.0,46.0,57,3137.0,square2,f,0.128,1,V,12.0
V12,63.0,42.0,53.0,29.0,46.0,53,3190.0,square2,f,0.08,1,V,12.0
V12,64.0,35.0,57.0,32.0,50.0,57,3247.0,square2,f,0.067,1,V,12.0
V12,65.0,44.0,58.0,32.0,49.0,58,3305.0,square2,f,0.082,1,V,12.0
V12,66.0,44.0,56.0,29.0,52.0,56,3361.0,square2,f,0.049,1,V,12.0
V12,67.0,41.0,60.0,30.0,49.0,60,3421.0,square2,f,0.6,1,V,12.0
V12,68.0,42.0,58.0,32.0,45.0,58,3479.0,square2,f,0.0,1,V,12.0
V12,69.0,36.0,60.0,33.0,50.0,60,3539.0,square2,f,0.396,1,V,12.0
V12,70.0,36.0,57.0,27.0,46.0,57,3596.0,square2,f,0.07,1,V,12.0
V12,71.0,41.0,59.0,32.0,48.0,59,3655.0,square2,f,0.08,1,V,12.0
V12,72.0,34.0,59.0,31.0,49.0,59,3714.0,square2,f,0.003,1,V,12.0
V12,73.0,71.0,53.0,65.0,49.0,53,3767.0,square2,f,0.147,1,V,12.0
V12,74.0,69.0,49.0,63.0,45.0,49,3816.0,square2,f,0.236,1,V,12.0
V12,75.0,72.0,51.0,56.0,46.0,46,3862.0,square4,r,0.047,3,V,12.0
V12,76.0,72.0,48.0,58.0,43.0,58,3920.0,square3,j,0.001,2,V,12.0
V12,77.0,74.0,57.0,59.0,44.0,74,3994.0,square1,i,0.379,0,V,12.0
V12,78.0,69.0,55.0,63.0,50.0,69,4063.0,square1,i,0.215,0,V,12.0
V12,79.0,73.0,53.0,58.0,43.0,73,4136.0,square1,i,0.136,0,V,12.0
V12,80.0,71.0,47.0,65.0,40.0,71,4207.0,square1,i,0.202,0,V,12.0
V12,81.0,66.0,49.0,57.0,40.0,66,4273.0,square1,i,0.063,0,V,12.0
V12,82.0,71.0,53.0,57.0,48.0,71,4344.0,square1,i,0.082,0,V,12.0
V12,83.0,70.0,50.0,56.0,49.0,70,4414.0,square1,i,0.081,0,V,12.0
V12,84.0,69.0,45.0,64.0,43.0,69,4483.0,square1,i,0.101,0,V,12.0
V12,85.0,64.0,48.0,54.0,42.0,64,4547.0,square1,i,0.086,0,V,12.0
V12,86.0,71.0,49.0,63.0,44.0,71,4618.0,square1,i,0.082,0,V,12.0
V12,87.0,72.0,52.0,55.0,42.0,72,4690.0,square1,i,0.222,0,V,12.0
V12,88.0,64.0,48.0,59.0,44.0,64,4754.0,square1,i,0.446,0,V,12.0
V12,89.0,69.0,48.0,62.0,45.0,69,4823.0,square1,i,0.086,0,V,12.0
V12,90.0,68.0,56.0,60.0,42.0,68,4891.0,square1,i,0.75,0,V,12.0
V12,91.0,69.0,52.0,62.0,45.0,69,4960.0,square1,i,0.146,0,V,12.0
V12,92.0,65.0,50.0,64.0,47.0,65,5025.0,square1,i,0.083,0,V,12.0
V12,93.0,68.0,51.0,62.0,43.0,68,5093.0,square1,i,0.129,0,V,12.0
V12,94.0,68.0,52.0,60.0,38.0,68,5161.0,square1,i,0.212,0,V,12.0
V12,95.0,71.0,52.0,58.0,47.0,47,5208.0,square4,r,0.349,3,V,12.0
V12,96.0,66.0,49.0,59.0,44.0,66,5274.0,square1,i,0.199,0,V,12.0
V12,97.0,74.0,47.0,54.0,47.0,74,5348.0,square1,i,0.166,0,V,12.0
V12,98.0,68.0,43.0,64.0,41.0,43,5391.0,square2,f,0.064,1,V,12.0
V12,99.0,71.0,53.0,62.0,44.0,71,5462.0,square1,i,0.099,0,V,12.0
V7,0.0,86.0,61.0,78.0,68.0,61,61.0,square2,r,1.141,1,V,7.0
V7,1.0,95.0,62.0,79.0,70.0,62,123.0,square2,r,0.462,1,V,7.0
V7,2.0,89.0,67.0,81.0,77.0,81,204.0,square3,i,0.282,2,V,7.0
V7,3.0,90.0,56.0,85.0,72.0,85,289.0,square3,i,0.228,2,V,7.0
V7,4.0,91.0,65.0,77.0,71.0,77,366.0,square3,i,0.266,2,V,7.0
V7,5.0,91.0,58.0,84.0,72.0,72,438.0,square4,j,0.058,3,V,7.0
V7,6.0,94.0,65.0,87.0,72.0,94,532.0,square1,f,0.23,0,V,7.0
V7,7.0,89.0,67.0,79.0,67.0,89,621.0,square1,f,0.298,0,V,7.0
V7,8.0,91.0,65.0,84.0,68.0,91,712.0,square1,f,0.181,0,V,7.0
V7,9.0,92.0,60.0,87.0,69.0,92,804.0,square1,f,0.215,0,V,7.0
V7,10.0,90.0,67.0,81.0,76.0,90,894.0,square1,f,0.1,0,V,7.0
V7,11.0,86.0,67.0,83.0,73.0,86,980.0,square1,f,0.065,0,V,7.0
V7,12.0,90.0,62.0,80.0,72.0,80,1060.0,square3,i,0.161,2,V,7.0
V7,13.0,84.0,60.0,88.0,71.0,84,1144.0,square1,f,0.212,0,V,7.0
V7,14.0,95.0,64.0,80.0,70.0,95,1239.0,square1,f,0.183,0,V,7.0
V7,15.0,86.0,60.0,81.0,70.0,86,1325.0,square1,f,0.164,0,V,7.0
V7,16.0,85.0,65.0,77.0,69.0,85,1410.0,square1,f,0.002,0,V,7.0
V7,17.0,91.0,65.0,81.0,70.0,91,1501.0,square1,f,0.215,0,V,7.0
V7,18.0,95.0,61.0,81.0,76.0,95,1596.0,square1,f,0.113,0,V,7.0
V7,19.0,90.0,58.0,79.0,72.0,90,1686.0,square1,f,0.076,0,V,7.0
V7,20.0,94.0,68.0,80.0,79.0,94,1780.0,square1,f,0.102,0,V,7.0
V7,21.0,92.0,66.0,82.0,70.0,92,1872.0,square1,f,0.097,0,V,7.0
V7,22.0,92.0,64.0,83.0,72.0,92,1964.0,square1,f,0.283,0,V,7.0
V7,23.0,91.0,68.0,82.0,73.0,91,2055.0,square1,f,0.108,0,V,7.0
V7,24.0,87.0,71.0,82.0,72.0,87,2142.0,square1,f,0.45,0,V,7.0
V7,25.0,91.0,68.0,90.0,74.0,91,2233.0,square1,f,0.188,0,V,7.0
V7,26.0,89.0,65.0,83.0,72.0,89,2322.0,square1,f,0.161,0,V,7.0
V7,27.0,91.0,61.0,81.0,73.0,91,2413.0,square1,f,0.137,0,V,7.0
V7,28.0,90.0,66.0,81.0,72.0,90,2503.0,square1,f,0.147,0,V,7.0
V7,29.0,89.0,67.0,77.0,71.0,89,2592.0,square1,f,0.067,0,V,7.0
V7,30.0,95.0,68.0,84.0,71.0,95,2687.0,square1,f,0.129,0,V,7.0
V7,31.0,95.0,61.0,81.0,70.0,95,2782.0,square1,f,0.013,0,V,7.0
V7,32.0,89.0,65.0,82.0,75.0,89,2871.0,square1,f,0.07,0,V,7.0
V7,33.0,77.0,50.0,80.0,61.0,77,2948.0,square1,f,0.081,0,V,7.0
V7,34.0,76.0,54.0,78.0,61.0,54,3002.0,square2,r,0.772,1,V,7.0
V7,35.0,71.0,51.0,80.0,64.0,80,3082.0,square3,i,0.0,2,V,7.0
V7,36.0,75.0,51.0,80.0,62.0,80,3162.0,square3,i,0.051,2,V,7.0
V7,37.0,73.0,58.0,86.0,63.0,86,3248.0,square3,i,0.0,2,V,7.0
V7,38.0,73.0,50.0,86.0,61.0,61,3309.0,square4,j,0.12,3,V,7.0
V7,39.0,67.0,53.0,78.0,61.0,78,3387.0,square3,i,0.001,2,V,7.0
V7,40.0,71.0,53.0,84.0,58.0,71,3458.0,square1,f,0.147,0,V,7.0
V7,41.0,75.0,51.0,83.0,63.0,83,3541.0,square3,i,0.101,2,V,7.0
V7,42.0,69.0,48.0,87.0,63.0,87,3628.0,square3,i,0.115,2,V,7.0
V7,43.0,70.0,58.0,81.0,60.0,81,3709.0,square3,i,0.079,2,V,7.0
V7,44.0,68.0,56.0,76.0,63.0,76,3785.0,square3,i,0.029,2,V,7.0
V7,45.0,74.0,59.0,76.0,56.0,59,3844.0,square2,r,0.231,1,V,7.0
V7,46.0,72.0,54.0,77.0,61.0,61,3905.0,square4,j,0.033,3,V,7.0
V7,47.0,69.0,47.0,81.0,62.0,81,3986.0,square3,i,0.163,2,V,7.0
V7,48.0,75.0,52.0,81.0,57.0,81,4067.0,square3,i,0.135,2,V,7.0
V7,49.0,74.0,55.0,78.0,60.0,74,4141.0,square1,f,0.143,0,V,7.0
V7,50.0,71.0,51.0,80.0,61.0,80,4221.0,square3,i,0.05,2,V,7.0
V7,51.0,75.0,55.0,85.0,62.0,85,4306.0,square3,i,0.667,2,V,7.0
V7,52.0,75.0,59.0,76.0,59.0,76,4382.0,square3,i,0.211,2,V,7.0
V7,53.0,72.0,53.0,84.0,66.0,84,4466.0,square3,i,0.579,2,V,7.0
V7,54.0,69.0,51.0,81.0,60.0,81,4547.0,square3,i,0.032,2,V,7.0
V7,55.0,74.0,56.0,75.0,54.0,75,4622.0,square3,i,0.12,2,V,7.0
V7,56.0,76.0,51.0,83.0,58.0,83,4705.0,square3,i,0.232,2,V,7.0
V7,57.0,71.0,53.0,80.0,64.0,80,4785.0,square3,i,0.097,2,V,7.0
V7,58.0,81.0,56.0,79.0,61.0,79,4864.0,square3,i,0.059,2,V,7.0
V7,59.0,71.0,55.0,83.0,59.0,83,4947.0,square3,i,0.352,2,V,7.0
V7,60.0,73.0,53.0,83.0,64.0,83,5030.0,square3,i,0.163,2,V,7.0
V7,61.0,70.0,53.0,77.0,63.0,77,5107.0,square3,i,0.299,2,V,7.0
V7,62.0,71.0,54.0,76.0,61.0,71,5178.0,square1,f,0.036,0,V,7.0
V7,63.0,68.0,45.0,79.0,65.0,79,5257.0,square3,i,0.001,2,V,7.0
V7,64.0,65.0,55.0,79.0,59.0,79,5336.0,square3,i,0.088,2,V,7.0
V7,65.0,74.0,54.0,81.0,61.0,81,5417.0,square3,i,0.535,2,V,7.0
V7,66.0,70.0,56.0,81.0,63.0,81,5498.0,square3,i,0.344,2,V,7.0
V7,67.0,70.0,85.0,64.0,92.0,64,5562.0,square3,i,0.575,2,V,7.0
V7,68.0,73.0,85.0,68.0,92.0,73,5635.0,square1,f,0.581,0,V,7.0
V7,69.0,75.0,83.0,70.0,91.0,75,5710.0,square1,f,0.281,0,V,7.0
V7,70.0,75.0,85.0,69.0,91.0,85,5795.0,square2,r,0.198,1,V,7.0
V7,71.0,71.0,86.0,65.0,94.0,86,5881.0,square2,r,0.227,1,V,7.0
V7,72.0,77.0,86.0,65.0,98.0,86,5967.0,square2,r,0.199,1,V,7.0
V7,73.0,77.0,84.0,63.0,94.0,84,6051.0,square2,r,0.164,1,V,7.0
V7,74.0,71.0,86.0,64.0,91.0,86,6137.0,square2,r,0.154,1,V,7.0
V7,75.0,73.0,90.0,60.0,90.0,90,6227.0,square2,r,0.179,1,V,7.0
V7,76.0,79.0,84.0,68.0,95.0,84,6311.0,square2,r,0.097,1,V,7.0
V7,77.0,73.0,85.0,66.0,89.0,85,6396.0,square2,r,0.133,1,V,7.0
V7,78.0,75.0,82.0,67.0,91.0,82,6478.0,square2,r,0.205,1,V,7.0
V7,79.0,72.0,85.0,60.0,90.0,85,6563.0,square2,r,0.148,1,V,7.0
V7,80.0,73.0,83.0,66.0,97.0,83,6646.0,square2,r,0.101,1,V,7.0
V7,81.0,73.0,84.0,67.0,92.0,84,6730.0,square2,r,0.15,1,V,7.0
V7,82.0,69.0,84.0,65.0,91.0,84,6814.0,square2,r,0.098,1,V,7.0
V7,83.0,76.0,83.0,72.0,99.0,83,6897.0,square2,r,0.156,1,V,7.0
V7,84.0,72.0,84.0,70.0,94.0,84,6981.0,square2,r,0.081,1,V,7.0
V7,85.0,77.0,83.0,67.0,88.0,83,7064.0,square2,r,0.112,1,V,7.0
V7,86.0,76.0,80.0,67.0,90.0,80,7144.0,square2,r,0.067,1,V,7.0
V7,87.0,70.0,86.0,67.0,95.0,86,7230.0,square2,r,0.15,1,V,7.0
V7,88.0,76.0,84.0,67.0,100.0,84,7314.0,square2,r,0.149,1,V,7.0
V7,89.0,71.0,88.0,60.0,97.0,88,7402.0,square2,r,0.173,1,V,7.0
V7,90.0,69.0,82.0,71.0,95.0,82,7484.0,square2,r,0.083,1,V,7.0
V7,91.0,80.0,84.0,65.0,92.0,84,7568.0,square2,r,0.097,1,V,7.0
V7,92.0,77.0,85.0,68.0,85.0,85,7653.0,square2,r,0.179,1,V,7.0
V7,93.0,72.0,84.0,66.0,91.0,84,7737.0,square2,r,0.037,1,V,7.0
V7,94.0,69.0,83.0,66.0,95.0,83,7820.0,square2,r,0.085,1,V,7.0
V7,95.0,70.0,86.0,75.0,91.0,86,7906.0,square2,r,0.065,1,V,7.0
V7,96.0,74.0,85.0,66.0,88.0,85,7991.0,square2,r,0.116,1,V,7.0
V7,97.0,77.0,82.0,73.0,91.0,82,8073.0,square2,r,0.083,1,V,7.0
V7,98.0,76.0,91.0,62.0,94.0,91,8164.0,square2,r,0.035,1,V,7.0
V7,99.0,74.0,84.0,67.0,88.0,84,8248.0,square2,r,0.122,1,V,7.0
V9,0.0,20.0,29.0,37.0,45.0,99999,0.0,invalid,,,-1,V,9.0
V9,1.0,21.0,32.0,39.0,45.0,45,45.0,square4,r,0.365,3,V,9.0
V9,2.0,16.0,27.0,41.0,48.0,27,72.0,square2,f,0.134,1,V,9.0
V9,3.0,20.0,30.0,42.0,50.0,20,92.0,square1,i,0.032,0,V,9.0
V9,4.0,22.0,34.0,37.0,47.0,37,129.0,square3,j,0.499,2,V,9.0
V9,5.0,17.0,32.0,38.0,49.0,49,178.0,square4,r,0.001,3,V,9.0
V9,6.0,17.0,25.0,39.0,47.0,47,225.0,square4,r,0.166,3,V,9.0
V9,7.0,22.0,28.0,33.0,48.0,48,273.0,square4,r,0.162,3,V,9.0
V9,8.0,20.0,24.0,34.0,41.0,41,314.0,square4,r,0.185,3,V,9.0
V9,9.0,20.0,33.0,30.0,51.0,51,365.0,square4,r,0.034,3,V,9.0
V9,10.0,21.0,35.0,38.0,50.0,50,415.0,square4,r,0.082,3,V,9.0
V9,11.0,19.0,29.0,44.0,45.0,45,460.0,square4,r,0.105,3,V,9.0
V9,12.0,27.0,24.0,38.0,54.0,54,514.0,square4,r,0.016,3,V,9.0
V9,13.0,15.0,26.0,37.0,50.0,50,564.0,square4,r,0.083,3,V,9.0
V9,14.0,24.0,26.0,39.0,42.0,42,606.0,square4,r,0.019,3,V,9.0
V9,15.0,26.0,27.0,43.0,49.0,49,655.0,square4,r,0.148,3,V,9.0
V9,16.0,19.0,30.0,42.0,49.0,49,704.0,square4,r,0.061,3,V,9.0
V9,17.0,21.0,30.0,34.0,49.0,49,753.0,square4,r,0.618,3,V,9.0
V9,18.0,25.0,33.0,41.0,51.0,51,804.0,square4,r,0.23,3,V,9.0
V9,19.0,17.0,31.0,41.0,45.0,45,849.0,square4,r,0.33,3,V,9.0
V9,20.0,19.0,31.0,34.0,49.0,49,898.0,square4,r,0.327,3,V,9.0
V9,21.0,23.0,29.0,37.0,48.0,48,946.0,square4,r,0.532,3,V,9.0
V9,22.0,15.0,32.0,36.0,48.0,48,994.0,square4,r,0.333,3,V,9.0
V9,23.0,25.0,33.0,39.0,47.0,99999,994.0,invalid,,,-1,V,9.0
V9,24.0,21.0,30.0,38.0,52.0,99999,994.0,invalid,,,-1,V,9.0
V9,25.0,25.0,29.0,42.0,48.0,99999,994.0,invalid,,,-1,V,9.0
V9,26.0,22.0,29.0,39.0,47.0,47,1041.0,square4,r,1.702,3,V,9.0
V9,27.0,17.0,31.0,45.0,41.0,99999,1041.0,invalid,,,-1,V,9.0
V9,28.0,29.0,28.0,43.0,43.0,28,1069.0,square2,f,0.467,1,V,9.0
V9,29.0,20.0,31.0,43.0,49.0,49,1118.0,square4,r,0.183,3,V,9.0
V9,30.0,23.0,33.0,39.0,48.0,48,1166.0,square4,r,0.132,3,V,9.0
V9,31.0,20.0,27.0,38.0,53.0,38,1204.0,square3,j,0.098,2,V,9.0
V9,32.0,23.0,29.0,37.0,49.0,49,1253.0,square4,r,0.25,3,V,9.0
V9,33.0,24.0,33.0,37.0,49.0,49,1302.0,square4,r,0.113,3,V,9.0
V9,34.0,43.0,58.0,48.0,30.0,30,1332.0,square4,r,0.133,3,V,9.0
V9,35.0,48.0,59.0,45.0,34.0,48,1380.0,square1,i,1.167,0,V,9.0
V9,36.0,39.0,56.0,54.0,32.0,39,1419.0,square1,i,0.081,0,V,9.0
V9,37.0,40.0,57.0,50.0,35.0,40,1459.0,square1,i,0.157,0,V,9.0
V9,38.0,49.0,62.0,51.0,33.0,49,1508.0,square1,i,0.199,0,V,9.0
V9,39.0,45.0,61.0,48.0,34.0,34,1542.0,square4,r,0.048,3,V,9.0
V9,40.0,40.0,65.0,51.0,29.0,40,1582.0,square1,i,0.133,0,V,9.0
V9,41.0,44.0,57.0,50.0,38.0,57,1639.0,square2,f,0.132,1,V,9.0
V9,42.0,40.0,57.0,49.0,33.0,57,1696.0,square2,f,0.231,1,V,9.0
V9,43.0,42.0,64.0,54.0,35.0,64,1760.0,square2,f,0.165,1,V,9.0
V9,44.0,44.0,55.0,49.0,39.0,55,1815.0,square2,f,0.065,1,V,9.0
V9,45.0,37.0,66.0,51.0,35.0,66,1881.0,square2,f,0.062,1,V,9.0
V9,46.0,40.0,59.0,51.0,32.0,59,1940.0,square2,f,0.064,1,V,9.0
V9,47.0,38.0,62.0,57.0,31.0,62,2002.0,square2,f,0.03,1,V,9.0
V9,48.0,43.0,61.0,54.0,34.0,61,2063.0,square2,f,0.19,1,V,9.0
V9,49.0,43.0,61.0,49.0,40.0,49,2112.0,square3,j,0.015,2,V,9.0
V9,50.0,37.0,58.0,51.0,32.0,58,2170.0,square2,f,0.296,1,V,9.0
V9,51.0,44.0,63.0,48.0,39.0,63,2233.0,square2,f,0.188,1,V,9.0
V9,52.0,35.0,65.0,48.0,30.0,65,2298.0,square2,f,0.046,1,V,9.0
V9,53.0,43.0,59.0,48.0,39.0,59,2357.0,square2,f,0.098,1,V,9.0
V9,54.0,43.0,59.0,52.0,30.0,59,2416.0,square2,f,0.114,1,V,9.0
V9,55.0,41.0,58.0,51.0,34.0,58,2474.0,square2,f,0.099,1,V,9.0
V9,56.0,44.0,63.0,50.0,33.0,63,2537.0,square2,f,0.498,1,V,9.0
V9,57.0,42.0,60.0,49.0,32.0,60,2597.0,square2,f,0.122,1,V,9.0
V9,58.0,44.0,62.0,57.0,30.0,62,2659.0,square2,f,0.001,1,V,9.0
V9,59.0,45.0,61.0,45.0,31.0,61,2720.0,square2,f,0.221,1,V,9.0
V9,60.0,43.0,63.0,53.0,33.0,63,2783.0,square2,f,0.131,1,V,9.0
V9,61.0,39.0,56.0,55.0,31.0,56,2839.0,square2,f,0.138,1,V,9.0
V9,62.0,39.0,61.0,50.0,34.0,61,2900.0,square2,f,0.084,1,V,9.0
V9,63.0,44.0,57.0,48.0,36.0,57,2957.0,square2,f,0.015,1,V,9.0
V9,64.0,40.0,60.0,58.0,35.0,60,3017.0,square2,f,0.127,1,V,9.0
V9,65.0,42.0,60.0,54.0,38.0,60,3077.0,square2,f,0.182,1,V,9.0
V9,66.0,41.0,60.0,54.0,37.0,60,3137.0,square2,f,0.095,1,V,9.0
V9,67.0,43.0,61.0,54.0,40.0,61,3198.0,square2,f,0.087,1,V,9.0
V9,68.0,45.0,40.0,26.0,18.0,40,3238.0,square2,f,0.016,1,V,9.0
V9,69.0,50.0,41.0,29.0,20.0,20,3258.0,square4,r,1.064,3,V,9.0
V9,70.0,43.0,36.0,27.0,15.0,43,3301.0,square1,i,0.096,0,V,9.0
V9,71.0,44.0,40.0,28.0,18.0,40,3341.0,square2,f,0.105,1,V,9.0
V9,72.0,42.0,38.0,27.0,18.0,38,3379.0,square2,f,0.185,1,V,9.0
V9,73.0,46.0,33.0,25.0,19.0,25,3404.0,square3,j,0.049,2,V,9.0
V9,74.0,47.0,40.0,28.0,20.0,47,3451.0,square1,i,0.081,0,V,9.0
V9,75.0,39.0,39.0,27.0,25.0,39,3490.0,square1,i,0.213,0,V,9.0
V9,76.0,50.0,31.0,29.0,23.0,31,3521.0,square2,f,0.183,1,V,9.0
V9,77.0,44.0,37.0,28.0,13.0,44,3565.0,square1,i,0.026,0,V,9.0
V9,78.0,43.0,36.0,23.0,17.0,43,3608.0,square1,i,0.183,0,V,9.0
V9,79.0,42.0,36.0,28.0,24.0,42,3650.0,square1,i,0.17,0,V,9.0
V9,80.0,47.0,35.0,30.0,14.0,14,3664.0,square4,r,0.172,3,V,9.0
V9,81.0,46.0,33.0,29.0,18.0,46,3710.0,square1,i,0.15,0,V,9.0
V9,82.0,46.0,35.0,28.0,18.0,46,3756.0,square1,i,0.212,0,V,9.0
V9,83.0,47.0,41.0,32.0,15.0,47,3803.0,square1,i,0.183,0,V,9.0
V9,84.0,45.0,38.0,31.0,18.0,45,3848.0,square1,i,0.147,0,V,9.0
V9,85.0,42.0,35.0,30.0,21.0,42,3890.0,square1,i,0.065,0,V,9.0
V9,86.0,49.0,39.0,23.0,18.0,49,3939.0,square1,i,0.014,0,V,9.0
V9,87.0,49.0,39.0,27.0,16.0,49,3988.0,square1,i,0.435,0,V,9.0
V9,88.0,45.0,38.0,25.0,14.0,45,4033.0,square1,i,0.451,0,V,9.0
V9,89.0,45.0,32.0,28.0,19.0,45,4078.0,square1,i,0.196,0,V,9.0
V9,90.0,44.0,35.0,29.0,20.0,44,4122.0,square1,i,0.215,0,V,9.0
V9,91.0,42.0,38.0,32.0,16.0,42,4164.0,square1,i,0.201,0,V,9.0
V9,92.0,45.0,36.0,23.0,20.0,45,4209.0,square1,i,0.112,0,V,9.0
V9,93.0,45.0,35.0,26.0,18.0,45,4254.0,square1,i,0.135,0,V,9.0
V9,94.0,44.0,37.0,27.0,13.0,44,4298.0,square1,i,0.112,0,V,9.0
V9,95.0,46.0,36.0,25.0,20.0,46,4344.0,square1,i,0.151,0,V,9.0
V9,96.0,43.0,39.0,27.0,16.0,43,4387.0,square1,i,0.085,0,V,9.0
V9,97.0,48.0,39.0,30.0,16.0,48,4435.0,square1,i,0.152,0,V,9.0
V9,98.0,49.0,40.0,26.0,20.0,49,4484.0,square1,i,0.048,0,V,9.0
V9,99.0,49.0,41.0,27.0,18.0,49,4533.0,square1,i,0.085,0,V,9.0
S8,0.0,58.0,60.0,52.0,45.0,58,58.0,square1,r,0.649,0,S,8.0
S8,1.0,55.0,57.0,56.0,52.0,56,114.0,square3,f,0.386,2,S,8.0
S8,2.0,54.0,58.0,58.0,49.0,58,172.0,square3,f,0.313,2,S,8.0
S8,3.0,55.0,62.0,52.0,53.0,53,225.0,square4,j,0.102,3,S,8.0
S8,4.0,55.0,60.0,49.0,51.0,60,285.0,square2,i,0.381,1,S,8.0
S8,5.0,48.0,63.0,61.0,49.0,63,348.0,square2,i,0.204,1,S,8.0
S8,6.0,58.0,63.0,59.0,55.0,63,411.0,square2,i,0.234,1,S,8.0
S8,7.0,56.0,53.0,49.0,51.0,56,467.0,square1,r,0.115,0,S,8.0
S8,8.0,61.0,63.0,66.0,49.0,63,530.0,square2,i,0.129,1,S,8.0
S8,9.0,60.0,59.0,53.0,47.0,59,589.0,square2,i,0.013,1,S,8.0
S8,10.0,55.0,63.0,52.0,55.0,63,652.0,square2,i,0.129,1,S,8.0
S8,11.0,62.0,60.0,54.0,50.0,60,712.0,square2,i,0.148,1,S,8.0
S8,12.0,58.0,64.0,51.0,52.0,64,776.0,square2,i,0.001,1,S,8.0
S8,13.0,62.0,59.0,53.0,53.0,59,835.0,square2,i,0.122,1,S,8.0
S8,14.0,51.0,62.0,61.0,54.0,62,897.0,square2,i,0.001,1,S,8.0
S8,15.0,56.0,68.0,56.0,50.0,68,965.0,square2,i,0.164,1,S,8.0
S8,16.0,58.0,64.0,56.0,50.0,64,1029.0,square2,i,0.016,1,S,8.0
S8,17.0,64.0,63.0,60.0,42.0,63,1092.0,square2,i,0.033,1,S,8.0
S8,18.0,54.0,64.0,57.0,55.0,64,1156.0,square2,i,0.013,1,S,8.0
S8,19.0,56.0,53.0,57.0,53.0,53,1209.0,square2,i,0.045,1,S,8.0
S8,20.0,59.0,64.0,56.0,49.0,64,1273.0,square2,i,0.514,1,S,8.0
S8,21.0,54.0,59.0,55.0,48.0,54,1327.0,square1,r,0.313,0,S,8.0
S8,22.0,63.0,63.0,59.0,49.0,63,1390.0,square2,i,0.163,1,S,8.0
S8,23.0,59.0,60.0,48.0,52.0,60,1450.0,square2,i,0.133,1,S,8.0
S8,24.0,55.0,53.0,60.0,50.0,53,1503.0,square2,i,0.005,1,S,8.0
S8,25.0,57.0,60.0,55.0,54.0,60,1563.0,square2,i,0.268,1,S,8.0
S8,26.0,62.0,66.0,57.0,58.0,62,1625.0,square1,r,0.146,0,S,8.0
S8,27.0,58.0,55.0,52.0,48.0,58,1683.0,square1,r,0.018,0,S,8.0
S8,28.0,53.0,59.0,53.0,55.0,53,1736.0,square1,r,0.213,0,S,8.0
S8,29.0,60.0,58.0,57.0,53.0,58,1794.0,square2,i,0.071,1,S,8.0
S8,30.0,57.0,67.0,52.0,56.0,57,1851.0,square1,r,0.289,0,S,8.0
S8,31.0,60.0,58.0,52.0,50.0,58,1909.0,square2,i,0.215,1,S,8.0
S8,32.0,54.0,61.0,56.0,57.0,56,1965.0,square3,f,0.184,2,S,8.0
S8,33.0,66.0,64.0,63.0,52.0,63,2028.0,square3,f,0.215,2,S,8.0
S8,34.0,54.0,65.0,66.0,56.0,66,2094.0,square3,f,0.25,2,S,8.0
S8,35.0,54.0,62.0,61.0,48.0,61,2155.0,square3,f,0.097,2,S,8.0
S8,36.0,53.0,63.0,54.0,55.0,54,2209.0,square3,f,0.056,2,S,8.0
S8,37.0,64.0,58.0,57.0,51.0,51,2260.0,square4,j,0.157,3,S,8.0
S8,38.0,68.0,65.0,59.0,57.0,65,2325.0,square2,i,0.001,1,S,8.0
S8,39.0,64.0,65.0,51.0,55.0,65,2390.0,square2,i,0.214,1,S,8.0
S8,40.0,63.0,61.0,57.0,47.0,61,2451.0,square2,i,0.096,1,S,8.0
S8,41.0,65.0,58.0,55.0,49.0,58,2509.0,square2,i,0.133,1,S,8.0
S8,42.0,52.0,60.0,51.0,56.0,51,2560.0,square3,f,0.147,2,S,8.0
S8,43.0,63.0,57.0,48.0,50.0,57,2617.0,square2,i,0.217,1,S,8.0
S8,44.0,59.0,63.0,53.0,53.0,59,2676.0,square1,r,0.129,0,S,8.0
S8,45.0,62.0,62.0,60.0,53.0,62,2738.0,square1,r,0.165,0,S,8.0
S8,46.0,56.0,62.0,57.0,60.0,56,2794.0,square1,r,0.23,0,S,8.0
S8,47.0,60.0,63.0,58.0,56.0,63,2857.0,square2,i,0.033,1,S,8.0
S8,48.0,59.0,63.0,49.0,53.0,63,2920.0,square2,i,0.133,1,S,8.0
S8,49.0,67.0,67.0,59.0,55.0,67,2987.0,square2,i,0.261,1,S,8.0
S5,0.0,90.0,70.0,79.0,84.0,84,84.0,square4,r,0.599,3,S,5.0
S5,1.0,92.0,77.0,83.0,81.0,81,165.0,square4,r,0.247,3,S,5.0
S5,2.0,83.0,72.0,81.0,76.0,83,248.0,square1,i,0.045,0,S,5.0
S5,3.0,87.0,72.0,79.0,81.0,87,335.0,square1,i,0.186,0,S,5.0
S5,4.0,86.0,81.0,78.0,72.0,86,421.0,square1,i,0.129,0,S,5.0
S5,5.0,89.0,70.0,79.0,83.0,89,510.0,square1,i,0.268,0,S,5.0
S5,6.0,86.0,69.0,81.0,81.0,81,591.0,square4,r,0.148,3,S,5.0
S5,7.0,82.0,72.0,86.0,80.0,82,673.0,square1,i,0.173,0,S,5.0
S5,8.0,84.0,67.0,80.0,77.0,84,757.0,square1,i,0.083,0,S,5.0
S5,9.0,92.0,80.0,86.0,84.0,80,837.0,square2,f,0.112,1,S,5.0
S5,10.0,82.0,71.0,80.0,80.0,80,917.0,square3,j,0.1,2,S,5.0
S5,11.0,80.0,75.0,79.0,75.0,79,996.0,square3,j,0.166,2,S,5.0
S5,12.0,84.0,75.0,80.0,82.0,84,1080.0,square1,i,0.177,0,S,5.0
S5,13.0,85.0,74.0,74.0,81.0,85,1165.0,square1,i,0.162,0,S,5.0
S5,14.0,81.0,79.0,85.0,81.0,79,1244.0,square2,f,0.164,1,S,5.0
S5,15.0,81.0,75.0,76.0,77.0,81,1325.0,square1,i,0.232,0,S,5.0
S5,16.0,86.0,74.0,78.0,74.0,86,1411.0,square1,i,0.006,0,S,5.0
S5,17.0,81.0,77.0,81.0,77.0,81,1492.0,square1,i,0.149,0,S,5.0
S5,18.0,87.0,70.0,84.0,82.0,82,1574.0,square4,r,0.062,3,S,5.0
S5,19.0,84.0,76.0,83.0,76.0,84,1658.0,square1,i,0.015,0,S,5.0
S5,20.0,79.0,78.0,82.0,76.0,76,1734.0,square4,r,0.415,3,S,5.0
S5,21.0,86.0,68.0,80.0,72.0,86,1820.0,square1,i,0.128,0,S,5.0
S5,22.0,93.0,80.0,85.0,84.0,93,1913.0,square1,i,0.099,0,S,5.0
S5,23.0,87.0,73.0,76.0,70.0,87,2000.0,square1,i,0.136,0,S,5.0
S5,24.0,85.0,69.0,81.0,78.0,85,2085.0,square1,i,0.013,0,S,5.0
S5,25.0,89.0,77.0,77.0,76.0,89,2174.0,square1,i,0.005,0,S,5.0
S5,26.0,84.0,71.0,81.0,75.0,84,2258.0,square1,i,0.0,0,S,5.0
S5,27.0,84.0,75.0,82.0,71.0,84,2342.0,square1,i,0.033,0,S,5.0
S5,28.0,83.0,72.0,82.0,78.0,83,2425.0,square1,i,0.098,0,S,5.0
S5,29.0,91.0,67.0,79.0,74.0,91,2516.0,square1,i,0.129,0,S,5.0
S5,30.0,82.0,69.0,81.0,77.0,82,2598.0,square1,i,0.187,0,S,5.0
S5,31.0,82.0,72.0,80.0,78.0,82,2680.0,square1,i,0.131,0,S,5.0
S5,32.0,83.0,73.0,91.0,80.0,83,2763.0,square1,i,0.122,0,S,5.0
S5,33.0,83.0,68.0,85.0,78.0,83,2846.0,square1,i,0.147,0,S,5.0
S5,34.0,89.0,79.0,83.0,77.0,89,2935.0,square1,i,0.0,0,S,5.0
S5,35.0,88.0,72.0,79.0,80.0,88,3023.0,square1,i,0.305,0,S,5.0
S5,36.0,90.0,74.0,84.0,76.0,90,3113.0,square1,i,0.297,0,S,5.0
S5,37.0,85.0,75.0,80.0,82.0,85,3198.0,square1,i,0.286,0,S,5.0
S5,38.0,78.0,74.0,85.0,79.0,78,3276.0,square1,i,0.23,0,S,5.0
S5,39.0,87.0,73.0,87.0,85.0,87,3363.0,square1,i,0.313,0,S,5.0
S5,40.0,83.0,67.0,81.0,80.0,80,3443.0,square4,r,0.462,3,S,5.0
S5,41.0,82.0,69.0,88.0,80.0,82,3525.0,square1,i,0.165,0,S,5.0
S5,42.0,85.0,78.0,91.0,80.0,85,3610.0,square1,i,0.093,0,S,5.0
S5,43.0,89.0,74.0,78.0,74.0,89,3699.0,square1,i,0.217,0,S,5.0
S5,44.0,90.0,74.0,77.0,85.0,90,3789.0,square1,i,0.18,0,S,5.0
S5,45.0,89.0,68.0,81.0,78.0,89,3878.0,square1,i,0.05,0,S,5.0
S5,46.0,86.0,70.0,86.0,68.0,86,3964.0,square1,i,0.002,0,S,5.0
S5,47.0,90.0,77.0,85.0,84.0,90,4054.0,square1,i,0.001,0,S,5.0
S5,48.0,76.0,66.0,82.0,79.0,76,4130.0,square1,i,0.217,0,S,5.0
S5,49.0,84.0,73.0,82.0,75.0,84,4214.0,square1,i,0.163,0,S,5.0
S2,0.0,62.0,57.0,71.0,74.0,71,71.0,square3,i,0.872,2,S,2.0
S2,1.0,64.0,59.0,72.0,67.0,64,135.0,square1,r,0.268,0,S,2.0
S2,2.0,68.0,57.0,75.0,68.0,75,210.0,square3,i,0.251,2,S,2.0
S2,3.0,69.0,57.0,80.0,70.0,70,280.0,square4,f,0.071,3,S,2.0
S2,4.0,66.0,60.0,74.0,68.0,74,354.0,square3,i,0.212,2,S,2.0
S2,5.0,63.0,62.0,77.0,72.0,62,416.0,square2,j,0.099,1,S,2.0
S2,6.0,69.0,61.0,75.0,74.0,75,491.0,square3,i,0.033,2,S,2.0
S2,7.0,74.0,66.0,79.0,72.0,79,570.0,square3,i,0.063,2,S,2.0
S2,8.0,81.0,65.0,76.0,72.0,76,646.0,square3,i,0.08,2,S,2.0
S2,9.0,70.0,66.0,78.0,70.0,78,724.0,square3,i,0.055,2,S,2.0
S2,10.0,70.0,72.0,70.0,74.0,70,794.0,square3,i,0.0,2,S,2.0
S2,11.0,64.0,66.0,72.0,67.0,72,866.0,square3,i,0.15,2,S,2.0
S2,12.0,66.0,57.0,70.0,67.0,70,936.0,square3,i,0.265,2,S,2.0
S2,13.0,68.0,68.0,71.0,73.0,71,1007.0,square3,i,0.3,2,S,2.0
S2,14.0,70.0,63.0,77.0,71.0,77,1084.0,square3,i,0.15,2,S,2.0
S2,15.0,64.0,66.0,75.0,66.0,75,1159.0,square3,i,0.102,2,S,2.0
S2,16.0,67.0,61.0,73.0,70.0,73,1232.0,square3,i,0.234,2,S,2.0
S2,17.0,65.0,58.0,71.0,75.0,71,1303.0,square3,i,0.199,2,S,2.0
S2,18.0,72.0,64.0,81.0,61.0,81,1384.0,square3,i,0.234,2,S,2.0
S2,19.0,60.0,63.0,72.0,65.0,72,1456.0,square3,i,0.114,2,S,2.0
S2,20.0,68.0,56.0,71.0,70.0,71,1527.0,square3,i,0.097,2,S,2.0
S2,21.0,65.0,65.0,74.0,71.0,74,1601.0,square3,i,0.004,2,S,2.0
S2,22.0,69.0,62.0,77.0,72.0,77,1678.0,square3,i,0.182,2,S,2.0
S2,23.0,64.0,71.0,74.0,65.0,74,1752.0,square3,i,0.195,2,S,2.0
S2,24.0,66.0,62.0,78.0,70.0,78,1830.0,square3,i,0.179,2,S,2.0
S2,25.0,67.0,69.0,76.0,66.0,76,1906.0,square3,i,0.203,2,S,2.0
S2,26.0,65.0,63.0,74.0,69.0,74,1980.0,square3,i,0.183,2,S,2.0
S2,27.0,68.0,64.0,67.0,68.0,67,2047.0,square3,i,0.013,2,S,2.0
S2,28.0,61.0,52.0,71.0,68.0,61,2108.0,square1,r,0.18,0,S,2.0
S2,29.0,67.0,64.0,73.0,69.0,73,2181.0,square3,i,0.102,2,S,2.0
S2,30.0,67.0,53.0,77.0,67.0,77,2258.0,square3,i,0.05,2,S,2.0
S2,31.0,67.0,69.0,69.0,68.0,68,2326.0,square4,f,0.286,3,S,2.0
S2,32.0,71.0,63.0,73.0,70.0,73,2399.0,square3,i,0.062,2,S,2.0
S2,33.0,61.0,65.0,68.0,71.0,68,2467.0,square3,i,0.364,2,S,2.0
S2,34.0,66.0,55.0,78.0,68.0,78,2545.0,square3,i,0.233,2,S,2.0
S2,35.0,60.0,57.0,66.0,66.0,66,2611.0,square4,f,0.232,3,S,2.0
S2,36.0,64.0,63.0,73.0,72.0,73,2684.0,square3,i,0.17,2,S,2.0
S2,37.0,65.0,62.0,75.0,68.0,75,2759.0,square3,i,0.154,2,S,2.0
S2,38.0,69.0,57.0,71.0,62.0,71,2830.0,square3,i,0.0,2,S,2.0
S2,39.0,72.0,66.0,74.0,74.0,74,2904.0,square3,i,0.01,2,S,2.0
S2,40.0,66.0,63.0,76.0,59.0,76,2980.0,square3,i,0.242,2,S,2.0
S2,41.0,74.0,64.0,67.0,76.0,67,3047.0,square3,i,0.215,2,S,2.0
S2,42.0,62.0,67.0,72.0,68.0,72,3119.0,square3,i,0.162,2,S,2.0
S2,43.0,69.0,63.0,75.0,71.0,75,3194.0,square3,i,0.117,2,S,2.0
S2,44.0,72.0,60.0,74.0,67.0,74,3268.0,square3,i,0.185,2,S,2.0
S2,45.0,69.0,63.0,76.0,73.0,76,3344.0,square3,i,0.133,2,S,2.0
S2,46.0,64.0,71.0,75.0,72.0,75,3419.0,square3,i,0.112,2,S,2.0
S2,47.0,75.0,62.0,75.0,69.0,75,3494.0,square3,i,0.105,2,S,2.0
S2,48.0,66.0,65.0,74.0,68.0,74,3568.0,square3,i,0.139,2,S,2.0
S2,49.0,67.0,64.0,72.0,76.0,72,3640.0,square3,i,0.162,2,S,2.0
S7,0.0,68.0,73.0,62.0,57.0,68,68.0,square1,i,1.443,0,S,7.0
S7,1.0,74.0,67.0,66.0,59.0,74,142.0,square1,i,0.101,0,S,7.0
S7,2.0,68.0,69.0,65.0,60.0,68,210.0,square1,i,0.122,0,S,7.0
S7,3.0,74.0,68.0,65.0,63.0,74,284.0,square1,i,0.313,0,S,7.0
S7,4.0,68.0,74.0,67.0,63.0,63,347.0,square4,r,0.235,3,S,7.0
S7,5.0,68.0,67.0,61.0,57.0,61,408.0,square3,j,0.119,2,S,7.0
S7,6.0,72.0,64.0,65.0,51.0,64,472.0,square2,f,0.977,1,S,7.0
S7,7.0,69.0,63.0,69.0,63.0,69,541.0,square1,i,0.013,0,S,7.0
S7,8.0,71.0,68.0,63.0,54.0,71,612.0,square1,i,0.077,0,S,7.0
S7,9.0,81.0,66.0,68.0,62.0,81,693.0,square1,i,0.182,0,S,7.0
S7,10.0,72.0,73.0,68.0,61.0,72,765.0,square1,i,0.163,0,S,7.0
S7,11.0,72.0,72.0,62.0,58.0,72,837.0,square1,i,0.329,0,S,7.0
S7,12.0,66.0,66.0,62.0,61.0,66,903.0,square1,i,0.132,0,S,7.0
S7,13.0,73.0,75.0,75.0,68.0,73,976.0,square1,i,0.183,0,S,7.0
S7,14.0,71.0,73.0,72.0,66.0,66,1042.0,square4,r,0.081,3,S,7.0
S7,15.0,75.0,68.0,68.0,65.0,75,1117.0,square1,i,0.079,0,S,7.0
S7,16.0,67.0,65.0,62.0,56.0,67,1184.0,square1,i,0.109,0,S,7.0
S7,17.0,72.0,67.0,63.0,64.0,64,1248.0,square4,r,0.28,3,S,7.0
S7,18.0,73.0,69.0,66.0,65.0,73,1321.0,square1,i,0.134,0,S,7.0
S7,19.0,75.0,70.0,62.0,58.0,75,1396.0,square1,i,0.075,0,S,7.0
S7,20.0,76.0,63.0,67.0,62.0,76,1472.0,square1,i,0.032,0,S,7.0
S7,21.0,79.0,76.0,63.0,64.0,79,1551.0,square1,i,0.35,0,S,7.0
S7,22.0,67.0,72.0,63.0,62.0,67,1618.0,square1,i,0.096,0,S,7.0
S7,23.0,69.0,71.0,70.0,62.0,69,1687.0,square1,i,0.112,0,S,7.0
S7,24.0,74.0,67.0,70.0,62.0,74,1761.0,square1,i,0.213,0,S,7.0
S7,25.0,70.0,67.0,72.0,62.0,70,1831.0,square1,i,0.132,0,S,7.0
S7,26.0,72.0,62.0,74.0,65.0,72,1903.0,square1,i,0.208,0,S,7.0
S7,27.0,69.0,70.0,68.0,62.0,69,1972.0,square1,i,0.25,0,S,7.0
S7,28.0,65.0,66.0,60.0,62.0,65,2037.0,square1,i,0.146,0,S,7.0
S7,29.0,70.0,64.0,60.0,68.0,70,2107.0,square1,i,0.164,0,S,7.0
S7,30.0,69.0,69.0,64.0,57.0,69,2176.0,square1,i,0.131,0,S,7.0
S7,31.0,77.0,67.0,65.0,60.0,77,2253.0,square1,i,0.132,0,S,7.0
S7,32.0,67.0,75.0,65.0,58.0,67,2320.0,square1,i,0.212,0,S,7.0
S7,33.0,74.0,66.0,66.0,60.0,74,2394.0,square1,i,0.117,0,S,7.0
S7,34.0,72.0,72.0,66.0,61.0,72,2466.0,square1,i,0.067,0,S,7.0
S7,35.0,67.0,68.0,64.0,62.0,67,2533.0,square1,i,0.216,0,S,7.0
S7,36.0,64.0,63.0,70.0,58.0,64,2597.0,square1,i,0.299,0,S,7.0
S7,37.0,80.0,72.0,64.0,53.0,80,2677.0,square1,i,0.0,0,S,7.0
S7,38.0,78.0,69.0,76.0,67.0,78,2755.0,square1,i,0.065,0,S,7.0
S7,39.0,69.0,66.0,60.0,67.0,69,2824.0,square1,i,0.33,0,S,7.0
S7,40.0,72.0,71.0,63.0,66.0,66,2890.0,square4,r,0.004,3,S,7.0
S7,41.0,80.0,73.0,65.0,63.0,80,2970.0,square1,i,0.131,0,S,7.0
S7,42.0,77.0,60.0,65.0,59.0,60,3030.0,square2,f,0.217,1,S,7.0
S7,43.0,70.0,72.0,70.0,63.0,70,3100.0,square1,i,0.0,0,S,7.0
S7,44.0,77.0,70.0,66.0,58.0,77,3177.0,square1,i,0.049,0,S,7.0
S7,45.0,75.0,69.0,73.0,58.0,75,3252.0,square1,i,0.0,0,S,7.0
S7,46.0,74.0,71.0,63.0,63.0,74,3326.0,square1,i,0.245,0,S,7.0
S7,47.0,73.0,75.0,71.0,64.0,73,3399.0,square1,i,0.016,0,S,7.0
S7,48.0,78.0,79.0,64.0,58.0,78,3477.0,square1,i,0.016,0,S,7.0
S7,49.0,75.0,72.0,66.0,72.0,75,3552.0,square1,i,0.0,0,S,7.0
S9,0.0,36.0,36.0,32.0,32.0,36,36.0,square2,i,0.639,1,S,9.0
S9,1.0,40.0,29.0,36.0,24.0,40,76.0,square1,r,0.7,0,S,9.0
S9,2.0,31.0,43.0,22.0,29.0,22,98.0,square3,f,0.216,2,S,9.0
S9,3.0,41.0,33.0,28.0,27.0,27,125.0,square4,j,0.465,3,S,9.0
S9,4.0,34.0,29.0,32.0,31.0,34,159.0,square1,r,0.103,0,S,9.0
S9,5.0,41.0,32.0,22.0,29.0,32,191.0,square2,i,0.04,1,S,9.0
S9,6.0,44.0,30.0,21.0,28.0,44,235.0,square1,r,0.08,0,S,9.0
S9,7.0,39.0,37.0,26.0,24.0,37,272.0,square2,i,0.147,1,S,9.0
S9,8.0,41.0,33.0,23.0,20.0,33,305.0,square2,i,0.38,1,S,9.0
S9,9.0,30.0,35.0,24.0,27.0,30,335.0,square1,r,0.074,0,S,9.0
S9,10.0,41.0,29.0,23.0,28.0,41,376.0,square1,r,0.097,0,S,9.0
S9,11.0,37.0,38.0,22.0,33.0,38,414.0,square2,i,0.001,1,S,9.0
S9,12.0,35.0,31.0,27.0,32.0,35,449.0,square1,r,0.098,0,S,9.0
S9,13.0,38.0,37.0,30.0,29.0,37,486.0,square2,i,0.031,1,S,9.0
S9,14.0,36.0,38.0,30.0,37.0,36,522.0,square1,r,0.052,0,S,9.0
S9,15.0,40.0,29.0,27.0,24.0,29,551.0,square2,i,0.238,1,S,9.0
S9,16.0,33.0,37.0,29.0,28.0,33,584.0,square1,r,0.219,0,S,9.0
S9,17.0,41.0,32.0,36.0,31.0,41,625.0,square1,r,0.039,0,S,9.0
S9,18.0,39.0,26.0,16.0,35.0,26,651.0,square2,i,0.081,1,S,9.0
S9,19.0,35.0,30.0,23.0,27.0,35,686.0,square1,r,0.119,0,S,9.0
S9,20.0,39.0,34.0,23.0,29.0,39,725.0,square1,r,0.066,0,S,9.0
S9,21.0,35.0,37.0,28.0,31.0,35,760.0,square1,r,0.166,0,S,9.0
S9,22.0,37.0,30.0,23.0,38.0,37,797.0,square1,r,0.449,0,S,9.0
S9,23.0,37.0,34.0,27.0,34.0,27,824.0,square3,f,0.167,2,S,9.0
S9,24.0,31.0,34.0,26.0,27.0,31,855.0,square1,r,0.053,0,S,9.0
S9,25.0,38.0,40.0,29.0,24.0,38,893.0,square1,r,0.048,0,S,9.0
S9,26.0,43.0,31.0,21.0,24.0,43,936.0,square1,r,0.046,0,S,9.0
S9,27.0,30.0,31.0,23.0,28.0,30,966.0,square1,r,0.062,0,S,9.0
S9,28.0,44.0,32.0,31.0,32.0,32,998.0,square2,i,0.099,1,S,9.0
S9,29.0,36.0,38.0,22.0,22.0,36,1034.0,square1,r,0.039,0,S,9.0
S9,30.0,41.0,30.0,26.0,29.0,41,1075.0,square1,r,0.131,0,S,9.0
S9,31.0,39.0,37.0,30.0,32.0,39,1114.0,square1,r,0.067,0,S,9.0
S9,32.0,35.0,39.0,28.0,31.0,39,1153.0,square2,i,0.085,1,S,9.0
S9,33.0,37.0,39.0,29.0,32.0,39,1192.0,square2,i,0.3,1,S,9.0
S9,34.0,46.0,33.0,21.0,25.0,46,1238.0,square1,r,0.059,0,S,9.0
S9,35.0,38.0,33.0,28.0,28.0,38,1276.0,square1,r,0.082,0,S,9.0
S9,36.0,40.0,37.0,21.0,32.0,40,1316.0,square1,r,0.141,0,S,9.0
S9,37.0,38.0,43.0,23.0,37.0,38,1354.0,square1,r,0.066,0,S,9.0
S9,38.0,36.0,31.0,29.0,29.0,36,1390.0,square1,r,0.085,0,S,9.0
S9,39.0,41.0,29.0,26.0,28.0,41,1431.0,square1,r,0.2,0,S,9.0
S9,40.0,32.0,36.0,26.0,28.0,32,1463.0,square1,r,0.183,0,S,9.0
S9,41.0,40.0,37.0,35.0,28.0,40,1503.0,square1,r,0.182,0,S,9.0
S9,42.0,43.0,32.0,26.0,37.0,43,1546.0,square1,r,0.154,0,S,9.0
S9,43.0,40.0,31.0,23.0,31.0,40,1586.0,square1,r,0.152,0,S,9.0
S9,44.0,42.0,38.0,24.0,40.0,42,1628.0,square1,r,0.017,0,S,9.0
S9,45.0,36.0,35.0,30.0,33.0,36,1664.0,square1,r,0.029,0,S,9.0
S9,46.0,38.0,30.0,33.0,26.0,38,1702.0,square1,r,0.017,0,S,9.0
S9,47.0,39.0,37.0,25.0,26.0,39,1741.0,square1,r,0.001,0,S,9.0
S9,48.0,36.0,35.0,26.0,27.0,36,1777.0,square1,r,0.187,0,S,9.0
S9,49.0,40.0,32.0,24.0,28.0,40,1817.0,square1,r,0.665,0,S,9.0
S4,0.0,18.0,16.0,34.0,20.0,16,16.0,square2,r,0.973,1,S,4.0
S4,1.0,33.0,26.0,26.0,23.0,26,42.0,square3,i,0.054,2,S,4.0
S4,2.0,35.0,15.0,33.0,22.0,22,64.0,square4,f,0.297,3,S,4.0
S4,3.0,28.0,19.0,27.0,27.0,28,92.0,square1,j,0.686,0,S,4.0
S4,4.0,27.0,16.0,25.0,28.0,25,117.0,square3,i,0.206,2,S,4.0
S4,5.0,23.0,22.0,31.0,24.0,23,140.0,square1,j,0.011,0,S,4.0
S4,6.0,25.0,20.0,34.0,23.0,34,174.0,square3,i,0.451,2,S,4.0
S4,7.0,21.0,22.0,30.0,21.0,30,204.0,square3,i,0.383,2,S,4.0
S4,8.0,33.0,24.0,33.0,17.0,33,237.0,square1,j,0.171,0,S,4.0
S4,9.0,24.0,18.0,31.0,28.0,24,261.0,square1,j,0.381,0,S,4.0
S4,10.0,31.0,26.0,35.0,20.0,35,296.0,square3,i,0.235,2,S,4.0
S4,11.0,25.0,15.0,31.0,25.0,31,327.0,square3,i,0.068,2,S,4.0
S4,12.0,24.0,16.0,29.0,22.0,24,351.0,square1,j,0.169,0,S,4.0
S4,13.0,28.0,23.0,25.0,17.0,25,376.0,square3,i,0.022,2,S,4.0
S4,14.0,22.0,23.0,21.0,23.0,21,397.0,square3,i,0.098,2,S,4.0
S4,15.0,25.0,19.0,28.0,25.0,28,425.0,square3,i,0.486,2,S,4.0
S4,16.0,26.0,17.0,30.0,21.0,26,451.0,square1,j,0.295,0,S,4.0
S4,17.0,22.0,21.0,29.0,22.0,22,473.0,square1,j,0.198,0,S,4.0
S4,18.0,28.0,22.0,32.0,22.0,22,495.0,square4,f,0.797,3,S,4.0
S4,19.0,26.0,19.0,31.0,26.0,19,514.0,square2,r,0.516,1,S,4.0
S4,20.0,28.0,18.0,28.0,25.0,28,542.0,square3,i,0.168,2,S,4.0
S4,21.0,33.0,26.0,21.0,29.0,21,563.0,square3,i,0.151,2,S,4.0
S4,22.0,31.0,19.0,29.0,20.0,31,594.0,square1,j,0.096,0,S,4.0
S4,23.0,27.0,21.0,36.0,26.0,27,621.0,square1,j,0.153,0,S,4.0
S4,24.0,28.0,15.0,32.0,21.0,32,653.0,square3,i,0.218,2,S,4.0
S4,25.0,27.0,18.0,28.0,25.0,27,680.0,square1,j,0.222,0,S,4.0
S4,26.0,26.0,20.0,27.0,14.0,27,707.0,square3,i,0.132,2,S,4.0
S4,27.0,28.0,19.0,36.0,18.0,36,743.0,square3,i,0.081,2,S,4.0
S4,28.0,28.0,19.0,28.0,23.0,28,771.0,square3,i,0.066,2,S,4.0
S4,29.0,25.0,22.0,29.0,23.0,29,800.0,square3,i,0.001,2,S,4.0
S4,30.0,26.0,16.0,30.0,20.0,30,830.0,square3,i,0.159,2,S,4.0
S4,31.0,23.0,25.0,26.0,30.0,26,856.0,square3,i,0.182,2,S,4.0
S4,32.0,21.0,26.0,22.0,23.0,22,878.0,square3,i,0.146,2,S,4.0
S4,33.0,25.0,22.0,24.0,17.0,24,902.0,square3,i,0.071,2,S,4.0
S4,34.0,30.0,22.0,33.0,24.0,33,935.0,square3,i,0.055,2,S,4.0
S4,35.0,23.0,21.0,35.0,26.0,35,970.0,square3,i,0.082,2,S,4.0
S4,36.0,19.0,21.0,33.0,24.0,33,1003.0,square3,i,0.022,2,S,4.0
S4,37.0,20.0,17.0,26.0,26.0,26,1029.0,square3,i,0.165,2,S,4.0
S4,38.0,28.0,20.0,28.0,26.0,28,1057.0,square3,i,0.148,2,S,4.0
S4,39.0,28.0,23.0,40.0,27.0,28,1085.0,square1,j,0.154,0,S,4.0
S4,40.0,25.0,24.0,32.0,22.0,25,1110.0,square1,j,0.229,0,S,4.0
S4,41.0,23.0,23.0,26.0,17.0,26,1136.0,square3,i,0.179,2,S,4.0
S4,42.0,26.0,18.0,33.0,22.0,33,1169.0,square3,i,0.032,2,S,4.0
S4,43.0,22.0,21.0,36.0,25.0,36,1205.0,square3,i,0.066,2,S,4.0
S4,44.0,21.0,18.0,33.0,14.0,33,1238.0,square3,i,0.031,2,S,4.0
S4,45.0,29.0,19.0,30.0,29.0,30,1268.0,square3,i,0.114,2,S,4.0
S4,46.0,21.0,16.0,22.0,23.0,22,1290.0,square3,i,0.262,2,S,4.0
S4,47.0,22.0,18.0,28.0,22.0,28,1318.0,square3,i,0.037,2,S,4.0
S4,48.0,33.0,21.0,32.0,26.0,32,1350.0,square3,i,0.252,2,S,4.0
S4,49.0,23.0,17.0,20.0,21.0,20,1370.0,square3,i,0.084,2,S,4.0
