block,Trial,square1,square2,square3,square4,currPoints,totalPoints,square,choiceKey.keys,choiceKey.rt,armNum,blockType,blockNum
prac,0.0,100.0,0.0,0.0,0.0,99999,0.0,invalid,,,-1,p,0.0
prac,1.0,100.0,0.0,0.0,0.0,0,0.0,square4,,,3,p,0.0
prac,2.0,100.0,0.0,0.0,0.0,100,100.0,square1,,,0,p,0.0
prac,3.0,100.0,0.0,0.0,0.0,0,100.0,square2,,,1,p,0.0
prac,4.0,100.0,0.0,0.0,0.0,0,100.0,square3,,,2,p,0.0
prac,5.0,100.0,0.0,0.0,0.0,100,200.0,square1,,,0,p,0.0
prac,6.0,100.0,0.0,0.0,0.0,100,300.0,square1,,,0,p,0.0
prac,7.0,100.0,0.0,0.0,0.0,0,300.0,square2,,,1,p,0.0
prac,8.0,100.0,0.0,0.0,0.0,0,300.0,square4,,,3,p,0.0
prac,9.0,100.0,0.0,0.0,0.0,100,400.0,square1,,,0,p,0.0
S8,0.0,58.0,60.0,52.0,45.0,99999,0.0,invalid,,,-1,S,8.0
S8,1.0,55.0,57.0,56.0,52.0,52,52.0,square4,r,0.3778,3,S,8.0
S8,2.0,54.0,58.0,58.0,49.0,58,110.0,square3,i,0.9432,2,S,8.0
S8,3.0,55.0,62.0,52.0,53.0,62,172.0,square2,f,0.4096,1,S,8.0
S8,4.0,55.0,60.0,49.0,51.0,55,227.0,square1,j,0.4504,0,S,8.0
S8,5.0,48.0,63.0,61.0,49.0,63,290.0,square2,f,0.3313,1,S,8.0
S8,6.0,58.0,63.0,59.0,55.0,63,353.0,square2,f,0.5281,1,S,8.0
S8,7.0,56.0,53.0,49.0,51.0,53,406.0,square2,f,0.363,1,S,8.0
S8,8.0,61.0,63.0,66.0,49.0,63,469.0,square2,f,0.1934,1,S,8.0
S8,9.0,60.0,59.0,53.0,47.0,59,528.0,square2,f,0.6249,1,S,8.0
S8,10.0,55.0,63.0,52.0,55.0,52,580.0,square3,i,0.4604,2,S,8.0
S8,11.0,62.0,60.0,54.0,50.0,50,630.0,square4,r,0.3925,3,S,8.0
S8,12.0,58.0,64.0,51.0,52.0,58,688.0,square1,j,0.5764,0,S,8.0
S8,13.0,62.0,59.0,53.0,53.0,59,747.0,square2,f,0.3439,1,S,8.0
S8,14.0,51.0,62.0,61.0,54.0,62,809.0,square2,f,0.3323,1,S,8.0
S8,15.0,56.0,68.0,56.0,50.0,68,877.0,square2,f,0.1452,1,S,8.0
S8,16.0,58.0,64.0,56.0,50.0,64,941.0,square2,f,0.039,1,S,8.0
S8,17.0,64.0,63.0,60.0,42.0,63,1004.0,square2,f,0.5995,1,S,8.0
S8,18.0,54.0,64.0,57.0,55.0,64,1068.0,square2,f,0.0758,1,S,8.0
S8,19.0,56.0,53.0,57.0,53.0,56,1124.0,square1,j,0.4433,0,S,8.0
S8,20.0,59.0,64.0,56.0,49.0,56,1180.0,square3,i,0.0608,2,S,8.0
S8,21.0,54.0,59.0,55.0,48.0,48,1228.0,square4,r,0.644,3,S,8.0
S8,22.0,63.0,63.0,59.0,49.0,63,1291.0,square2,f,0.1671,1,S,8.0
S8,23.0,59.0,60.0,48.0,52.0,60,1351.0,square2,f,0.1734,1,S,8.0
S8,24.0,55.0,53.0,60.0,50.0,53,1404.0,square2,f,0.1259,1,S,8.0
S8,25.0,57.0,60.0,55.0,54.0,60,1464.0,square2,f,0.0773,1,S,8.0
S8,26.0,62.0,66.0,57.0,58.0,66,1530.0,square2,f,0.5272,1,S,8.0
S8,27.0,58.0,55.0,52.0,48.0,55,1585.0,square2,f,0.3598,1,S,8.0
S8,28.0,53.0,59.0,53.0,55.0,59,1644.0,square2,f,0.0266,1,S,8.0
S8,29.0,60.0,58.0,57.0,53.0,58,1702.0,square2,f,0.1939,1,S,8.0
S8,30.0,57.0,67.0,52.0,56.0,67,1769.0,square2,f,0.0727,1,S,8.0
S8,31.0,60.0,58.0,52.0,50.0,58,1827.0,square2,f,0.1458,1,S,8.0
S8,32.0,54.0,61.0,56.0,57.0,61,1888.0,square2,f,0.0603,1,S,8.0
S8,33.0,66.0,64.0,63.0,52.0,64,1952.0,square2,f,0.1603,1,S,8.0
S8,34.0,54.0,65.0,66.0,56.0,65,2017.0,square2,f,0.0637,1,S,8.0
S8,35.0,54.0,62.0,61.0,48.0,62,2079.0,square2,f,0.0615,1,S,8.0
S8,36.0,53.0,63.0,54.0,55.0,63,2142.0,square2,f,1.7434,1,S,8.0
S8,37.0,64.0,58.0,57.0,51.0,64,2206.0,square1,j,1.2115,0,S,8.0
S8,38.0,68.0,65.0,59.0,57.0,65,2271.0,square2,f,0.3118,1,S,8.0
S8,39.0,64.0,65.0,51.0,55.0,64,2335.0,square1,j,0.1768,0,S,8.0
S8,40.0,63.0,61.0,57.0,47.0,61,2396.0,square2,f,0.295,1,S,8.0
S8,41.0,65.0,58.0,55.0,49.0,65,2461.0,square1,j,0.1595,0,S,8.0
S8,42.0,52.0,60.0,51.0,56.0,52,2513.0,square1,j,0.3656,0,S,8.0
S8,43.0,63.0,57.0,48.0,50.0,50,2563.0,square4,r,1.1596,3,S,8.0
S8,44.0,59.0,63.0,53.0,53.0,53,2616.0,square3,i,0.3075,2,S,8.0
S8,45.0,62.0,62.0,60.0,53.0,62,2678.0,square2,f,0.411,1,S,8.0
S8,46.0,56.0,62.0,57.0,60.0,56,2734.0,square1,j,0.2668,0,S,8.0
S8,47.0,60.0,63.0,58.0,56.0,63,2797.0,square2,f,0.1073,1,S,8.0
S8,48.0,59.0,63.0,49.0,53.0,63,2860.0,square2,f,0.2602,1,S,8.0
S8,49.0,67.0,67.0,59.0,55.0,67,2927.0,square2,f,0.2919,1,S,8.0
S6,0.0,40.0,29.0,39.0,26.0,40,40.0,square1,r,1.5528,0,S,6.0
S6,1.0,34.0,40.0,31.0,25.0,31,71.0,square3,f,0.2979,2,S,6.0
S6,2.0,37.0,31.0,25.0,30.0,30,101.0,square4,i,0.5608,3,S,6.0
S6,3.0,39.0,37.0,30.0,27.0,37,138.0,square2,j,0.2762,1,S,6.0
S6,4.0,42.0,40.0,28.0,32.0,42,180.0,square1,r,0.2266,0,S,6.0
S6,5.0,35.0,35.0,39.0,29.0,35,215.0,square1,r,0.2554,0,S,6.0
S6,6.0,48.0,30.0,37.0,33.0,30,245.0,square2,j,0.1857,1,S,6.0
S6,7.0,47.0,34.0,31.0,29.0,47,292.0,square1,r,0.6072,0,S,6.0
S6,8.0,43.0,35.0,30.0,25.0,43,335.0,square1,r,0.144,0,S,6.0
S6,9.0,36.0,38.0,35.0,35.0,36,371.0,square1,r,0.2982,0,S,6.0
S6,10.0,38.0,35.0,31.0,21.0,38,409.0,square1,r,0.0938,0,S,6.0
S6,11.0,30.0,36.0,31.0,20.0,31,440.0,square3,f,0.3495,2,S,6.0
S6,12.0,37.0,40.0,33.0,22.0,22,462.0,square4,i,0.3466,3,S,6.0
S6,13.0,32.0,41.0,35.0,29.0,41,503.0,square2,j,0.1936,1,S,6.0
S6,14.0,41.0,29.0,30.0,32.0,29,532.0,square2,j,0.3658,1,S,6.0
S6,15.0,43.0,37.0,31.0,27.0,43,575.0,square1,r,0.11,0,S,6.0
S6,16.0,34.0,34.0,35.0,31.0,34,609.0,square1,r,0.1119,0,S,6.0
S6,17.0,47.0,40.0,29.0,28.0,47,656.0,square1,r,0.0104,0,S,6.0
S6,18.0,37.0,38.0,34.0,35.0,37,693.0,square1,r,0.3268,0,S,6.0
S6,19.0,36.0,39.0,31.0,26.0,36,729.0,square1,r,0.1325,0,S,6.0
S6,20.0,44.0,40.0,31.0,25.0,44,773.0,square1,r,0.1232,0,S,6.0
S6,21.0,39.0,41.0,35.0,24.0,39,812.0,square1,r,0.044,0,S,6.0
S6,22.0,41.0,38.0,41.0,31.0,41,853.0,square1,r,0.1275,0,S,6.0
S6,23.0,37.0,31.0,30.0,32.0,37,890.0,square1,r,0.1437,0,S,6.0
S6,24.0,48.0,34.0,34.0,21.0,48,938.0,square1,r,0.1399,0,S,6.0
S6,25.0,42.0,45.0,26.0,29.0,42,980.0,square1,r,0.1634,0,S,6.0
S6,26.0,40.0,39.0,36.0,28.0,40,1020.0,square1,r,0.0005,0,S,6.0
S6,27.0,42.0,33.0,29.0,29.0,42,1062.0,square1,r,0.0063,0,S,6.0
S6,28.0,41.0,30.0,29.0,29.0,41,1103.0,square1,r,0.312,0,S,6.0
S6,29.0,42.0,40.0,32.0,27.0,42,1145.0,square1,r,0.193,0,S,6.0
S6,30.0,42.0,36.0,30.0,26.0,42,1187.0,square1,r,0.3294,0,S,6.0
S6,31.0,42.0,34.0,35.0,29.0,42,1229.0,square1,r,0.3941,0,S,6.0
S6,32.0,35.0,36.0,31.0,23.0,35,1264.0,square1,r,0.1113,0,S,6.0
S6,33.0,35.0,31.0,35.0,30.0,35,1299.0,square1,r,0.1268,0,S,6.0
S6,34.0,40.0,38.0,31.0,27.0,40,1339.0,square1,r,0.0932,0,S,6.0
S6,35.0,42.0,37.0,34.0,34.0,42,1381.0,square1,r,0.027,0,S,6.0
S6,36.0,37.0,46.0,31.0,34.0,37,1418.0,square1,r,0.1762,0,S,6.0
S6,37.0,38.0,40.0,30.0,26.0,38,1456.0,square1,r,0.0938,0,S,6.0
S6,38.0,36.0,34.0,31.0,33.0,36,1492.0,square1,r,0.0768,0,S,6.0
S6,39.0,44.0,37.0,33.0,31.0,44,1536.0,square1,r,0.0276,0,S,6.0
S6,40.0,40.0,38.0,31.0,25.0,40,1576.0,square1,r,0.1272,0,S,6.0
S6,41.0,49.0,35.0,35.0,28.0,49,1625.0,square1,r,0.0767,0,S,6.0
S6,42.0,44.0,40.0,32.0,28.0,44,1669.0,square1,r,0.0938,0,S,6.0
S6,43.0,43.0,36.0,33.0,26.0,43,1712.0,square1,r,0.0615,0,S,6.0
S6,44.0,38.0,33.0,34.0,26.0,38,1750.0,square1,r,0.3449,0,S,6.0
S6,45.0,32.0,35.0,30.0,28.0,32,1782.0,square1,r,0.2248,0,S,6.0
S6,46.0,38.0,36.0,34.0,30.0,38,1820.0,square1,r,0.146,0,S,6.0
S6,47.0,44.0,35.0,32.0,31.0,44,1864.0,square1,r,0.0837,0,S,6.0
S6,48.0,40.0,40.0,31.0,33.0,40,1904.0,square1,r,0.11,0,S,6.0
S6,49.0,41.0,29.0,29.0,29.0,41,1945.0,square1,r,0.1116,0,S,6.0
S11,0.0,49.0,53.0,49.0,45.0,99999,0.0,invalid,,,-1,S,11.0
S11,1.0,54.0,56.0,42.0,50.0,56,56.0,square2,i,0.4127,1,S,11.0
S11,2.0,39.0,51.0,39.0,43.0,99999,56.0,invalid,,,-1,S,11.0
S11,3.0,53.0,50.0,38.0,43.0,38,94.0,square3,r,0.5957,2,S,11.0
S11,4.0,47.0,54.0,39.0,48.0,48,142.0,square4,f,0.2493,3,S,11.0
S11,5.0,47.0,52.0,40.0,46.0,47,189.0,square1,j,0.1115,0,S,11.0
S11,6.0,47.0,46.0,44.0,54.0,46,235.0,square2,i,0.2316,1,S,11.0
S11,7.0,48.0,51.0,35.0,51.0,51,286.0,square2,i,0.0805,1,S,11.0
S11,8.0,52.0,49.0,36.0,43.0,49,335.0,square2,i,0.177,1,S,11.0
S11,9.0,47.0,53.0,41.0,55.0,53,388.0,square2,i,0.3957,1,S,11.0
S11,10.0,44.0,48.0,41.0,43.0,48,436.0,square2,i,0.0327,1,S,11.0
S11,11.0,41.0,54.0,38.0,43.0,54,490.0,square2,i,0.041,1,S,11.0
S11,12.0,45.0,54.0,44.0,45.0,54,544.0,square2,i,0.0933,1,S,11.0
S11,13.0,54.0,52.0,44.0,50.0,52,596.0,square2,i,0.0428,1,S,11.0
S11,14.0,57.0,58.0,36.0,45.0,58,654.0,square2,i,0.0462,1,S,11.0
S11,15.0,48.0,54.0,43.0,49.0,54,708.0,square2,i,0.1112,1,S,11.0
S11,16.0,58.0,47.0,42.0,46.0,47,755.0,square2,i,0.1937,1,S,11.0
S11,17.0,41.0,61.0,42.0,53.0,61,816.0,square2,i,0.043,1,S,11.0
S11,18.0,51.0,58.0,33.0,39.0,58,874.0,square2,i,0.0444,1,S,11.0
S11,19.0,48.0,49.0,37.0,42.0,49,923.0,square2,i,0.0252,1,S,11.0
S11,20.0,52.0,52.0,45.0,46.0,52,975.0,square2,i,0.3762,1,S,11.0
S11,21.0,47.0,53.0,44.0,51.0,53,1028.0,square2,i,0.1099,1,S,11.0
S11,22.0,49.0,54.0,37.0,41.0,54,1082.0,square2,i,0.3951,1,S,11.0
S11,23.0,52.0,54.0,41.0,45.0,54,1136.0,square2,i,0.0643,1,S,11.0
S11,24.0,42.0,56.0,41.0,45.0,56,1192.0,square2,i,0.0269,1,S,11.0
S11,25.0,52.0,56.0,42.0,44.0,56,1248.0,square2,i,0.0432,1,S,11.0
S11,26.0,43.0,56.0,41.0,45.0,56,1304.0,square2,i,0.1438,1,S,11.0
S11,27.0,48.0,50.0,40.0,43.0,50,1354.0,square2,i,0.0491,1,S,11.0
S11,28.0,46.0,49.0,38.0,48.0,49,1403.0,square2,i,0.1278,1,S,11.0
S11,29.0,46.0,55.0,40.0,42.0,55,1458.0,square2,i,0.6834,1,S,11.0
S11,30.0,46.0,56.0,43.0,37.0,56,1514.0,square2,i,0.3443,1,S,11.0
S11,31.0,42.0,49.0,44.0,42.0,49,1563.0,square2,i,0.1237,1,S,11.0
S11,32.0,51.0,52.0,36.0,40.0,52,1615.0,square2,i,0.0758,1,S,11.0
S11,33.0,44.0,53.0,39.0,43.0,53,1668.0,square2,i,0.1613,1,S,11.0
S11,34.0,52.0,52.0,43.0,49.0,52,1720.0,square2,i,0.0438,1,S,11.0
S11,35.0,53.0,51.0,38.0,45.0,51,1771.0,square2,i,0.3265,1,S,11.0
S11,36.0,50.0,44.0,42.0,48.0,44,1815.0,square2,i,0.5834,1,S,11.0
S11,37.0,49.0,51.0,40.0,48.0,51,1866.0,square2,i,0.0624,1,S,11.0
S11,38.0,47.0,47.0,39.0,38.0,47,1913.0,square2,i,0.3765,1,S,11.0
S11,39.0,51.0,55.0,40.0,42.0,55,1968.0,square2,i,0.0271,1,S,11.0
S11,40.0,50.0,52.0,41.0,44.0,52,2020.0,square2,i,0.2804,1,S,11.0
S11,41.0,47.0,50.0,46.0,50.0,50,2070.0,square2,i,0.1538,1,S,11.0
S11,42.0,52.0,48.0,41.0,47.0,48,2118.0,square2,i,0.0005,1,S,11.0
S11,43.0,50.0,56.0,34.0,42.0,56,2174.0,square2,i,0.0006,1,S,11.0
S11,44.0,42.0,48.0,37.0,49.0,48,2222.0,square2,i,0.1606,1,S,11.0
S11,45.0,47.0,47.0,41.0,40.0,47,2269.0,square2,i,0.0808,1,S,11.0
S11,46.0,50.0,56.0,40.0,44.0,56,2325.0,square2,i,0.1067,1,S,11.0
S11,47.0,46.0,48.0,38.0,47.0,48,2373.0,square2,i,0.1305,1,S,11.0
S11,48.0,45.0,54.0,44.0,41.0,54,2427.0,square2,i,0.0937,1,S,11.0
S11,49.0,44.0,53.0,41.0,41.0,53,2480.0,square2,i,0.8167,1,S,11.0
S1,0.0,72.0,58.0,70.0,66.0,66,66.0,square4,r,0.9576,3,S,1.0
S1,1.0,75.0,64.0,66.0,69.0,64,130.0,square2,f,0.2295,1,S,1.0
S1,2.0,75.0,62.0,62.0,79.0,75,205.0,square1,i,0.1165,0,S,1.0
S1,3.0,68.0,62.0,63.0,69.0,63,268.0,square3,j,0.1434,2,S,1.0
S1,4.0,82.0,63.0,64.0,73.0,82,350.0,square1,i,0.0964,0,S,1.0
S1,5.0,66.0,70.0,65.0,73.0,66,416.0,square1,i,0.0648,0,S,1.0
S1,6.0,73.0,65.0,62.0,65.0,73,489.0,square1,i,0.045,0,S,1.0
S1,7.0,70.0,61.0,65.0,66.0,70,559.0,square1,i,0.0034,0,S,1.0
S1,8.0,78.0,63.0,67.0,68.0,78,637.0,square1,i,0.0005,0,S,1.0
S1,9.0,74.0,67.0,66.0,68.0,74,711.0,square1,i,0.0942,0,S,1.0
S1,10.0,73.0,59.0,68.0,68.0,73,784.0,square1,i,0.0891,0,S,1.0
S1,11.0,76.0,65.0,62.0,81.0,76,860.0,square1,i,0.144,0,S,1.0
S1,12.0,77.0,66.0,69.0,63.0,77,937.0,square1,i,0.0558,0,S,1.0
S1,13.0,75.0,63.0,68.0,73.0,75,1012.0,square1,i,0.143,0,S,1.0
S1,14.0,67.0,60.0,67.0,69.0,67,1079.0,square1,i,0.1838,0,S,1.0
S1,15.0,70.0,63.0,69.0,73.0,70,1149.0,square1,i,0.0004,0,S,1.0
S1,16.0,69.0,61.0,69.0,69.0,69,1218.0,square1,i,0.211,0,S,1.0
S1,17.0,73.0,68.0,67.0,73.0,73,1291.0,square1,i,0.0271,0,S,1.0
S1,18.0,70.0,58.0,73.0,66.0,70,1361.0,square1,i,0.0004,0,S,1.0
S1,19.0,75.0,58.0,62.0,68.0,75,1436.0,square1,i,0.1393,0,S,1.0
S1,20.0,76.0,58.0,72.0,67.0,76,1512.0,square1,i,0.0958,0,S,1.0
S1,21.0,69.0,66.0,66.0,67.0,69,1581.0,square1,i,0.0297,0,S,1.0
S1,22.0,70.0,68.0,65.0,65.0,70,1651.0,square1,i,0.0004,0,S,1.0
S1,23.0,71.0,60.0,64.0,64.0,71,1722.0,square1,i,0.1098,0,S,1.0
S1,24.0,70.0,72.0,62.0,67.0,70,1792.0,square1,i,0.1649,0,S,1.0
S1,25.0,68.0,60.0,70.0,65.0,68,1860.0,square1,i,0.1531,0,S,1.0
S1,26.0,76.0,64.0,72.0,69.0,76,1936.0,square1,i,0.1126,0,S,1.0
S1,27.0,71.0,56.0,70.0,65.0,71,2007.0,square1,i,0.0772,0,S,1.0
S1,28.0,67.0,67.0,71.0,76.0,67,2074.0,square1,i,0.0731,0,S,1.0
S1,29.0,78.0,64.0,64.0,74.0,78,2152.0,square1,i,0.1751,0,S,1.0
S1,30.0,74.0,63.0,65.0,71.0,74,2226.0,square1,i,0.1774,0,S,1.0
S1,31.0,78.0,58.0,69.0,69.0,78,2304.0,square1,i,0.2139,0,S,1.0
S1,32.0,71.0,67.0,68.0,60.0,71,2375.0,square1,i,0.1975,0,S,1.0
S1,33.0,68.0,63.0,65.0,73.0,68,2443.0,square1,i,0.0325,0,S,1.0
S1,34.0,71.0,62.0,74.0,73.0,71,2514.0,square1,i,0.0929,0,S,1.0
S1,35.0,75.0,59.0,67.0,77.0,75,2589.0,square1,i,0.1615,0,S,1.0
S1,36.0,77.0,60.0,66.0,67.0,77,2666.0,square1,i,0.047,0,S,1.0
S1,37.0,69.0,60.0,69.0,75.0,69,2735.0,square1,i,0.0434,0,S,1.0
S1,38.0,77.0,64.0,62.0,70.0,77,2812.0,square1,i,0.2445,0,S,1.0
S1,39.0,72.0,66.0,69.0,65.0,72,2884.0,square1,i,0.01,0,S,1.0
S1,40.0,69.0,63.0,66.0,69.0,69,2953.0,square1,i,0.0604,0,S,1.0
S1,41.0,72.0,62.0,70.0,70.0,72,3025.0,square1,i,0.2607,0,S,1.0
S1,42.0,78.0,60.0,63.0,62.0,78,3103.0,square1,i,0.047,0,S,1.0
S1,43.0,71.0,62.0,67.0,73.0,71,3174.0,square1,i,0.1608,0,S,1.0
S1,44.0,75.0,63.0,69.0,73.0,75,3249.0,square1,i,0.1971,0,S,1.0
S1,45.0,66.0,60.0,68.0,73.0,66,3315.0,square1,i,0.1315,0,S,1.0
S1,46.0,74.0,67.0,69.0,71.0,74,3389.0,square1,i,0.0792,0,S,1.0
S1,47.0,71.0,66.0,68.0,70.0,71,3460.0,square1,i,0.0608,0,S,1.0
S1,48.0,72.0,75.0,71.0,77.0,72,3532.0,square1,i,0.0777,0,S,1.0
S1,49.0,65.0,57.0,66.0,75.0,65,3597.0,square1,i,0.2101,0,S,1.0
S2,0.0,62.0,57.0,71.0,74.0,62,62.0,square1,r,0.5894,0,S,2.0
S2,1.0,64.0,59.0,72.0,67.0,67,129.0,square4,f,0.0668,3,S,2.0
S2,2.0,68.0,57.0,75.0,68.0,57,186.0,square2,j,0.5279,1,S,2.0
S2,3.0,69.0,57.0,80.0,70.0,70,256.0,square4,f,0.0441,3,S,2.0
S2,4.0,66.0,60.0,74.0,68.0,68,324.0,square4,f,0.1099,3,S,2.0
S2,5.0,63.0,62.0,77.0,72.0,72,396.0,square4,f,0.1777,3,S,2.0
S2,6.0,69.0,61.0,75.0,74.0,74,470.0,square4,f,0.1136,3,S,2.0
S2,7.0,74.0,66.0,79.0,72.0,72,542.0,square4,f,0.0934,3,S,2.0
S2,8.0,81.0,65.0,76.0,72.0,72,614.0,square4,f,0.1283,3,S,2.0
S2,9.0,70.0,66.0,78.0,70.0,70,684.0,square4,f,0.044,3,S,2.0
S2,10.0,70.0,72.0,70.0,74.0,74,758.0,square4,f,0.0049,3,S,2.0
S2,11.0,64.0,66.0,72.0,67.0,67,825.0,square4,f,0.0004,3,S,2.0
S2,12.0,66.0,57.0,70.0,67.0,67,892.0,square4,f,0.0951,3,S,2.0
S2,13.0,68.0,68.0,71.0,73.0,73,965.0,square4,f,0.0766,3,S,2.0
S2,14.0,70.0,63.0,77.0,71.0,71,1036.0,square4,f,0.0139,3,S,2.0
S2,15.0,64.0,66.0,75.0,66.0,66,1102.0,square4,f,0.1276,3,S,2.0
S2,16.0,67.0,61.0,73.0,70.0,70,1172.0,square4,f,0.0937,3,S,2.0
S2,17.0,65.0,58.0,71.0,75.0,75,1247.0,square4,f,0.0437,3,S,2.0
S2,18.0,72.0,64.0,81.0,61.0,61,1308.0,square4,f,0.2618,3,S,2.0
S2,19.0,60.0,63.0,72.0,65.0,65,1373.0,square4,f,0.0464,3,S,2.0
S2,20.0,68.0,56.0,71.0,70.0,70,1443.0,square4,f,0.0606,3,S,2.0
S2,21.0,65.0,65.0,74.0,71.0,71,1514.0,square4,f,0.0598,3,S,2.0
S2,22.0,69.0,62.0,77.0,72.0,72,1586.0,square4,f,0.1102,3,S,2.0
S2,23.0,64.0,71.0,74.0,65.0,65,1651.0,square4,f,0.057,3,S,2.0
S2,24.0,66.0,62.0,78.0,70.0,70,1721.0,square4,f,0.0437,3,S,2.0
S2,25.0,67.0,69.0,76.0,66.0,66,1787.0,square4,f,0.1744,3,S,2.0
S2,26.0,65.0,63.0,74.0,69.0,69,1856.0,square4,f,0.0608,3,S,2.0
S2,27.0,68.0,64.0,67.0,68.0,68,1924.0,square4,f,0.046,3,S,2.0
S2,28.0,61.0,52.0,71.0,68.0,68,1992.0,square4,f,0.0803,3,S,2.0
S2,29.0,67.0,64.0,73.0,69.0,69,2061.0,square4,f,0.1236,3,S,2.0
S2,30.0,67.0,53.0,77.0,67.0,67,2128.0,square4,f,0.006,3,S,2.0
S2,31.0,67.0,69.0,69.0,68.0,68,2196.0,square4,f,0.1763,3,S,2.0
S2,32.0,71.0,63.0,73.0,70.0,70,2266.0,square4,f,0.2483,3,S,2.0
S2,33.0,61.0,65.0,68.0,71.0,71,2337.0,square4,f,0.4428,3,S,2.0
S2,34.0,66.0,55.0,78.0,68.0,68,2405.0,square4,f,0.4951,3,S,2.0
S2,35.0,60.0,57.0,66.0,66.0,66,2471.0,square4,f,0.1106,3,S,2.0
S2,36.0,64.0,63.0,73.0,72.0,72,2543.0,square4,f,0.1157,3,S,2.0
S2,37.0,65.0,62.0,75.0,68.0,68,2611.0,square4,f,0.1935,3,S,2.0
S2,38.0,69.0,57.0,71.0,62.0,62,2673.0,square4,f,0.3323,3,S,2.0
S2,39.0,72.0,66.0,74.0,74.0,74,2747.0,square4,f,0.058,3,S,2.0
S2,40.0,66.0,63.0,76.0,59.0,59,2806.0,square4,f,0.2458,3,S,2.0
S2,41.0,74.0,64.0,67.0,76.0,76,2882.0,square4,f,0.3267,3,S,2.0
S2,42.0,62.0,67.0,72.0,68.0,68,2950.0,square4,f,0.0775,3,S,2.0
S2,43.0,69.0,63.0,75.0,71.0,71,3021.0,square4,f,0.2141,3,S,2.0
S2,44.0,72.0,60.0,74.0,67.0,67,3088.0,square4,f,0.1555,3,S,2.0
S2,45.0,69.0,63.0,76.0,73.0,73,3161.0,square4,f,0.0905,3,S,2.0
S2,46.0,64.0,71.0,75.0,72.0,72,3233.0,square4,f,0.161,3,S,2.0
S2,47.0,75.0,62.0,75.0,69.0,69,3302.0,square4,f,0.1443,3,S,2.0
S2,48.0,66.0,65.0,74.0,68.0,68,3370.0,square4,f,0.1443,3,S,2.0
S2,49.0,67.0,64.0,72.0,76.0,76,3446.0,square4,f,0.15,3,S,2.0
S10,0.0,72.0,76.0,80.0,64.0,76,76.0,square2,r,0.5411,1,S,10.0
S10,1.0,76.0,75.0,74.0,65.0,76,152.0,square1,i,0.1413,0,S,10.0
S10,2.0,70.0,72.0,79.0,74.0,74,226.0,square4,j,0.3436,3,S,10.0
S10,3.0,69.0,77.0,76.0,68.0,77,303.0,square2,r,0.4103,1,S,10.0
S10,4.0,72.0,79.0,77.0,70.0,72,375.0,square1,i,0.2644,0,S,10.0
S10,5.0,68.0,74.0,72.0,64.0,74,449.0,square2,r,0.0269,1,S,10.0
S10,6.0,70.0,77.0,72.0,62.0,77,526.0,square2,r,0.1467,1,S,10.0
S10,7.0,78.0,81.0,80.0,74.0,81,607.0,square2,r,0.1107,1,S,10.0
S10,8.0,78.0,78.0,82.0,66.0,78,685.0,square2,r,0.1272,1,S,10.0
S10,9.0,69.0,76.0,77.0,65.0,76,761.0,square2,r,0.095,1,S,10.0
S10,10.0,72.0,78.0,72.0,75.0,78,839.0,square2,r,0.1768,1,S,10.0
S10,11.0,71.0,76.0,78.0,66.0,76,915.0,square2,r,0.1464,1,S,10.0
S10,12.0,73.0,83.0,79.0,69.0,83,998.0,square2,r,0.1287,1,S,10.0
S10,13.0,68.0,77.0,65.0,65.0,77,1075.0,square2,r,0.0475,1,S,10.0
S10,14.0,69.0,84.0,79.0,65.0,84,1159.0,square2,r,0.0442,1,S,10.0
S10,15.0,72.0,84.0,70.0,71.0,84,1243.0,square2,r,0.0338,1,S,10.0
S10,16.0,79.0,80.0,82.0,67.0,80,1323.0,square2,r,0.0456,1,S,10.0
S10,17.0,69.0,83.0,75.0,70.0,83,1406.0,square2,r,0.0093,1,S,10.0
S10,18.0,69.0,75.0,69.0,68.0,75,1481.0,square2,r,0.0729,1,S,10.0
S10,19.0,70.0,83.0,73.0,66.0,83,1564.0,square2,r,0.0119,1,S,10.0
S10,20.0,69.0,83.0,75.0,66.0,83,1647.0,square2,r,0.0293,1,S,10.0
S10,21.0,77.0,70.0,75.0,70.0,70,1717.0,square2,r,0.0062,1,S,10.0
S10,22.0,73.0,77.0,81.0,69.0,77,1794.0,square2,r,0.1951,1,S,10.0
S10,23.0,73.0,78.0,70.0,65.0,78,1872.0,square2,r,0.1105,1,S,10.0
S10,24.0,70.0,80.0,75.0,66.0,80,1952.0,square2,r,0.0607,1,S,10.0
S10,25.0,70.0,80.0,73.0,72.0,80,2032.0,square2,r,0.0771,1,S,10.0
S10,26.0,73.0,75.0,73.0,75.0,75,2107.0,square2,r,0.0607,1,S,10.0
S10,27.0,77.0,81.0,83.0,66.0,81,2188.0,square2,r,0.0776,1,S,10.0
S10,28.0,73.0,79.0,79.0,73.0,79,2267.0,square2,r,0.043,1,S,10.0
S10,29.0,73.0,79.0,72.0,69.0,79,2346.0,square2,r,0.0282,1,S,10.0
S10,30.0,71.0,85.0,79.0,69.0,85,2431.0,square2,r,0.0006,1,S,10.0
S10,31.0,71.0,85.0,83.0,66.0,85,2516.0,square2,r,0.0056,1,S,10.0
S10,32.0,78.0,79.0,77.0,65.0,79,2595.0,square2,r,0.0436,1,S,10.0
S10,33.0,83.0,79.0,72.0,68.0,79,2674.0,square2,r,0.0605,1,S,10.0
S10,34.0,68.0,74.0,79.0,72.0,74,2748.0,square2,r,0.1238,1,S,10.0
S10,35.0,70.0,83.0,79.0,67.0,83,2831.0,square2,r,0.2306,1,S,10.0
S10,36.0,67.0,76.0,75.0,72.0,76,2907.0,square2,r,0.0004,1,S,10.0
S10,37.0,76.0,82.0,79.0,60.0,82,2989.0,square2,r,0.0445,1,S,10.0
S10,38.0,72.0,75.0,69.0,68.0,75,3064.0,square2,r,0.5066,1,S,10.0
S10,39.0,73.0,78.0,76.0,70.0,78,3142.0,square2,r,0.0162,1,S,10.0
S10,40.0,76.0,77.0,66.0,60.0,77,3219.0,square2,r,0.0283,1,S,10.0
S10,41.0,74.0,83.0,73.0,67.0,83,3302.0,square2,r,0.109,1,S,10.0
S10,42.0,72.0,69.0,80.0,63.0,69,3371.0,square2,r,0.0908,1,S,10.0
S10,43.0,69.0,74.0,72.0,68.0,74,3445.0,square2,r,0.148,1,S,10.0
S10,44.0,67.0,76.0,70.0,65.0,76,3521.0,square2,r,0.3107,1,S,10.0
S10,45.0,76.0,81.0,74.0,72.0,81,3602.0,square2,r,0.1608,1,S,10.0
S10,46.0,76.0,79.0,76.0,66.0,79,3681.0,square2,r,0.0297,1,S,10.0
S10,47.0,67.0,81.0,84.0,60.0,81,3762.0,square2,r,0.0223,1,S,10.0
S10,48.0,73.0,83.0,75.0,66.0,83,3845.0,square2,r,0.0436,1,S,10.0
S10,49.0,66.0,77.0,74.0,71.0,77,3922.0,square2,r,0.2562,1,S,10.0
V9,0.0,20.0,29.0,37.0,45.0,37,37.0,square3,i,0.8243,2,V,9.0
V9,1.0,21.0,32.0,39.0,45.0,32,69.0,square2,j,1.361,1,V,9.0
V9,2.0,16.0,27.0,41.0,48.0,27,96.0,square2,j,0.144,1,V,9.0
V9,3.0,20.0,30.0,42.0,50.0,30,126.0,square2,j,1.0282,1,V,9.0
V9,4.0,22.0,34.0,37.0,47.0,22,148.0,square1,r,0.0124,0,V,9.0
V9,5.0,17.0,32.0,38.0,49.0,49,197.0,square4,f,0.0049,3,V,9.0
V9,6.0,17.0,25.0,39.0,47.0,47,244.0,square4,f,0.1945,3,V,9.0
V9,7.0,22.0,28.0,33.0,48.0,48,292.0,square4,f,0.0766,3,V,9.0
V9,8.0,20.0,24.0,34.0,41.0,41,333.0,square4,f,0.1268,3,V,9.0
V9,9.0,20.0,33.0,30.0,51.0,51,384.0,square4,f,0.1827,3,V,9.0
V9,10.0,21.0,35.0,38.0,50.0,50,434.0,square4,f,0.2111,3,V,9.0
V9,11.0,19.0,29.0,44.0,45.0,45,479.0,square4,f,0.1422,3,V,9.0
V9,12.0,27.0,24.0,38.0,54.0,54,533.0,square4,f,0.0658,3,V,9.0
V9,13.0,15.0,26.0,37.0,50.0,50,583.0,square4,f,0.0222,3,V,9.0
V9,14.0,24.0,26.0,39.0,42.0,42,625.0,square4,f,0.0431,3,V,9.0
V9,15.0,26.0,27.0,43.0,49.0,49,674.0,square4,f,0.1447,3,V,9.0
V9,16.0,19.0,30.0,42.0,49.0,49,723.0,square4,f,0.1457,3,V,9.0
V9,17.0,21.0,30.0,34.0,49.0,49,772.0,square4,f,0.1944,3,V,9.0
V9,18.0,25.0,33.0,41.0,51.0,51,823.0,square4,f,0.0147,3,V,9.0
V9,19.0,17.0,31.0,41.0,45.0,41,864.0,square3,i,0.1006,2,V,9.0
V9,20.0,19.0,31.0,34.0,49.0,34,898.0,square3,i,0.3272,2,V,9.0
V9,21.0,23.0,29.0,37.0,48.0,29,927.0,square2,j,0.0435,1,V,9.0
V9,22.0,15.0,32.0,36.0,48.0,48,975.0,square4,f,0.1247,3,V,9.0
V9,23.0,25.0,33.0,39.0,47.0,47,1022.0,square4,f,0.2084,3,V,9.0
V9,24.0,21.0,30.0,38.0,52.0,52,1074.0,square4,f,0.0105,3,V,9.0
V9,25.0,25.0,29.0,42.0,48.0,48,1122.0,square4,f,0.0005,3,V,9.0
V9,26.0,22.0,29.0,39.0,47.0,47,1169.0,square4,f,0.1489,3,V,9.0
V9,27.0,17.0,31.0,45.0,41.0,41,1210.0,square4,f,0.1776,3,V,9.0
V9,28.0,29.0,28.0,43.0,43.0,43,1253.0,square4,f,0.1614,3,V,9.0
V9,29.0,20.0,31.0,43.0,49.0,49,1302.0,square4,f,0.0004,3,V,9.0
V9,30.0,23.0,33.0,39.0,48.0,48,1350.0,square4,f,0.0552,3,V,9.0
V9,31.0,20.0,27.0,38.0,53.0,53,1403.0,square4,f,0.0064,3,V,9.0
V9,32.0,23.0,29.0,37.0,49.0,49,1452.0,square4,f,0.0005,3,V,9.0
V9,33.0,24.0,33.0,37.0,49.0,49,1501.0,square4,f,0.0266,3,V,9.0
V9,34.0,43.0,58.0,48.0,30.0,30,1531.0,square4,f,0.0938,3,V,9.0
V9,35.0,48.0,59.0,45.0,34.0,34,1565.0,square4,f,0.1909,3,V,9.0
V9,36.0,39.0,56.0,54.0,32.0,32,1597.0,square4,f,0.0627,3,V,9.0
V9,37.0,40.0,57.0,50.0,35.0,35,1632.0,square4,f,0.0437,3,V,9.0
V9,38.0,49.0,62.0,51.0,33.0,33,1665.0,square4,f,0.0437,3,V,9.0
V9,39.0,45.0,61.0,48.0,34.0,34,1699.0,square4,f,0.0604,3,V,9.0
V9,40.0,40.0,65.0,51.0,29.0,29,1728.0,square4,f,0.0004,3,V,9.0
V9,41.0,44.0,57.0,50.0,38.0,44,1772.0,square1,r,0.744,0,V,9.0
V9,42.0,40.0,57.0,49.0,33.0,40,1812.0,square1,r,0.0005,0,V,9.0
V9,43.0,42.0,64.0,54.0,35.0,42,1854.0,square1,r,0.1661,0,V,9.0
V9,44.0,44.0,55.0,49.0,39.0,44,1898.0,square1,r,0.1439,0,V,9.0
V9,45.0,37.0,66.0,51.0,35.0,37,1935.0,square1,r,0.2074,0,V,9.0
V9,46.0,40.0,59.0,51.0,32.0,40,1975.0,square1,r,0.0033,0,V,9.0
V9,47.0,38.0,62.0,57.0,31.0,38,2013.0,square1,r,0.1943,0,V,9.0
V9,48.0,43.0,61.0,54.0,34.0,43,2056.0,square1,r,0.1427,0,V,9.0
V9,49.0,43.0,61.0,49.0,40.0,43,2099.0,square1,r,0.0276,0,V,9.0
V9,50.0,37.0,58.0,51.0,32.0,37,2136.0,square1,r,0.2115,0,V,9.0
V9,51.0,44.0,63.0,48.0,39.0,48,2184.0,square3,i,0.6453,2,V,9.0
V9,52.0,35.0,65.0,48.0,30.0,48,2232.0,square3,i,0.1751,2,V,9.0
V9,53.0,43.0,59.0,48.0,39.0,48,2280.0,square3,i,0.1607,2,V,9.0
V9,54.0,43.0,59.0,52.0,30.0,52,2332.0,square3,i,0.0004,2,V,9.0
V9,55.0,41.0,58.0,51.0,34.0,51,2383.0,square3,i,0.0775,2,V,9.0
V9,56.0,44.0,63.0,50.0,33.0,50,2433.0,square3,i,0.0774,2,V,9.0
V9,57.0,42.0,60.0,49.0,32.0,49,2482.0,square3,i,0.1432,2,V,9.0
V9,58.0,44.0,62.0,57.0,30.0,57,2539.0,square3,i,0.0004,2,V,9.0
V9,59.0,45.0,61.0,45.0,31.0,45,2584.0,square3,i,0.0004,2,V,9.0
V9,60.0,43.0,63.0,53.0,33.0,53,2637.0,square3,i,0.018,2,V,9.0
V9,61.0,39.0,56.0,55.0,31.0,55,2692.0,square3,i,0.0432,2,V,9.0
V9,62.0,39.0,61.0,50.0,34.0,50,2742.0,square3,i,0.0465,2,V,9.0
V9,63.0,44.0,57.0,48.0,36.0,48,2790.0,square3,i,0.0036,2,V,9.0
V9,64.0,40.0,60.0,58.0,35.0,58,2848.0,square3,i,0.0291,2,V,9.0
V9,65.0,42.0,60.0,54.0,38.0,54,2902.0,square3,i,0.1126,2,V,9.0
V9,66.0,41.0,60.0,54.0,37.0,54,2956.0,square3,i,0.0773,2,V,9.0
V9,67.0,43.0,61.0,54.0,40.0,54,3010.0,square3,i,0.0287,2,V,9.0
V9,68.0,45.0,40.0,26.0,18.0,26,3036.0,square3,i,0.196,2,V,9.0
V9,69.0,50.0,41.0,29.0,20.0,41,3077.0,square2,j,0.0159,1,V,9.0
V9,70.0,43.0,36.0,27.0,15.0,36,3113.0,square2,j,0.1803,1,V,9.0
V9,71.0,44.0,40.0,28.0,18.0,40,3153.0,square2,j,0.007,1,V,9.0
V9,72.0,42.0,38.0,27.0,18.0,38,3191.0,square2,j,0.115,1,V,9.0
V9,73.0,46.0,33.0,25.0,19.0,46,3237.0,square1,r,0.1274,0,V,9.0
V9,74.0,47.0,40.0,28.0,20.0,47,3284.0,square1,r,0.1262,0,V,9.0
V9,75.0,39.0,39.0,27.0,25.0,39,3323.0,square1,r,0.0314,0,V,9.0
V9,76.0,50.0,31.0,29.0,23.0,50,3373.0,square1,r,0.0269,0,V,9.0
V9,77.0,44.0,37.0,28.0,13.0,44,3417.0,square1,r,0.0005,0,V,9.0
V9,78.0,43.0,36.0,23.0,17.0,43,3460.0,square1,r,0.0556,0,V,9.0
V9,79.0,42.0,36.0,28.0,24.0,42,3502.0,square1,r,0.0432,0,V,9.0
V9,80.0,47.0,35.0,30.0,14.0,47,3549.0,square1,r,0.0269,0,V,9.0
V9,81.0,46.0,33.0,29.0,18.0,46,3595.0,square1,r,0.1318,0,V,9.0
V9,82.0,46.0,35.0,28.0,18.0,46,3641.0,square1,r,0.0005,0,V,9.0
V9,83.0,47.0,41.0,32.0,15.0,15,3656.0,square4,f,0.0762,3,V,9.0
V9,84.0,45.0,38.0,31.0,18.0,45,3701.0,square1,r,0.1446,0,V,9.0
V9,85.0,42.0,35.0,30.0,21.0,42,3743.0,square1,r,0.0004,0,V,9.0
V9,86.0,49.0,39.0,23.0,18.0,49,3792.0,square1,r,0.0057,0,V,9.0
V9,87.0,49.0,39.0,27.0,16.0,49,3841.0,square1,r,0.1738,0,V,9.0
V9,88.0,45.0,38.0,25.0,14.0,45,3886.0,square1,r,0.1781,0,V,9.0
V9,89.0,45.0,32.0,28.0,19.0,45,3931.0,square1,r,0.0005,0,V,9.0
V9,90.0,44.0,35.0,29.0,20.0,44,3975.0,square1,r,0.2003,0,V,9.0
V9,91.0,42.0,38.0,32.0,16.0,42,4017.0,square1,r,0.0271,0,V,9.0
V9,92.0,45.0,36.0,23.0,20.0,45,4062.0,square1,r,0.0159,0,V,9.0
V9,93.0,45.0,35.0,26.0,18.0,45,4107.0,square1,r,0.0297,0,V,9.0
V9,94.0,44.0,37.0,27.0,13.0,44,4151.0,square1,r,0.0328,0,V,9.0
V9,95.0,46.0,36.0,25.0,20.0,46,4197.0,square1,r,0.1758,0,V,9.0
V9,96.0,43.0,39.0,27.0,16.0,43,4240.0,square1,r,0.3822,0,V,9.0
V9,97.0,48.0,39.0,30.0,16.0,48,4288.0,square1,r,0.061,0,V,9.0
V9,98.0,49.0,40.0,26.0,20.0,49,4337.0,square1,r,0.0564,0,V,9.0
V9,99.0,49.0,41.0,27.0,18.0,49,4386.0,square1,r,0.0598,0,V,9.0
V1,0.0,46.0,61.0,52.0,71.0,71,71.0,square4,j,0.4534,3,V,1.0
V1,1.0,45.0,63.0,54.0,78.0,54,125.0,square3,f,0.2453,2,V,1.0
V1,2.0,51.0,58.0,59.0,77.0,51,176.0,square1,i,0.0061,0,V,1.0
V1,3.0,53.0,65.0,56.0,75.0,65,241.0,square2,r,0.1935,1,V,1.0
V1,4.0,49.0,68.0,53.0,72.0,72,313.0,square4,j,0.0252,3,V,1.0
V1,5.0,47.0,70.0,59.0,76.0,76,389.0,square4,j,0.0055,3,V,1.0
V1,6.0,55.0,63.0,54.0,76.0,76,465.0,square4,j,0.0237,3,V,1.0
V1,7.0,47.0,67.0,55.0,74.0,74,539.0,square4,j,0.0769,3,V,1.0
V1,8.0,47.0,65.0,46.0,76.0,76,615.0,square4,j,0.1104,3,V,1.0
V1,9.0,46.0,68.0,59.0,78.0,78,693.0,square4,j,0.0768,3,V,1.0
V1,10.0,58.0,67.0,58.0,79.0,79,772.0,square4,j,0.1103,3,V,1.0
V1,11.0,44.0,61.0,54.0,72.0,72,844.0,square4,j,0.0774,3,V,1.0
V1,12.0,44.0,65.0,56.0,75.0,75,919.0,square4,j,0.0972,3,V,1.0
V1,13.0,47.0,63.0,53.0,73.0,73,992.0,square4,j,0.3937,3,V,1.0
V1,14.0,49.0,66.0,56.0,75.0,75,1067.0,square4,j,0.1259,3,V,1.0
V1,15.0,49.0,66.0,52.0,79.0,79,1146.0,square4,j,0.1607,3,V,1.0
V1,16.0,51.0,61.0,48.0,72.0,72,1218.0,square4,j,0.1274,3,V,1.0
V1,17.0,46.0,61.0,59.0,71.0,71,1289.0,square4,j,0.1603,3,V,1.0
V1,18.0,45.0,61.0,53.0,72.0,72,1361.0,square4,j,0.1911,3,V,1.0
V1,19.0,49.0,63.0,54.0,76.0,76,1437.0,square4,j,0.0039,3,V,1.0
V1,20.0,46.0,66.0,52.0,72.0,72,1509.0,square4,j,0.1398,3,V,1.0
V1,21.0,50.0,65.0,51.0,73.0,73,1582.0,square4,j,0.1785,3,V,1.0
V1,22.0,56.0,62.0,56.0,77.0,77,1659.0,square4,j,0.0246,3,V,1.0
V1,23.0,45.0,67.0,54.0,83.0,83,1742.0,square4,j,0.1619,3,V,1.0
V1,24.0,46.0,69.0,57.0,71.0,71,1813.0,square4,j,0.0108,3,V,1.0
V1,25.0,41.0,65.0,55.0,76.0,76,1889.0,square4,j,0.2261,3,V,1.0
V1,26.0,51.0,60.0,55.0,74.0,74,1963.0,square4,j,0.1787,3,V,1.0
V1,27.0,52.0,63.0,56.0,73.0,73,2036.0,square4,j,0.0181,3,V,1.0
V1,28.0,50.0,68.0,50.0,76.0,76,2112.0,square4,j,0.1622,3,V,1.0
V1,29.0,51.0,60.0,54.0,74.0,74,2186.0,square4,j,0.0279,3,V,1.0
V1,30.0,35.0,67.0,57.0,40.0,40,2226.0,square4,j,0.0109,3,V,1.0
V1,31.0,38.0,60.0,52.0,35.0,35,2261.0,square4,j,0.0607,3,V,1.0
V1,32.0,37.0,67.0,52.0,41.0,37,2298.0,square1,i,0.133,0,V,1.0
V1,33.0,37.0,62.0,53.0,42.0,62,2360.0,square2,r,0.3107,1,V,1.0
V1,34.0,35.0,58.0,54.0,43.0,54,2414.0,square3,f,0.4272,2,V,1.0
V1,35.0,40.0,60.0,50.0,44.0,60,2474.0,square2,r,0.0404,1,V,1.0
V1,36.0,39.0,66.0,50.0,39.0,66,2540.0,square2,r,0.1243,1,V,1.0
V1,37.0,32.0,59.0,54.0,38.0,59,2599.0,square2,r,0.1092,1,V,1.0
V1,38.0,32.0,64.0,50.0,39.0,64,2663.0,square2,r,0.1342,1,V,1.0
V1,39.0,37.0,60.0,45.0,40.0,60,2723.0,square2,r,0.1432,1,V,1.0
V1,40.0,35.0,61.0,54.0,43.0,61,2784.0,square2,r,0.1443,1,V,1.0
V1,41.0,33.0,62.0,49.0,42.0,62,2846.0,square2,r,0.1313,1,V,1.0
V1,42.0,31.0,70.0,52.0,42.0,70,2916.0,square2,r,0.0004,1,V,1.0
V1,43.0,37.0,59.0,48.0,41.0,59,2975.0,square2,r,0.1774,1,V,1.0
V1,44.0,39.0,63.0,53.0,44.0,63,3038.0,square2,r,0.0004,1,V,1.0
V1,45.0,37.0,62.0,48.0,41.0,62,3100.0,square2,r,0.1653,1,V,1.0
V1,46.0,34.0,65.0,52.0,39.0,65,3165.0,square2,r,0.0004,1,V,1.0
V1,47.0,42.0,59.0,52.0,43.0,59,3224.0,square2,r,0.13,1,V,1.0
V1,48.0,39.0,62.0,50.0,38.0,62,3286.0,square2,r,0.1786,1,V,1.0
V1,49.0,33.0,63.0,49.0,40.0,63,3349.0,square2,r,0.1736,1,V,1.0
V1,50.0,38.0,66.0,54.0,37.0,66,3415.0,square2,r,0.1221,1,V,1.0
V1,51.0,33.0,66.0,50.0,37.0,66,3481.0,square2,r,0.0566,1,V,1.0
V1,52.0,41.0,65.0,55.0,44.0,65,3546.0,square2,r,0.0269,1,V,1.0
V1,53.0,75.0,50.0,46.0,60.0,50,3596.0,square2,r,0.0767,1,V,1.0
V1,54.0,74.0,53.0,45.0,61.0,53,3649.0,square2,r,0.0495,1,V,1.0
V1,55.0,74.0,54.0,43.0,65.0,54,3703.0,square2,r,0.1136,1,V,1.0
V1,56.0,73.0,54.0,44.0,56.0,54,3757.0,square2,r,0.1322,1,V,1.0
V1,57.0,67.0,58.0,52.0,63.0,99999,3757.0,invalid,,,-1,V,1.0
V1,58.0,72.0,51.0,43.0,62.0,72,3829.0,square1,i,0.1621,0,V,1.0
V1,59.0,68.0,47.0,49.0,56.0,68,3897.0,square1,i,1.8942,0,V,1.0
V1,60.0,72.0,55.0,46.0,65.0,72,3969.0,square1,i,0.1103,0,V,1.0
V1,61.0,76.0,50.0,46.0,62.0,76,4045.0,square1,i,0.0936,0,V,1.0
V1,62.0,77.0,58.0,46.0,66.0,77,4122.0,square1,i,0.1274,0,V,1.0
V1,63.0,72.0,53.0,48.0,66.0,72,4194.0,square1,i,0.1099,0,V,1.0
V1,64.0,70.0,49.0,49.0,60.0,70,4264.0,square1,i,0.1266,0,V,1.0
V1,65.0,68.0,49.0,46.0,66.0,68,4332.0,square1,i,0.19,0,V,1.0
V1,66.0,77.0,52.0,41.0,64.0,77,4409.0,square1,i,0.2011,0,V,1.0
V1,67.0,74.0,56.0,42.0,69.0,74,4483.0,square1,i,0.8107,0,V,1.0
V1,68.0,77.0,50.0,46.0,68.0,77,4560.0,square1,i,0.0775,0,V,1.0
V1,69.0,76.0,48.0,45.0,63.0,76,4636.0,square1,i,0.0613,0,V,1.0
V1,70.0,71.0,53.0,50.0,65.0,71,4707.0,square1,i,0.1142,0,V,1.0
V1,71.0,70.0,56.0,44.0,59.0,70,4777.0,square1,i,0.0937,0,V,1.0
V1,72.0,74.0,54.0,55.0,61.0,74,4851.0,square1,i,0.0972,0,V,1.0
V1,73.0,73.0,53.0,47.0,61.0,73,4924.0,square1,i,0.166,0,V,1.0
V1,74.0,71.0,53.0,51.0,65.0,71,4995.0,square1,i,0.3234,0,V,1.0
V1,75.0,72.0,51.0,48.0,64.0,72,5067.0,square1,i,0.1569,0,V,1.0
V1,76.0,72.0,53.0,49.0,62.0,72,5139.0,square1,i,0.0988,0,V,1.0
V1,77.0,62.0,76.0,64.0,86.0,62,5201.0,square1,i,1.8771,0,V,1.0
V1,78.0,61.0,74.0,63.0,87.0,61,5262.0,square1,i,0.1773,0,V,1.0
V1,79.0,56.0,78.0,67.0,89.0,56,5318.0,square1,i,0.2272,0,V,1.0
V1,80.0,59.0,75.0,63.0,84.0,59,5377.0,square1,i,0.0774,0,V,1.0
V1,81.0,63.0,74.0,68.0,82.0,63,5440.0,square1,i,0.7434,0,V,1.0
V1,82.0,59.0,75.0,67.0,80.0,67,5507.0,square3,f,0.3604,2,V,1.0
V1,83.0,58.0,77.0,63.0,82.0,63,5570.0,square3,f,0.1952,2,V,1.0
V1,84.0,57.0,76.0,64.0,87.0,64,5634.0,square3,f,0.0439,2,V,1.0
V1,85.0,61.0,73.0,66.0,83.0,66,5700.0,square3,f,0.127,2,V,1.0
V1,86.0,60.0,71.0,66.0,85.0,85,5785.0,square4,j,0.2923,3,V,1.0
V1,87.0,61.0,80.0,73.0,84.0,84,5869.0,square4,j,0.1105,3,V,1.0
V1,88.0,67.0,77.0,67.0,85.0,85,5954.0,square4,j,0.059,3,V,1.0
V1,89.0,60.0,79.0,63.0,86.0,86,6040.0,square4,j,0.0776,3,V,1.0
V1,90.0,60.0,74.0,66.0,88.0,88,6128.0,square4,j,0.16,3,V,1.0
V1,91.0,57.0,81.0,61.0,79.0,79,6207.0,square4,j,0.1114,3,V,1.0
V1,92.0,61.0,78.0,61.0,84.0,84,6291.0,square4,j,0.0979,3,V,1.0
V1,93.0,64.0,72.0,69.0,83.0,83,6374.0,square4,j,0.1408,3,V,1.0
V1,94.0,64.0,73.0,68.0,83.0,83,6457.0,square4,j,0.1568,3,V,1.0
V1,95.0,61.0,69.0,68.0,87.0,87,6544.0,square4,j,0.1562,3,V,1.0
V1,96.0,55.0,77.0,65.0,88.0,88,6632.0,square4,j,0.18,3,V,1.0
V1,97.0,61.0,75.0,63.0,82.0,75,6707.0,square2,r,0.1097,1,V,1.0
V1,98.0,59.0,71.0,66.0,82.0,82,6789.0,square4,j,0.1228,3,V,1.0
V1,99.0,61.0,69.0,67.0,84.0,84,6873.0,square4,j,0.1059,3,V,1.0
V10,0.0,28.0,21.0,37.0,46.0,28,28.0,square1,j,0.4716,0,V,10.0
V10,1.0,26.0,19.0,41.0,49.0,41,69.0,square3,i,0.2225,2,V,10.0
V10,2.0,29.0,20.0,43.0,48.0,48,117.0,square4,r,1.2768,3,V,10.0
V10,3.0,27.0,27.0,37.0,44.0,27,144.0,square2,f,0.107,1,V,10.0
V10,4.0,28.0,16.0,36.0,47.0,47,191.0,square4,r,0.047,3,V,10.0
V10,5.0,33.0,25.0,42.0,54.0,54,245.0,square4,r,0.1576,3,V,10.0
V10,6.0,28.0,19.0,35.0,45.0,45,290.0,square4,r,0.2073,3,V,10.0
V10,7.0,30.0,24.0,35.0,49.0,49,339.0,square4,r,0.0952,3,V,10.0
V10,8.0,37.0,29.0,41.0,47.0,47,386.0,square4,r,0.0934,3,V,10.0
V10,9.0,28.0,21.0,41.0,48.0,48,434.0,square4,r,0.711,3,V,10.0
V10,10.0,27.0,22.0,39.0,42.0,42,476.0,square4,r,1.5781,3,V,10.0
V10,11.0,32.0,16.0,41.0,48.0,48,524.0,square4,r,0.0941,3,V,10.0
V10,12.0,34.0,15.0,33.0,49.0,49,573.0,square4,r,0.1937,3,V,10.0
V10,13.0,36.0,19.0,41.0,45.0,45,618.0,square4,r,0.1261,3,V,10.0
V10,14.0,28.0,23.0,35.0,53.0,53,671.0,square4,r,0.0131,3,V,10.0
V10,15.0,26.0,28.0,40.0,50.0,50,721.0,square4,r,0.1111,3,V,10.0
V10,16.0,30.0,25.0,42.0,47.0,47,768.0,square4,r,0.0593,3,V,10.0
V10,17.0,31.0,19.0,38.0,50.0,50,818.0,square4,r,0.0112,3,V,10.0
V10,18.0,34.0,21.0,35.0,48.0,48,866.0,square4,r,0.0778,3,V,10.0
V10,19.0,31.0,24.0,39.0,46.0,46,912.0,square4,r,0.1103,3,V,10.0
V10,20.0,28.0,22.0,42.0,47.0,47,959.0,square4,r,0.0497,3,V,10.0
V10,21.0,24.0,20.0,41.0,47.0,47,1006.0,square4,r,0.0639,3,V,10.0
V10,22.0,32.0,22.0,34.0,44.0,44,1050.0,square4,r,0.1096,3,V,10.0
V10,23.0,29.0,23.0,37.0,47.0,47,1097.0,square4,r,0.3124,3,V,10.0
V10,24.0,25.0,25.0,38.0,46.0,46,1143.0,square4,r,0.1457,3,V,10.0
V10,25.0,30.0,24.0,41.0,45.0,45,1188.0,square4,r,0.1421,3,V,10.0
V10,26.0,32.0,17.0,38.0,49.0,49,1237.0,square4,r,0.2424,3,V,10.0
V10,27.0,34.0,21.0,38.0,47.0,47,1284.0,square4,r,0.1277,3,V,10.0
V10,28.0,29.0,21.0,37.0,45.0,45,1329.0,square4,r,0.1995,3,V,10.0
V10,29.0,30.0,20.0,31.0,47.0,47,1376.0,square4,r,0.5759,3,V,10.0
V10,30.0,28.0,21.0,35.0,44.0,44,1420.0,square4,r,0.1763,3,V,10.0
V10,31.0,36.0,25.0,14.0,8.0,8,1428.0,square4,r,0.0918,3,V,10.0
V10,32.0,38.0,27.0,19.0,11.0,11,1439.0,square4,r,0.0239,3,V,10.0
V10,33.0,39.0,21.0,20.0,13.0,20,1459.0,square3,i,0.0947,2,V,10.0
V10,34.0,34.0,24.0,20.0,10.0,34,1493.0,square1,j,0.4096,0,V,10.0
V10,35.0,44.0,29.0,17.0,11.0,29,1522.0,square2,f,0.4934,1,V,10.0
V10,36.0,33.0,30.0,17.0,9.0,33,1555.0,square1,j,0.1097,0,V,10.0
V10,37.0,31.0,27.0,12.0,6.0,31,1586.0,square1,j,0.0774,0,V,10.0
V10,38.0,34.0,29.0,15.0,10.0,34,1620.0,square1,j,0.0761,0,V,10.0
V10,39.0,35.0,21.0,19.0,5.0,35,1655.0,square1,j,0.0575,0,V,10.0
V10,40.0,32.0,26.0,18.0,6.0,32,1687.0,square1,j,0.0753,0,V,10.0
V10,41.0,34.0,32.0,13.0,9.0,34,1721.0,square1,j,0.5831,0,V,10.0
V10,42.0,35.0,30.0,16.0,8.0,35,1756.0,square1,j,0.0265,0,V,10.0
V10,43.0,38.0,32.0,16.0,8.0,38,1794.0,square1,j,0.0004,0,V,10.0
V10,44.0,34.0,20.0,18.0,3.0,34,1828.0,square1,j,0.2186,0,V,10.0
V10,45.0,38.0,22.0,23.0,9.0,38,1866.0,square1,j,0.3621,0,V,10.0
V10,46.0,36.0,28.0,16.0,10.0,36,1902.0,square1,j,0.1643,0,V,10.0
V10,47.0,36.0,27.0,13.0,8.0,36,1938.0,square1,j,0.1926,0,V,10.0
V10,48.0,35.0,27.0,14.0,12.0,35,1973.0,square1,j,0.1452,0,V,10.0
V10,49.0,33.0,28.0,16.0,10.0,33,2006.0,square1,j,0.1786,0,V,10.0
V10,50.0,31.0,29.0,19.0,8.0,31,2037.0,square1,j,0.0057,0,V,10.0
V10,51.0,32.0,21.0,20.0,12.0,32,2069.0,square1,j,0.1277,0,V,10.0
V10,52.0,29.0,25.0,21.0,10.0,29,2098.0,square1,j,0.377,0,V,10.0
V10,53.0,39.0,29.0,23.0,2.0,39,2137.0,square1,j,0.1618,0,V,10.0
V10,54.0,33.0,28.0,19.0,7.0,33,2170.0,square1,j,0.2422,0,V,10.0
V10,55.0,34.0,24.0,15.0,8.0,34,2204.0,square1,j,0.6106,0,V,10.0
V10,56.0,35.0,20.0,21.0,9.0,35,2239.0,square1,j,0.2112,0,V,10.0
V10,57.0,33.0,27.0,19.0,7.0,33,2272.0,square1,j,0.078,0,V,10.0
V10,58.0,38.0,24.0,16.0,7.0,38,2310.0,square1,j,0.1603,0,V,10.0
V10,59.0,34.0,29.0,15.0,5.0,5,2315.0,square4,r,0.4387,3,V,10.0
V10,60.0,34.0,22.0,19.0,9.0,19,2334.0,square3,i,0.0065,2,V,10.0
V10,61.0,39.0,31.0,20.0,10.0,31,2365.0,square2,f,0.2607,1,V,10.0
V10,62.0,35.0,24.0,18.0,6.0,35,2400.0,square1,j,0.4967,0,V,10.0
V10,63.0,35.0,26.0,18.0,9.0,35,2435.0,square1,j,0.0053,0,V,10.0
V10,64.0,31.0,55.0,23.0,23.0,31,2466.0,square1,j,0.3812,0,V,10.0
V10,65.0,35.0,50.0,22.0,27.0,35,2501.0,square1,j,0.8796,0,V,10.0
V10,66.0,35.0,53.0,25.0,29.0,35,2536.0,square1,j,1.4262,0,V,10.0
V10,67.0,38.0,44.0,17.0,29.0,38,2574.0,square1,j,0.1667,0,V,10.0
V10,68.0,36.0,48.0,22.0,27.0,36,2610.0,square1,j,0.2437,0,V,10.0
V10,69.0,41.0,53.0,17.0,28.0,41,2651.0,square1,j,0.0005,0,V,10.0
V10,70.0,40.0,48.0,23.0,28.0,40,2691.0,square1,j,0.0259,0,V,10.0
V10,71.0,39.0,43.0,24.0,20.0,39,2730.0,square1,j,0.0634,0,V,10.0
V10,72.0,36.0,49.0,19.0,25.0,36,2766.0,square1,j,0.0814,0,V,10.0
V10,73.0,39.0,49.0,23.0,32.0,39,2805.0,square1,j,0.0765,0,V,10.0
V10,74.0,36.0,44.0,17.0,29.0,36,2841.0,square1,j,0.1258,0,V,10.0
V10,75.0,37.0,46.0,20.0,30.0,37,2878.0,square1,j,0.0499,0,V,10.0
V10,76.0,38.0,47.0,23.0,30.0,38,2916.0,square1,j,0.1819,0,V,10.0
V10,77.0,36.0,49.0,22.0,32.0,36,2952.0,square1,j,0.1613,0,V,10.0
V10,78.0,41.0,44.0,19.0,27.0,41,2993.0,square1,j,0.2293,0,V,10.0
V10,79.0,41.0,48.0,22.0,27.0,41,3034.0,square1,j,0.6967,0,V,10.0
V10,80.0,34.0,44.0,26.0,29.0,34,3068.0,square1,j,1.0656,0,V,10.0
V10,81.0,38.0,47.0,18.0,29.0,38,3106.0,square1,j,0.0303,0,V,10.0
V10,82.0,43.0,43.0,23.0,28.0,43,3149.0,square1,j,0.2225,0,V,10.0
V10,83.0,34.0,51.0,23.0,26.0,34,3183.0,square1,j,0.5499,0,V,10.0
V10,84.0,36.0,46.0,18.0,25.0,36,3219.0,square1,j,1.2929,0,V,10.0
V10,85.0,39.0,46.0,25.0,26.0,39,3258.0,square1,j,0.593,0,V,10.0
V10,86.0,39.0,50.0,27.0,27.0,39,3297.0,square1,j,0.6396,0,V,10.0
V10,87.0,38.0,46.0,20.0,30.0,38,3335.0,square1,j,0.3932,0,V,10.0
V10,88.0,37.0,49.0,22.0,28.0,37,3372.0,square1,j,0.2286,0,V,10.0
V10,89.0,34.0,51.0,25.0,26.0,34,3406.0,square1,j,1.4769,0,V,10.0
V10,90.0,41.0,49.0,22.0,29.0,41,3447.0,square1,j,0.1944,0,V,10.0
V10,91.0,37.0,45.0,26.0,32.0,37,3484.0,square1,j,0.0005,0,V,10.0
V10,92.0,42.0,42.0,27.0,28.0,42,3526.0,square1,j,0.0005,0,V,10.0
V10,93.0,41.0,48.0,19.0,36.0,41,3567.0,square1,j,0.0439,0,V,10.0
V10,94.0,43.0,49.0,23.0,31.0,43,3610.0,square1,j,0.0403,0,V,10.0
V10,95.0,39.0,46.0,18.0,27.0,39,3649.0,square1,j,1.7064,0,V,10.0
V10,96.0,37.0,48.0,24.0,27.0,37,3686.0,square1,j,0.1426,0,V,10.0
V10,97.0,42.0,50.0,23.0,31.0,42,3728.0,square1,j,0.0286,0,V,10.0
V10,98.0,33.0,47.0,25.0,32.0,33,3761.0,square1,j,0.1439,0,V,10.0
V10,99.0,39.0,48.0,23.0,32.0,39,3800.0,square1,j,0.2272,0,V,10.0
