block,Trial,square1,square2,square3,square4,currPoints,totalPoints,square,choiceKey.keys,choiceKey.rt,armNum,blockType,blockNum
prac,0.0,100.0,0.0,0.0,0.0,99999,0.0,invalid,,,-1,p,0.0
prac,1.0,100.0,0.0,0.0,0.0,0,0.0,square4,,,3,p,0.0
prac,2.0,100.0,0.0,0.0,0.0,100,100.0,square1,,,0,p,0.0
prac,3.0,100.0,0.0,0.0,0.0,0,100.0,square3,,,2,p,0.0
prac,4.0,100.0,0.0,0.0,0.0,0,100.0,square2,,,1,p,0.0
prac,5.0,100.0,0.0,0.0,0.0,100,200.0,square1,,,0,p,0.0
prac,6.0,100.0,0.0,0.0,0.0,100,300.0,square1,,,0,p,0.0
prac,7.0,100.0,0.0,0.0,0.0,100,400.0,square1,,,0,p,0.0
prac,8.0,100.0,0.0,0.0,0.0,100,500.0,square1,,,0,p,0.0
prac,9.0,100.0,0.0,0.0,0.0,100,600.0,square1,,,0,p,0.0
NS2,0.0,44.0,66.0,42.0,38.0,42,42.0,square3,r,1.1322,2,N,2.0
NS2,1.0,44.0,66.0,47.0,43.0,66,108.0,square2,f,0.2731,1,N,2.0
NS2,2.0,42.0,62.0,53.0,43.0,42,150.0,square1,i,0.4759,0,N,2.0
NS2,3.0,46.0,58.0,48.0,46.0,46,196.0,square4,j,0.2092,3,N,2.0
NS2,4.0,47.0,61.0,51.0,42.0,61,257.0,square2,f,0.138,1,N,2.0
NS2,5.0,51.0,58.0,50.0,50.0,58,315.0,square2,f,0.1408,1,N,2.0
NS2,6.0,52.0,58.0,43.0,48.0,58,373.0,square2,f,0.2141,1,N,2.0
NS2,7.0,50.0,52.0,43.0,50.0,52,425.0,square2,f,0.205,1,N,2.0
NS2,8.0,54.0,58.0,41.0,46.0,58,483.0,square2,f,0.0182,1,N,2.0
NS2,9.0,52.0,59.0,42.0,46.0,52,535.0,square1,i,0.4227,0,N,2.0
NS2,10.0,50.0,52.0,37.0,48.0,48,583.0,square4,j,0.4506,3,N,2.0
NS2,11.0,45.0,56.0,38.0,43.0,38,621.0,square3,r,0.1845,2,N,2.0
NS2,12.0,50.0,56.0,37.0,48.0,56,677.0,square2,f,0.2514,1,N,2.0
NS2,13.0,47.0,63.0,36.0,49.0,49,726.0,square4,j,0.5017,3,N,2.0
NS2,14.0,51.0,56.0,39.0,49.0,51,777.0,square1,i,0.0228,0,N,2.0
NS2,15.0,46.0,64.0,39.0,50.0,64,841.0,square2,f,0.0832,1,N,2.0
NS2,16.0,51.0,61.0,37.0,47.0,61,902.0,square2,f,0.156,1,N,2.0
NS2,17.0,59.0,68.0,46.0,53.0,68,970.0,square2,f,0.1676,1,N,2.0
NS2,18.0,53.0,65.0,42.0,49.0,65,1035.0,square2,f,0.1174,1,N,2.0
NS2,19.0,52.0,67.0,47.0,49.0,67,1102.0,square2,f,0.1067,1,N,2.0
NS2,20.0,56.0,64.0,45.0,48.0,64,1166.0,square2,f,0.1841,1,N,2.0
NS2,21.0,57.0,73.0,46.0,44.0,73,1239.0,square2,f,0.0018,1,N,2.0
NS2,22.0,54.0,76.0,36.0,47.0,76,1315.0,square2,f,0.535,1,N,2.0
NS2,23.0,55.0,77.0,35.0,42.0,77,1392.0,square2,f,0.2846,1,N,2.0
NS2,24.0,53.0,68.0,35.0,46.0,68,1460.0,square2,f,0.2356,1,N,2.0
NS2,25.0,55.0,73.0,29.0,45.0,73,1533.0,square2,f,0.2344,1,N,2.0
NS2,26.0,52.0,69.0,30.0,49.0,69,1602.0,square2,f,0.1692,1,N,2.0
NS2,27.0,52.0,62.0,33.0,52.0,62,1664.0,square2,f,0.1429,1,N,2.0
NS2,28.0,58.0,62.0,33.0,47.0,62,1726.0,square2,f,0.1848,1,N,2.0
NS2,29.0,56.0,65.0,38.0,46.0,65,1791.0,square2,f,0.1591,1,N,2.0
NS2,30.0,56.0,66.0,37.0,50.0,66,1857.0,square2,f,0.1182,1,N,2.0
NS2,31.0,50.0,64.0,35.0,45.0,64,1921.0,square2,f,0.1356,1,N,2.0
NS2,32.0,56.0,62.0,38.0,45.0,62,1983.0,square2,f,0.2041,1,N,2.0
NS2,33.0,59.0,58.0,34.0,48.0,58,2041.0,square2,f,0.1519,1,N,2.0
NS2,34.0,55.0,59.0,36.0,48.0,59,2100.0,square2,f,0.1018,1,N,2.0
NS2,35.0,54.0,57.0,33.0,48.0,57,2157.0,square2,f,0.1899,1,N,2.0
NS2,36.0,53.0,58.0,34.0,51.0,58,2215.0,square2,f,0.1668,1,N,2.0
NS2,37.0,46.0,53.0,32.0,55.0,53,2268.0,square2,f,0.1534,1,N,2.0
NS2,38.0,46.0,59.0,37.0,49.0,59,2327.0,square2,f,0.1117,1,N,2.0
NS2,39.0,53.0,59.0,36.0,48.0,59,2386.0,square2,f,0.1857,1,N,2.0
NS2,40.0,46.0,60.0,37.0,42.0,60,2446.0,square2,f,0.0837,1,N,2.0
NS2,41.0,51.0,57.0,42.0,41.0,57,2503.0,square2,f,0.0252,1,N,2.0
NS2,42.0,49.0,53.0,46.0,41.0,53,2556.0,square2,f,0.502,1,N,2.0
NS2,43.0,49.0,57.0,43.0,39.0,57,2613.0,square2,f,0.2842,1,N,2.0
NS2,44.0,48.0,55.0,48.0,37.0,55,2668.0,square2,f,0.1406,1,N,2.0
NS2,45.0,49.0,52.0,34.0,36.0,52,2720.0,square2,f,0.1846,1,N,2.0
NS2,46.0,50.0,46.0,39.0,34.0,46,2766.0,square2,f,0.2847,1,N,2.0
NS2,47.0,55.0,48.0,39.0,26.0,55,2821.0,square1,i,0.0354,0,N,2.0
NS2,48.0,55.0,42.0,41.0,31.0,55,2876.0,square1,i,0.0841,0,N,2.0
NS2,49.0,55.0,41.0,36.0,36.0,55,2931.0,square1,i,0.2358,0,N,2.0
NS2,50.0,50.0,43.0,43.0,36.0,50,2981.0,square1,i,0.1184,0,N,2.0
NS2,51.0,49.0,40.0,44.0,32.0,49,3030.0,square1,i,0.1022,0,N,2.0
NS2,52.0,54.0,45.0,40.0,32.0,32,3062.0,square4,j,0.2187,3,N,2.0
NS2,53.0,55.0,44.0,42.0,38.0,42,3104.0,square3,r,0.3058,2,N,2.0
NS2,54.0,57.0,44.0,42.0,37.0,57,3161.0,square1,i,0.3391,0,N,2.0
NS2,55.0,56.0,47.0,35.0,29.0,56,3217.0,square1,i,0.2509,0,N,2.0
NS2,56.0,56.0,45.0,31.0,36.0,45,3262.0,square2,f,0.0857,1,N,2.0
NS2,57.0,48.0,43.0,33.0,36.0,48,3310.0,square1,i,0.2886,0,N,2.0
NS2,58.0,46.0,44.0,30.0,40.0,46,3356.0,square1,i,0.2687,0,N,2.0
NS2,59.0,45.0,36.0,33.0,37.0,36,3392.0,square2,f,0.2185,1,N,2.0
NS2,60.0,45.0,37.0,32.0,38.0,38,3430.0,square4,j,0.2399,3,N,2.0
NS2,61.0,47.0,37.0,31.0,37.0,31,3461.0,square3,r,0.2375,2,N,2.0
NS2,62.0,46.0,36.0,28.0,34.0,46,3507.0,square1,i,0.1355,0,N,2.0
NS2,63.0,53.0,36.0,26.0,43.0,53,3560.0,square1,i,0.2185,0,N,2.0
NS2,64.0,53.0,37.0,24.0,45.0,53,3613.0,square1,i,0.1905,0,N,2.0
NS2,65.0,49.0,34.0,27.0,49.0,49,3662.0,square1,i,0.268,0,N,2.0
NS2,66.0,50.0,30.0,26.0,57.0,50,3712.0,square1,i,0.2182,0,N,2.0
NS2,67.0,49.0,28.0,32.0,55.0,49,3761.0,square1,i,0.143,0,N,2.0
NS2,68.0,53.0,23.0,35.0,55.0,53,3814.0,square1,i,0.2685,0,N,2.0
NS2,69.0,49.0,29.0,33.0,51.0,49,3863.0,square1,i,0.1219,0,N,2.0
NS2,70.0,54.0,27.0,30.0,60.0,54,3917.0,square1,i,0.2182,0,N,2.0
NS2,71.0,57.0,28.0,31.0,59.0,57,3974.0,square1,i,0.2173,0,N,2.0
NS2,72.0,55.0,25.0,29.0,61.0,55,4029.0,square1,i,0.1367,0,N,2.0
NS2,73.0,63.0,29.0,31.0,56.0,63,4092.0,square1,i,0.1839,0,N,2.0
NS2,74.0,59.0,34.0,34.0,58.0,59,4151.0,square1,i,0.1249,0,N,2.0
NS2,75.0,58.0,37.0,31.0,53.0,58,4209.0,square1,i,0.1685,0,N,2.0
NS2,76.0,62.0,41.0,25.0,53.0,62,4271.0,square1,i,0.092,0,N,2.0
NS2,77.0,60.0,37.0,30.0,52.0,60,4331.0,square1,i,0.1582,0,N,2.0
NS2,78.0,63.0,37.0,37.0,50.0,63,4394.0,square1,i,0.2008,0,N,2.0
NS2,79.0,66.0,44.0,32.0,47.0,66,4460.0,square1,i,0.1684,0,N,2.0
NS2,80.0,65.0,41.0,30.0,45.0,65,4525.0,square1,i,0.1344,0,N,2.0
NS2,81.0,60.0,37.0,26.0,49.0,60,4585.0,square1,i,0.1723,0,N,2.0
NS2,82.0,68.0,38.0,28.0,46.0,68,4653.0,square1,i,0.2343,0,N,2.0
NS2,83.0,63.0,42.0,30.0,49.0,63,4716.0,square1,i,0.1836,0,N,2.0
NS2,84.0,71.0,41.0,37.0,51.0,71,4787.0,square1,i,0.1706,0,N,2.0
NS2,85.0,63.0,47.0,29.0,40.0,63,4850.0,square1,i,0.151,0,N,2.0
NS2,86.0,67.0,42.0,36.0,44.0,67,4917.0,square1,i,0.2019,0,N,2.0
NS2,87.0,62.0,45.0,31.0,41.0,62,4979.0,square1,i,0.0731,0,N,2.0
NS2,88.0,63.0,39.0,32.0,44.0,63,5042.0,square1,i,0.1347,0,N,2.0
NS2,89.0,66.0,39.0,37.0,39.0,66,5108.0,square1,i,0.1767,0,N,2.0
NS2,90.0,53.0,38.0,35.0,40.0,53,5161.0,square1,i,0.1945,0,N,2.0
NS2,91.0,57.0,39.0,38.0,43.0,57,5218.0,square1,i,0.2352,0,N,2.0
NS2,92.0,53.0,36.0,40.0,47.0,53,5271.0,square1,i,0.1353,0,N,2.0
NS2,93.0,47.0,39.0,43.0,38.0,47,5318.0,square1,i,0.2513,0,N,2.0
NS2,94.0,45.0,33.0,46.0,40.0,45,5363.0,square1,i,0.1021,0,N,2.0
NS2,95.0,49.0,38.0,53.0,36.0,49,5412.0,square1,i,0.1276,0,N,2.0
NS2,96.0,50.0,39.0,46.0,34.0,50,5462.0,square1,i,0.2053,0,N,2.0
NS2,97.0,57.0,37.0,44.0,41.0,57,5519.0,square1,i,0.1858,0,N,2.0
NS2,98.0,55.0,43.0,39.0,43.0,55,5574.0,square1,i,0.1959,0,N,2.0
NS2,99.0,56.0,46.0,41.0,41.0,56,5630.0,square1,i,0.24,0,N,2.0
NS4,0.0,55.0,53.0,59.0,44.0,59,59.0,square3,f,1.0084,2,N,4.0
NS4,1.0,49.0,56.0,64.0,41.0,64,123.0,square3,f,0.2328,2,N,4.0
NS4,2.0,50.0,54.0,71.0,48.0,71,194.0,square3,f,0.1446,2,N,4.0
NS4,3.0,53.0,58.0,67.0,50.0,67,261.0,square3,f,0.0627,2,N,4.0
NS4,4.0,49.0,51.0,70.0,55.0,70,331.0,square3,f,0.0303,2,N,4.0
NS4,5.0,55.0,59.0,73.0,58.0,73,404.0,square3,f,0.053,2,N,4.0
NS4,6.0,56.0,54.0,71.0,57.0,71,475.0,square3,f,0.0017,2,N,4.0
NS4,7.0,60.0,54.0,75.0,52.0,75,550.0,square3,f,0.0195,2,N,4.0
NS4,8.0,58.0,53.0,74.0,52.0,74,624.0,square3,f,0.0017,2,N,4.0
NS4,9.0,46.0,48.0,78.0,51.0,78,702.0,square3,f,0.2823,2,N,4.0
NS4,10.0,55.0,48.0,78.0,51.0,78,780.0,square3,f,0.183,2,N,4.0
NS4,11.0,55.0,44.0,79.0,49.0,79,859.0,square3,f,0.0953,2,N,4.0
NS4,12.0,50.0,40.0,79.0,50.0,79,938.0,square3,f,0.0815,2,N,4.0
NS4,13.0,45.0,39.0,79.0,53.0,79,1017.0,square3,f,0.0297,2,N,4.0
NS4,14.0,44.0,38.0,77.0,56.0,77,1094.0,square3,f,0.085,2,N,4.0
NS4,15.0,45.0,32.0,68.0,52.0,68,1162.0,square3,f,0.0344,2,N,4.0
NS4,16.0,49.0,32.0,74.0,53.0,74,1236.0,square3,f,0.5468,2,N,4.0
NS4,17.0,45.0,32.0,69.0,51.0,69,1305.0,square3,f,0.1134,2,N,4.0
NS4,18.0,50.0,34.0,69.0,47.0,69,1374.0,square3,f,0.2132,2,N,4.0
NS4,19.0,50.0,36.0,65.0,53.0,65,1439.0,square3,f,0.061,2,N,4.0
NS4,20.0,45.0,36.0,62.0,53.0,62,1501.0,square3,f,0.0281,2,N,4.0
NS4,21.0,49.0,35.0,62.0,55.0,62,1563.0,square3,f,0.1447,2,N,4.0
NS4,22.0,53.0,32.0,61.0,60.0,61,1624.0,square3,f,0.0755,2,N,4.0
NS4,23.0,52.0,33.0,58.0,54.0,58,1682.0,square3,f,0.0515,2,N,4.0
NS4,24.0,48.0,32.0,52.0,60.0,52,1734.0,square3,f,0.1885,2,N,4.0
NS4,25.0,47.0,30.0,53.0,57.0,53,1787.0,square3,f,0.1469,2,N,4.0
NS4,26.0,50.0,30.0,60.0,55.0,60,1847.0,square3,f,0.1654,2,N,4.0
NS4,27.0,50.0,28.0,62.0,47.0,62,1909.0,square3,f,0.0919,2,N,4.0
NS4,28.0,54.0,28.0,58.0,49.0,58,1967.0,square3,f,0.1263,2,N,4.0
NS4,29.0,44.0,29.0,50.0,49.0,50,2017.0,square3,f,0.09,2,N,4.0
NS4,30.0,43.0,26.0,55.0,57.0,55,2072.0,square3,f,0.0684,2,N,4.0
NS4,31.0,43.0,25.0,60.0,54.0,60,2132.0,square3,f,0.5239,2,N,4.0
NS4,32.0,34.0,27.0,58.0,56.0,58,2190.0,square3,f,0.2293,2,N,4.0
NS4,33.0,34.0,20.0,60.0,62.0,60,2250.0,square3,f,0.162,2,N,4.0
NS4,34.0,38.0,28.0,58.0,57.0,58,2308.0,square3,f,0.1637,2,N,4.0
NS4,35.0,40.0,24.0,63.0,59.0,63,2371.0,square3,f,0.1701,2,N,4.0
NS4,36.0,36.0,30.0,56.0,63.0,56,2427.0,square3,f,0.1412,2,N,4.0
NS4,37.0,40.0,29.0,54.0,63.0,54,2481.0,square3,f,0.0787,2,N,4.0
NS4,38.0,40.0,33.0,53.0,69.0,53,2534.0,square3,f,0.1781,2,N,4.0
NS4,39.0,36.0,30.0,57.0,67.0,57,2591.0,square3,f,0.1445,2,N,4.0
NS4,40.0,33.0,33.0,58.0,68.0,58,2649.0,square3,f,0.1284,2,N,4.0
NS4,41.0,34.0,28.0,58.0,72.0,58,2707.0,square3,f,0.0852,2,N,4.0
NS4,42.0,35.0,30.0,60.0,70.0,60,2767.0,square3,f,0.1635,2,N,4.0
NS4,43.0,35.0,34.0,57.0,63.0,57,2824.0,square3,f,0.072,2,N,4.0
NS4,44.0,30.0,32.0,59.0,69.0,59,2883.0,square3,f,0.1289,2,N,4.0
NS4,45.0,29.0,31.0,60.0,66.0,60,2943.0,square3,f,0.1659,2,N,4.0
NS4,46.0,35.0,34.0,66.0,66.0,66,3009.0,square3,f,0.1623,2,N,4.0
NS4,47.0,35.0,28.0,63.0,62.0,63,3072.0,square3,f,0.1013,2,N,4.0
NS4,48.0,37.0,37.0,61.0,55.0,61,3133.0,square3,f,0.17,2,N,4.0
NS4,49.0,40.0,34.0,59.0,54.0,59,3192.0,square3,f,0.0821,2,N,4.0
NS4,50.0,39.0,38.0,68.0,51.0,68,3260.0,square3,f,0.2277,2,N,4.0
NS4,51.0,46.0,28.0,69.0,48.0,69,3329.0,square3,f,0.0781,2,N,4.0
NS4,52.0,40.0,34.0,62.0,49.0,62,3391.0,square3,f,0.1209,2,N,4.0
NS4,53.0,39.0,34.0,63.0,48.0,63,3454.0,square3,f,0.1089,2,N,4.0
NS4,54.0,44.0,31.0,58.0,47.0,58,3512.0,square3,f,0.0425,2,N,4.0
NS4,55.0,42.0,30.0,68.0,46.0,68,3580.0,square3,f,0.0776,2,N,4.0
NS4,56.0,36.0,25.0,69.0,44.0,69,3649.0,square3,f,0.2614,2,N,4.0
NS4,57.0,35.0,29.0,71.0,46.0,71,3720.0,square3,f,0.2273,2,N,4.0
NS4,58.0,43.0,28.0,68.0,47.0,68,3788.0,square3,f,0.0925,2,N,4.0
NS4,59.0,43.0,27.0,67.0,43.0,67,3855.0,square3,f,0.0943,2,N,4.0
NS4,60.0,40.0,25.0,72.0,46.0,72,3927.0,square3,f,0.0826,2,N,4.0
NS4,61.0,39.0,32.0,63.0,43.0,63,3990.0,square3,f,0.1517,2,N,4.0
NS4,62.0,39.0,29.0,61.0,39.0,61,4051.0,square3,f,0.101,2,N,4.0
NS4,63.0,41.0,28.0,59.0,40.0,59,4110.0,square3,f,0.1295,2,N,4.0
NS4,64.0,41.0,31.0,57.0,51.0,57,4167.0,square3,f,0.1065,2,N,4.0
NS4,65.0,46.0,36.0,59.0,58.0,59,4226.0,square3,f,0.1171,2,N,4.0
NS4,66.0,45.0,36.0,53.0,46.0,53,4279.0,square3,f,0.181,2,N,4.0
NS4,67.0,40.0,34.0,49.0,46.0,49,4328.0,square3,f,0.1086,2,N,4.0
NS4,68.0,43.0,37.0,48.0,48.0,37,4365.0,square2,i,0.2834,1,N,4.0
NS4,69.0,42.0,36.0,44.0,56.0,42,4407.0,square1,j,0.1617,0,N,4.0
NS4,70.0,40.0,38.0,47.0,58.0,58,4465.0,square4,r,1.6781,3,N,4.0
NS4,71.0,36.0,34.0,42.0,63.0,42,4507.0,square3,f,0.2495,2,N,4.0
NS4,72.0,38.0,36.0,36.0,66.0,66,4573.0,square4,r,0.0634,3,N,4.0
NS4,73.0,36.0,40.0,40.0,66.0,66,4639.0,square4,r,0.2332,3,N,4.0
NS4,74.0,31.0,38.0,46.0,67.0,67,4706.0,square4,r,0.1131,3,N,4.0
NS4,75.0,40.0,33.0,42.0,64.0,64,4770.0,square4,r,0.1802,3,N,4.0
NS4,76.0,38.0,35.0,42.0,64.0,64,4834.0,square4,r,0.2282,3,N,4.0
NS4,77.0,40.0,35.0,39.0,66.0,66,4900.0,square4,r,0.2954,3,N,4.0
NS4,78.0,40.0,33.0,38.0,68.0,68,4968.0,square4,r,0.129,3,N,4.0
NS4,79.0,40.0,38.0,31.0,70.0,70,5038.0,square4,r,0.1614,3,N,4.0
NS4,80.0,37.0,35.0,33.0,73.0,73,5111.0,square4,r,0.232,3,N,4.0
NS4,81.0,34.0,35.0,30.0,70.0,70,5181.0,square4,r,0.0353,3,N,4.0
NS4,82.0,35.0,37.0,31.0,66.0,66,5247.0,square4,r,0.2177,3,N,4.0
NS4,83.0,42.0,32.0,28.0,67.0,67,5314.0,square4,r,0.2135,3,N,4.0
NS4,84.0,38.0,35.0,30.0,68.0,68,5382.0,square4,r,0.1619,3,N,4.0
NS4,85.0,43.0,35.0,32.0,64.0,64,5446.0,square4,r,0.2037,3,N,4.0
NS4,86.0,49.0,35.0,32.0,70.0,70,5516.0,square4,r,0.1844,3,N,4.0
NS4,87.0,48.0,34.0,32.0,69.0,69,5585.0,square4,r,0.1944,3,N,4.0
NS4,88.0,50.0,35.0,30.0,64.0,64,5649.0,square4,r,0.1183,3,N,4.0
NS4,89.0,48.0,34.0,32.0,68.0,68,5717.0,square4,r,0.1848,3,N,4.0
NS4,90.0,53.0,29.0,27.0,68.0,68,5785.0,square4,r,0.1345,3,N,4.0
NS4,91.0,54.0,27.0,34.0,68.0,68,5853.0,square4,r,0.1715,3,N,4.0
NS4,92.0,52.0,20.0,35.0,69.0,69,5922.0,square4,r,0.1052,3,N,4.0
NS4,93.0,42.0,15.0,33.0,68.0,68,5990.0,square4,r,0.168,3,N,4.0
NS4,94.0,40.0,24.0,37.0,72.0,72,6062.0,square4,r,0.0673,3,N,4.0
NS4,95.0,43.0,25.0,43.0,69.0,69,6131.0,square4,r,0.0941,3,N,4.0
NS4,96.0,41.0,29.0,43.0,74.0,74,6205.0,square4,r,0.0835,3,N,4.0
NS4,97.0,46.0,32.0,42.0,78.0,78,6283.0,square4,r,0.2445,3,N,4.0
NS4,98.0,48.0,26.0,46.0,75.0,75,6358.0,square4,r,0.1099,3,N,4.0
NS4,99.0,46.0,27.0,45.0,71.0,71,6429.0,square4,r,0.1667,3,N,4.0
NS11,0.0,78.0,37.0,30.0,78.0,78,78.0,square1,r,1.0173,0,N,11.0
NS11,1.0,85.0,34.0,30.0,76.0,85,163.0,square1,r,0.1458,0,N,11.0
NS11,2.0,79.0,33.0,36.0,77.0,79,242.0,square1,r,0.0836,0,N,11.0
NS11,3.0,82.0,33.0,28.0,72.0,82,324.0,square1,r,0.1225,0,N,11.0
NS11,4.0,82.0,34.0,33.0,76.0,82,406.0,square1,r,0.1427,0,N,11.0
NS11,5.0,78.0,38.0,32.0,83.0,78,484.0,square1,r,0.1979,0,N,11.0
NS11,6.0,78.0,37.0,34.0,77.0,78,562.0,square1,r,0.0896,0,N,11.0
NS11,7.0,80.0,30.0,33.0,74.0,80,642.0,square1,r,0.001,0,N,11.0
NS11,8.0,79.0,32.0,30.0,73.0,79,721.0,square1,r,0.0762,0,N,11.0
NS11,9.0,81.0,41.0,34.0,61.0,81,802.0,square1,r,0.1354,0,N,11.0
NS11,10.0,76.0,38.0,25.0,64.0,76,878.0,square1,r,0.0541,0,N,11.0
NS11,11.0,79.0,34.0,27.0,65.0,79,957.0,square1,r,0.0495,0,N,11.0
NS11,12.0,81.0,32.0,25.0,68.0,81,1038.0,square1,r,0.0793,0,N,11.0
NS11,13.0,84.0,36.0,24.0,64.0,84,1122.0,square1,r,0.1619,0,N,11.0
NS11,14.0,80.0,30.0,24.0,61.0,80,1202.0,square1,r,0.1005,0,N,11.0
NS11,15.0,86.0,33.0,22.0,66.0,86,1288.0,square1,r,0.1332,0,N,11.0
NS11,16.0,85.0,32.0,20.0,64.0,85,1373.0,square1,r,0.1469,0,N,11.0
NS11,17.0,83.0,32.0,22.0,71.0,83,1456.0,square1,r,0.0474,0,N,11.0
NS11,18.0,80.0,31.0,19.0,66.0,80,1536.0,square1,r,0.0927,0,N,11.0
NS11,19.0,75.0,40.0,23.0,69.0,75,1611.0,square1,r,0.094,0,N,11.0
NS11,20.0,73.0,37.0,14.0,67.0,73,1684.0,square1,r,0.0596,0,N,11.0
NS11,21.0,81.0,34.0,23.0,70.0,81,1765.0,square1,r,0.1145,0,N,11.0
NS11,22.0,77.0,39.0,16.0,73.0,77,1842.0,square1,r,0.0793,0,N,11.0
NS11,23.0,78.0,30.0,23.0,74.0,78,1920.0,square1,r,0.0525,0,N,11.0
NS11,24.0,80.0,32.0,26.0,68.0,80,2000.0,square1,r,0.0959,0,N,11.0
NS11,25.0,81.0,29.0,29.0,73.0,81,2081.0,square1,r,0.1019,0,N,11.0
NS11,26.0,77.0,31.0,26.0,69.0,77,2158.0,square1,r,0.0341,0,N,11.0
NS11,27.0,69.0,47.0,29.0,64.0,69,2227.0,square1,r,0.0657,0,N,11.0
NS11,28.0,69.0,39.0,28.0,71.0,69,2296.0,square1,r,0.087,0,N,11.0
NS11,29.0,71.0,41.0,24.0,66.0,71,2367.0,square1,r,0.1023,0,N,11.0
NS11,30.0,70.0,40.0,21.0,68.0,70,2437.0,square1,r,0.0778,0,N,11.0
NS11,31.0,72.0,44.0,21.0,68.0,72,2509.0,square1,r,0.1052,0,N,11.0
NS11,32.0,72.0,41.0,19.0,75.0,72,2581.0,square1,r,0.0018,0,N,11.0
NS11,33.0,66.0,48.0,21.0,72.0,66,2647.0,square1,r,0.4252,0,N,11.0
NS11,34.0,67.0,48.0,24.0,72.0,67,2714.0,square1,r,0.1656,0,N,11.0
NS11,35.0,58.0,52.0,14.0,73.0,58,2772.0,square1,r,0.0627,0,N,11.0
NS11,36.0,61.0,52.0,23.0,70.0,61,2833.0,square1,r,0.0018,0,N,11.0
NS11,37.0,50.0,55.0,29.0,67.0,50,2883.0,square1,r,0.1986,0,N,11.0
NS11,38.0,51.0,54.0,20.0,64.0,20,2903.0,square3,i,0.3954,2,N,11.0
NS11,39.0,54.0,49.0,26.0,63.0,49,2952.0,square2,j,0.2784,1,N,11.0
NS11,40.0,50.0,47.0,24.0,70.0,70,3022.0,square4,f,0.2438,3,N,11.0
NS11,41.0,54.0,46.0,23.0,63.0,63,3085.0,square4,f,0.1178,3,N,11.0
NS11,42.0,54.0,47.0,25.0,61.0,61,3146.0,square4,f,0.1424,3,N,11.0
NS11,43.0,46.0,49.0,33.0,72.0,72,3218.0,square4,f,0.1791,3,N,11.0
NS11,44.0,54.0,50.0,38.0,72.0,72,3290.0,square4,f,0.1114,3,N,11.0
NS11,45.0,56.0,53.0,39.0,81.0,81,3371.0,square4,f,0.1846,3,N,11.0
NS11,46.0,57.0,55.0,33.0,77.0,77,3448.0,square4,f,0.0969,3,N,11.0
NS11,47.0,56.0,51.0,32.0,76.0,76,3524.0,square4,f,0.0654,3,N,11.0
NS11,48.0,58.0,49.0,29.0,85.0,85,3609.0,square4,f,0.1971,3,N,11.0
NS11,49.0,58.0,53.0,27.0,83.0,83,3692.0,square4,f,0.1117,3,N,11.0
NS11,50.0,62.0,49.0,24.0,80.0,80,3772.0,square4,f,0.1605,3,N,11.0
NS11,51.0,57.0,55.0,23.0,77.0,77,3849.0,square4,f,0.0111,3,N,11.0
NS11,52.0,56.0,55.0,20.0,77.0,77,3926.0,square4,f,0.3614,3,N,11.0
NS11,53.0,59.0,56.0,20.0,78.0,78,4004.0,square4,f,0.094,3,N,11.0
NS11,54.0,58.0,57.0,27.0,74.0,74,4078.0,square4,f,0.1279,3,N,11.0
NS11,55.0,60.0,55.0,24.0,79.0,79,4157.0,square4,f,0.0791,3,N,11.0
NS11,56.0,60.0,52.0,22.0,77.0,77,4234.0,square4,f,0.1266,3,N,11.0
NS11,57.0,58.0,55.0,22.0,72.0,72,4306.0,square4,f,0.1009,3,N,11.0
NS11,58.0,63.0,52.0,22.0,75.0,75,4381.0,square4,f,0.4518,3,N,11.0
NS11,59.0,62.0,56.0,17.0,70.0,70,4451.0,square4,f,0.2432,3,N,11.0
NS11,60.0,61.0,55.0,22.0,70.0,70,4521.0,square4,f,0.1507,3,N,11.0
NS11,61.0,57.0,52.0,21.0,76.0,76,4597.0,square4,f,0.161,3,N,11.0
NS11,62.0,57.0,48.0,28.0,75.0,48,4645.0,square2,j,0.1512,1,N,11.0
NS11,63.0,57.0,58.0,30.0,68.0,30,4675.0,square3,i,0.0506,2,N,11.0
NS11,64.0,61.0,61.0,27.0,74.0,61,4736.0,square1,r,0.3175,0,N,11.0
NS11,65.0,67.0,63.0,40.0,71.0,71,4807.0,square4,f,0.1843,3,N,11.0
NS11,66.0,69.0,55.0,38.0,73.0,69,4876.0,square1,r,0.0017,0,N,11.0
NS11,67.0,72.0,57.0,36.0,65.0,65,4941.0,square4,f,0.005,3,N,11.0
NS11,68.0,71.0,61.0,36.0,64.0,71,5012.0,square1,r,0.2843,0,N,11.0
NS11,69.0,74.0,66.0,37.0,58.0,58,5070.0,square4,f,0.2028,3,N,11.0
NS11,70.0,69.0,60.0,40.0,66.0,69,5139.0,square1,r,0.2041,0,N,11.0
NS11,71.0,71.0,58.0,40.0,64.0,64,5203.0,square4,f,0.0018,3,N,11.0
NS11,72.0,72.0,58.0,46.0,67.0,72,5275.0,square1,r,0.1332,0,N,11.0
NS11,73.0,72.0,56.0,47.0,65.0,65,5340.0,square4,f,0.0352,3,N,11.0
NS11,74.0,66.0,54.0,47.0,63.0,66,5406.0,square1,r,0.5847,0,N,11.0
NS11,75.0,75.0,53.0,43.0,58.0,58,5464.0,square4,f,0.4175,3,N,11.0
NS11,76.0,75.0,48.0,40.0,59.0,75,5539.0,square1,r,0.2846,0,N,11.0
NS11,77.0,65.0,48.0,36.0,58.0,65,5604.0,square1,r,0.0792,0,N,11.0
NS11,78.0,70.0,45.0,37.0,59.0,70,5674.0,square1,r,0.0671,0,N,11.0
NS11,79.0,70.0,41.0,36.0,59.0,70,5744.0,square1,r,0.0115,0,N,11.0
NS11,80.0,73.0,43.0,39.0,59.0,73,5817.0,square1,r,0.1833,0,N,11.0
NS11,81.0,72.0,39.0,38.0,60.0,72,5889.0,square1,r,0.1571,0,N,11.0
NS11,82.0,72.0,39.0,44.0,65.0,72,5961.0,square1,r,0.1946,0,N,11.0
NS11,83.0,68.0,38.0,40.0,61.0,68,6029.0,square1,r,0.2516,0,N,11.0
NS11,84.0,69.0,36.0,36.0,64.0,69,6098.0,square1,r,0.1001,0,N,11.0
NS11,85.0,70.0,34.0,40.0,69.0,70,6168.0,square1,r,0.1846,0,N,11.0
NS11,86.0,70.0,32.0,36.0,71.0,71,6239.0,square4,f,0.1719,3,N,11.0
NS11,87.0,69.0,31.0,37.0,70.0,70,6309.0,square4,f,0.1338,3,N,11.0
NS11,88.0,69.0,34.0,41.0,67.0,67,6376.0,square4,f,0.0017,3,N,11.0
NS11,89.0,67.0,39.0,44.0,67.0,67,6443.0,square1,r,0.1257,0,N,11.0
NS11,90.0,64.0,33.0,36.0,69.0,69,6512.0,square4,f,0.1603,3,N,11.0
NS11,91.0,60.0,33.0,38.0,67.0,60,6572.0,square1,r,0.0885,0,N,11.0
NS11,92.0,60.0,33.0,37.0,68.0,68,6640.0,square4,f,0.2065,3,N,11.0
NS11,93.0,54.0,36.0,38.0,73.0,73,6713.0,square4,f,0.2186,3,N,11.0
NS11,94.0,58.0,35.0,39.0,68.0,68,6781.0,square4,f,0.0019,3,N,11.0
NS11,95.0,50.0,38.0,32.0,77.0,77,6858.0,square4,f,0.1742,3,N,11.0
NS11,96.0,53.0,42.0,30.0,71.0,71,6929.0,square4,f,0.3182,3,N,11.0
NS11,97.0,54.0,38.0,32.0,75.0,75,7004.0,square4,f,0.2101,3,N,11.0
NS11,98.0,52.0,48.0,32.0,72.0,72,7076.0,square4,f,0.5013,3,N,11.0
NS11,99.0,55.0,45.0,33.0,73.0,73,7149.0,square4,f,0.0668,3,N,11.0
V12,0.0,47.0,30.0,38.0,55.0,55,55.0,square4,r,0.5278,3,V,12.0
V12,1.0,46.0,33.0,39.0,57.0,57,112.0,square4,r,0.348,3,V,12.0
V12,2.0,51.0,29.0,42.0,52.0,29,141.0,square2,i,0.2122,1,V,12.0
V12,3.0,52.0,30.0,38.0,62.0,52,193.0,square1,j,0.1454,0,V,12.0
V12,4.0,48.0,30.0,39.0,62.0,39,232.0,square3,f,0.2273,2,V,12.0
V12,5.0,55.0,34.0,43.0,61.0,55,287.0,square1,j,0.2436,0,V,12.0
V12,6.0,45.0,35.0,42.0,56.0,56,343.0,square4,r,0.1946,3,V,12.0
V12,7.0,48.0,29.0,35.0,57.0,57,400.0,square4,r,0.1621,3,V,12.0
V12,8.0,46.0,33.0,38.0,59.0,59,459.0,square4,r,0.0783,3,V,12.0
V12,9.0,44.0,31.0,42.0,56.0,56,515.0,square4,r,0.1265,3,V,12.0
V12,10.0,48.0,34.0,45.0,55.0,55,570.0,square4,r,0.086,3,V,12.0
V12,11.0,45.0,32.0,41.0,55.0,55,625.0,square4,r,0.0952,3,V,12.0
V12,12.0,52.0,26.0,42.0,57.0,57,682.0,square4,r,0.0442,3,V,12.0
V12,13.0,56.0,31.0,41.0,54.0,56,738.0,square1,j,0.0105,0,V,12.0
V12,14.0,44.0,34.0,40.0,64.0,64,802.0,square4,r,0.2961,3,V,12.0
V12,15.0,48.0,32.0,39.0,61.0,61,863.0,square4,r,0.1262,3,V,12.0
V12,16.0,49.0,33.0,37.0,58.0,58,921.0,square4,r,0.1102,3,V,12.0
V12,17.0,45.0,33.0,43.0,57.0,45,966.0,square1,j,0.0111,0,V,12.0
V12,18.0,45.0,28.0,40.0,58.0,58,1024.0,square4,r,0.131,3,V,12.0
V12,19.0,42.0,33.0,43.0,59.0,59,1083.0,square4,r,0.0819,3,V,12.0
V12,20.0,46.0,30.0,38.0,62.0,62,1145.0,square4,r,0.0119,3,V,12.0
V12,21.0,46.0,35.0,40.0,55.0,55,1200.0,square4,r,0.0092,3,V,12.0
V12,22.0,46.0,34.0,36.0,63.0,63,1263.0,square4,r,0.0021,3,V,12.0
V12,23.0,54.0,34.0,42.0,56.0,56,1319.0,square4,r,0.1008,3,V,12.0
V12,24.0,44.0,30.0,41.0,59.0,59,1378.0,square4,r,0.0014,3,V,12.0
V12,25.0,49.0,33.0,37.0,64.0,64,1442.0,square4,r,0.0494,3,V,12.0
V12,26.0,52.0,34.0,39.0,57.0,57,1499.0,square4,r,0.0612,3,V,12.0
V12,27.0,50.0,26.0,37.0,55.0,55,1554.0,square4,r,0.0349,3,V,12.0
V12,28.0,41.0,29.0,46.0,21.0,21,1575.0,square4,r,0.4037,3,V,12.0
V12,29.0,41.0,28.0,51.0,20.0,28,1603.0,square2,i,0.012,1,V,12.0
V12,30.0,32.0,31.0,46.0,22.0,46,1649.0,square3,f,0.2191,2,V,12.0
V12,31.0,38.0,28.0,45.0,22.0,38,1687.0,square1,j,0.145,0,V,12.0
V12,32.0,35.0,27.0,44.0,16.0,44,1731.0,square3,f,0.2641,2,V,12.0
V12,33.0,39.0,29.0,49.0,21.0,49,1780.0,square3,f,0.2795,2,V,12.0
V12,34.0,39.0,28.0,49.0,15.0,49,1829.0,square3,f,0.0273,2,V,12.0
V12,35.0,36.0,29.0,50.0,17.0,36,1865.0,square1,j,0.2283,0,V,12.0
V12,36.0,41.0,28.0,48.0,12.0,28,1893.0,square2,i,0.1355,1,V,12.0
V12,37.0,34.0,29.0,46.0,25.0,25,1918.0,square4,r,0.0469,3,V,12.0
V12,38.0,38.0,28.0,51.0,19.0,51,1969.0,square3,f,0.1096,2,V,12.0
V12,39.0,39.0,31.0,45.0,13.0,39,2008.0,square1,j,0.0488,0,V,12.0
V12,40.0,35.0,28.0,46.0,26.0,46,2054.0,square3,f,0.1173,2,V,12.0
V12,41.0,38.0,27.0,46.0,20.0,46,2100.0,square3,f,0.1588,2,V,12.0
V12,42.0,40.0,26.0,50.0,23.0,50,2150.0,square3,f,0.3767,2,V,12.0
V12,43.0,33.0,30.0,45.0,18.0,45,2195.0,square3,f,0.1657,2,V,12.0
V12,44.0,39.0,31.0,46.0,22.0,46,2241.0,square3,f,0.0416,2,V,12.0
V12,45.0,32.0,26.0,42.0,20.0,42,2283.0,square3,f,0.2437,2,V,12.0
V12,46.0,36.0,29.0,43.0,24.0,36,2319.0,square1,j,0.1277,0,V,12.0
V12,47.0,37.0,30.0,46.0,21.0,21,2340.0,square4,r,0.0657,3,V,12.0
V12,48.0,37.0,27.0,44.0,19.0,27,2367.0,square2,i,0.0591,1,V,12.0
V12,49.0,36.0,33.0,55.0,16.0,55,2422.0,square3,f,0.244,2,V,12.0
V12,50.0,45.0,28.0,44.0,18.0,44,2466.0,square3,f,0.2328,2,V,12.0
V12,51.0,35.0,32.0,49.0,19.0,49,2515.0,square3,f,0.0598,2,V,12.0
V12,52.0,36.0,56.0,31.0,52.0,31,2546.0,square3,f,0.0613,2,V,12.0
V12,53.0,36.0,57.0,29.0,45.0,36,2582.0,square1,j,0.0758,0,V,12.0
V12,54.0,38.0,61.0,28.0,51.0,61,2643.0,square2,i,0.0814,1,V,12.0
V12,55.0,35.0,60.0,29.0,47.0,60,2703.0,square2,i,0.1832,1,V,12.0
V12,56.0,34.0,62.0,29.0,46.0,62,2765.0,square2,i,0.1621,1,V,12.0
V12,57.0,43.0,57.0,32.0,46.0,57,2822.0,square2,i,0.5142,1,V,12.0
V12,58.0,40.0,59.0,32.0,50.0,59,2881.0,square2,i,0.4947,1,V,12.0
V12,59.0,41.0,62.0,33.0,48.0,62,2943.0,square2,i,0.1773,1,V,12.0
V12,60.0,36.0,61.0,32.0,49.0,61,3004.0,square2,i,0.0485,1,V,12.0
V12,61.0,39.0,56.0,32.0,44.0,56,3060.0,square2,i,0.4438,1,V,12.0
V12,62.0,39.0,57.0,30.0,46.0,57,3117.0,square2,i,0.3619,1,V,12.0
V12,63.0,42.0,53.0,29.0,46.0,53,3170.0,square2,i,0.7364,1,V,12.0
V12,64.0,35.0,57.0,32.0,50.0,57,3227.0,square2,i,0.0941,1,V,12.0
V12,65.0,44.0,58.0,32.0,49.0,58,3285.0,square2,i,0.1355,1,V,12.0
V12,66.0,44.0,56.0,29.0,52.0,56,3341.0,square2,i,0.0276,1,V,12.0
V12,67.0,41.0,60.0,30.0,49.0,60,3401.0,square2,i,0.1833,1,V,12.0
V12,68.0,42.0,58.0,32.0,45.0,58,3459.0,square2,i,0.2211,1,V,12.0
V12,69.0,36.0,60.0,33.0,50.0,60,3519.0,square2,i,0.114,1,V,12.0
V12,70.0,36.0,57.0,27.0,46.0,46,3565.0,square4,r,0.1771,3,V,12.0
V12,71.0,41.0,59.0,32.0,48.0,59,3624.0,square2,i,0.4596,1,V,12.0
V12,72.0,34.0,59.0,31.0,49.0,31,3655.0,square3,f,0.1946,2,V,12.0
V12,73.0,71.0,53.0,65.0,49.0,71,3726.0,square1,j,0.1618,0,V,12.0
V12,74.0,69.0,49.0,63.0,45.0,69,3795.0,square1,j,0.1996,0,V,12.0
V12,75.0,72.0,51.0,56.0,46.0,72,3867.0,square1,j,0.096,0,V,12.0
V12,76.0,72.0,48.0,58.0,43.0,72,3939.0,square1,j,0.2447,0,V,12.0
V12,77.0,74.0,57.0,59.0,44.0,74,4013.0,square1,j,0.1403,0,V,12.0
V12,78.0,69.0,55.0,63.0,50.0,69,4082.0,square1,j,0.2383,0,V,12.0
V12,79.0,73.0,53.0,58.0,43.0,73,4155.0,square1,j,0.1807,0,V,12.0
V12,80.0,71.0,47.0,65.0,40.0,71,4226.0,square1,j,0.1183,0,V,12.0
V12,81.0,66.0,49.0,57.0,40.0,66,4292.0,square1,j,0.076,0,V,12.0
V12,82.0,71.0,53.0,57.0,48.0,71,4363.0,square1,j,0.161,0,V,12.0
V12,83.0,70.0,50.0,56.0,49.0,70,4433.0,square1,j,0.1761,0,V,12.0
V12,84.0,69.0,45.0,64.0,43.0,69,4502.0,square1,j,0.1133,0,V,12.0
V12,85.0,64.0,48.0,54.0,42.0,64,4566.0,square1,j,0.1279,0,V,12.0
V12,86.0,71.0,49.0,63.0,44.0,71,4637.0,square1,j,0.0019,0,V,12.0
V12,87.0,72.0,52.0,55.0,42.0,72,4709.0,square1,j,0.0852,0,V,12.0
V12,88.0,64.0,48.0,59.0,44.0,64,4773.0,square1,j,0.0486,0,V,12.0
V12,89.0,69.0,48.0,62.0,45.0,69,4842.0,square1,j,0.0113,0,V,12.0
V12,90.0,68.0,56.0,60.0,42.0,68,4910.0,square1,j,0.2457,0,V,12.0
V12,91.0,69.0,52.0,62.0,45.0,69,4979.0,square1,j,0.3446,0,V,12.0
V12,92.0,65.0,50.0,64.0,47.0,65,5044.0,square1,j,0.0611,0,V,12.0
V12,93.0,68.0,51.0,62.0,43.0,68,5112.0,square1,j,0.4309,0,V,12.0
V12,94.0,68.0,52.0,60.0,38.0,68,5180.0,square1,j,0.2192,0,V,12.0
V12,95.0,71.0,52.0,58.0,47.0,71,5251.0,square1,j,0.4145,0,V,12.0
V12,96.0,66.0,49.0,59.0,44.0,66,5317.0,square1,j,0.3632,0,V,12.0
V12,97.0,74.0,47.0,54.0,47.0,74,5391.0,square1,j,0.1756,0,V,12.0
V12,98.0,68.0,43.0,64.0,41.0,68,5459.0,square1,j,0.0775,0,V,12.0
V12,99.0,71.0,53.0,62.0,44.0,71,5530.0,square1,j,0.1411,0,V,12.0
V8,0.0,49.0,55.0,64.0,74.0,49,49.0,square1,r,0.7435,0,V,8.0
V8,1.0,51.0,54.0,70.0,81.0,70,119.0,square3,i,0.2181,2,V,8.0
V8,2.0,46.0,62.0,70.0,77.0,77,196.0,square4,f,0.3186,3,V,8.0
V8,3.0,46.0,56.0,67.0,75.0,56,252.0,square2,j,0.2185,1,V,8.0
V8,4.0,50.0,59.0,67.0,83.0,83,335.0,square4,f,0.0725,3,V,8.0
V8,5.0,51.0,54.0,65.0,78.0,78,413.0,square4,f,0.2097,3,V,8.0
V8,6.0,45.0,57.0,66.0,80.0,80,493.0,square4,f,0.1516,3,V,8.0
V8,7.0,46.0,64.0,68.0,77.0,77,570.0,square4,f,0.2851,3,V,8.0
V8,8.0,50.0,57.0,66.0,73.0,73,643.0,square4,f,0.1182,3,V,8.0
V8,9.0,46.0,56.0,71.0,72.0,72,715.0,square4,f,0.1552,3,V,8.0
V8,10.0,56.0,58.0,67.0,75.0,75,790.0,square4,f,0.1615,3,V,8.0
V8,11.0,50.0,61.0,69.0,74.0,74,864.0,square4,f,0.2669,3,V,8.0
V8,12.0,59.0,59.0,69.0,77.0,77,941.0,square4,f,0.2417,3,V,8.0
V8,13.0,50.0,56.0,72.0,77.0,77,1018.0,square4,f,0.2223,3,V,8.0
V8,14.0,48.0,55.0,65.0,80.0,80,1098.0,square4,f,0.1462,3,V,8.0
V8,15.0,48.0,58.0,65.0,76.0,65,1163.0,square3,i,0.1354,2,V,8.0
V8,16.0,49.0,58.0,67.0,75.0,75,1238.0,square4,f,0.1282,3,V,8.0
V8,17.0,51.0,56.0,68.0,76.0,76,1314.0,square4,f,0.1007,3,V,8.0
V8,18.0,52.0,63.0,69.0,80.0,80,1394.0,square4,f,0.1446,3,V,8.0
V8,19.0,54.0,54.0,71.0,79.0,79,1473.0,square4,f,0.14,3,V,8.0
V8,20.0,48.0,53.0,62.0,77.0,77,1550.0,square4,f,0.0679,3,V,8.0
V8,21.0,44.0,61.0,66.0,77.0,77,1627.0,square4,f,0.1166,3,V,8.0
V8,22.0,52.0,58.0,64.0,78.0,78,1705.0,square4,f,0.1023,3,V,8.0
V8,23.0,50.0,49.0,67.0,79.0,79,1784.0,square4,f,0.0217,3,V,8.0
V8,24.0,49.0,59.0,69.0,74.0,74,1858.0,square4,f,0.1213,3,V,8.0
V8,25.0,46.0,61.0,65.0,81.0,81,1939.0,square4,f,0.0242,3,V,8.0
V8,26.0,49.0,58.0,63.0,35.0,35,1974.0,square4,f,0.185,3,V,8.0
V8,27.0,48.0,51.0,66.0,41.0,48,2022.0,square1,r,0.2357,0,V,8.0
V8,28.0,46.0,55.0,65.0,38.0,65,2087.0,square3,i,0.0851,2,V,8.0
V8,29.0,47.0,58.0,69.0,40.0,58,2145.0,square2,j,0.1392,1,V,8.0
V8,30.0,42.0,55.0,67.0,43.0,67,2212.0,square3,i,0.1018,2,V,8.0
V8,31.0,49.0,56.0,64.0,36.0,64,2276.0,square3,i,0.1389,2,V,8.0
V8,32.0,49.0,55.0,69.0,38.0,69,2345.0,square3,i,0.0844,2,V,8.0
V8,33.0,44.0,52.0,65.0,48.0,65,2410.0,square3,i,0.0176,2,V,8.0
V8,34.0,44.0,57.0,70.0,45.0,70,2480.0,square3,i,0.0679,2,V,8.0
V8,35.0,44.0,54.0,68.0,38.0,68,2548.0,square3,i,0.1018,2,V,8.0
V8,36.0,45.0,56.0,64.0,40.0,64,2612.0,square3,i,0.1676,2,V,8.0
V8,37.0,47.0,57.0,66.0,37.0,66,2678.0,square3,i,0.0452,2,V,8.0
V8,38.0,49.0,50.0,66.0,37.0,66,2744.0,square3,i,0.1673,2,V,8.0
V8,39.0,51.0,56.0,61.0,39.0,61,2805.0,square3,i,0.0666,2,V,8.0
V8,40.0,47.0,59.0,66.0,41.0,66,2871.0,square3,i,0.0905,2,V,8.0
V8,41.0,42.0,56.0,69.0,42.0,69,2940.0,square3,i,0.2185,2,V,8.0
V8,42.0,47.0,57.0,72.0,35.0,72,3012.0,square3,i,0.0237,2,V,8.0
V8,43.0,47.0,57.0,63.0,44.0,63,3075.0,square3,i,0.085,2,V,8.0
V8,44.0,45.0,58.0,67.0,42.0,67,3142.0,square3,i,0.1005,2,V,8.0
V8,45.0,44.0,56.0,66.0,43.0,66,3208.0,square3,i,0.0359,2,V,8.0
V8,46.0,46.0,53.0,70.0,37.0,70,3278.0,square3,i,0.1327,2,V,8.0
V8,47.0,54.0,53.0,71.0,41.0,71,3349.0,square3,i,0.5193,2,V,8.0
V8,48.0,49.0,53.0,69.0,37.0,69,3418.0,square3,i,0.0401,2,V,8.0
V8,49.0,39.0,57.0,65.0,47.0,65,3483.0,square3,i,0.2565,2,V,8.0
V8,50.0,48.0,55.0,65.0,41.0,65,3548.0,square3,i,0.1017,2,V,8.0
V8,51.0,45.0,61.0,68.0,43.0,68,3616.0,square3,i,0.0512,2,V,8.0
V8,52.0,53.0,52.0,68.0,37.0,68,3684.0,square3,i,0.0832,2,V,8.0
V8,53.0,47.0,55.0,66.0,46.0,66,3750.0,square3,i,0.0671,2,V,8.0
V8,54.0,49.0,53.0,61.0,39.0,61,3811.0,square3,i,0.101,2,V,8.0
V8,55.0,53.0,70.0,55.0,72.0,55,3866.0,square3,i,0.0346,2,V,8.0
V8,56.0,57.0,63.0,48.0,73.0,57,3923.0,square1,r,0.0551,0,V,8.0
V8,57.0,53.0,71.0,45.0,80.0,71,3994.0,square2,j,0.086,1,V,8.0
V8,58.0,57.0,69.0,52.0,73.0,69,4063.0,square2,j,0.0892,1,V,8.0
V8,59.0,58.0,67.0,54.0,73.0,67,4130.0,square2,j,0.0017,1,V,8.0
V8,60.0,55.0,66.0,47.0,76.0,66,4196.0,square2,j,0.0179,1,V,8.0
V8,61.0,56.0,65.0,54.0,72.0,72,4268.0,square4,f,0.5513,3,V,8.0
V8,62.0,56.0,65.0,49.0,75.0,75,4343.0,square4,f,0.0752,3,V,8.0
V8,63.0,61.0,65.0,44.0,78.0,78,4421.0,square4,f,0.0017,3,V,8.0
V8,64.0,54.0,66.0,48.0,75.0,75,4496.0,square4,f,0.1332,3,V,8.0
V8,65.0,59.0,65.0,46.0,79.0,79,4575.0,square4,f,0.1016,3,V,8.0
V8,66.0,51.0,62.0,46.0,73.0,73,4648.0,square4,f,0.2049,3,V,8.0
V8,67.0,60.0,70.0,45.0,76.0,76,4724.0,square4,f,0.3676,3,V,8.0
V8,68.0,63.0,64.0,47.0,73.0,73,4797.0,square4,f,0.5575,3,V,8.0
V8,69.0,58.0,66.0,43.0,77.0,77,4874.0,square4,f,0.5051,3,V,8.0
V8,70.0,59.0,65.0,49.0,73.0,73,4947.0,square4,f,0.1844,3,V,8.0
V8,71.0,60.0,64.0,49.0,79.0,79,5026.0,square4,f,0.1097,3,V,8.0
V8,72.0,96.0,68.0,78.0,67.0,67,5093.0,square4,f,0.1914,3,V,8.0
V8,73.0,96.0,68.0,79.0,64.0,64,5157.0,square4,f,0.1338,3,V,8.0
V8,74.0,92.0,67.0,81.0,62.0,62,5219.0,square4,f,0.1681,3,V,8.0
V8,75.0,96.0,72.0,83.0,62.0,62,5281.0,square4,f,0.1095,3,V,8.0
V8,76.0,94.0,70.0,77.0,57.0,57,5338.0,square4,f,0.1513,3,V,8.0
V8,77.0,91.0,68.0,81.0,59.0,59,5397.0,square4,f,0.135,3,V,8.0
V8,78.0,90.0,73.0,80.0,63.0,80,5477.0,square3,i,0.0016,2,V,8.0
V8,79.0,90.0,73.0,83.0,61.0,83,5560.0,square3,i,0.1519,2,V,8.0
V8,80.0,95.0,75.0,81.0,66.0,81,5641.0,square3,i,0.1032,2,V,8.0
V8,81.0,92.0,72.0,81.0,57.0,81,5722.0,square3,i,0.1366,2,V,8.0
V8,82.0,91.0,71.0,80.0,61.0,80,5802.0,square3,i,0.0335,2,V,8.0
V8,83.0,90.0,66.0,83.0,62.0,83,5885.0,square3,i,0.0345,2,V,8.0
V8,84.0,93.0,67.0,87.0,65.0,87,5972.0,square3,i,0.0386,2,V,8.0
V8,85.0,85.0,70.0,80.0,62.0,80,6052.0,square3,i,0.034,2,V,8.0
V8,86.0,84.0,72.0,85.0,62.0,85,6137.0,square3,i,0.0084,2,V,8.0
V8,87.0,91.0,68.0,82.0,65.0,82,6219.0,square3,i,0.0016,2,V,8.0
V8,88.0,93.0,67.0,83.0,61.0,83,6302.0,square3,i,0.0016,2,V,8.0
V8,89.0,95.0,68.0,78.0,66.0,78,6380.0,square3,i,0.2168,2,V,8.0
V8,90.0,91.0,73.0,80.0,60.0,80,6460.0,square3,i,0.0348,2,V,8.0
V8,91.0,93.0,68.0,81.0,64.0,68,6528.0,square2,j,0.2678,1,V,8.0
V8,92.0,90.0,75.0,82.0,67.0,82,6610.0,square3,i,0.0094,2,V,8.0
V8,93.0,92.0,70.0,82.0,66.0,82,6692.0,square3,i,0.1173,2,V,8.0
V8,94.0,90.0,71.0,78.0,63.0,78,6770.0,square3,i,0.035,2,V,8.0
V8,95.0,88.0,65.0,78.0,63.0,78,6848.0,square3,i,0.0413,2,V,8.0
V8,96.0,89.0,72.0,85.0,62.0,85,6933.0,square3,i,0.0847,2,V,8.0
V8,97.0,92.0,72.0,77.0,67.0,77,7010.0,square3,i,0.0712,2,V,8.0
V8,98.0,86.0,63.0,82.0,62.0,82,7092.0,square3,i,0.0762,2,V,8.0
V8,99.0,90.0,66.0,75.0,61.0,75,7167.0,square3,i,0.1725,2,V,8.0
V2,0.0,33.0,24.0,43.0,18.0,18,18.0,square4,r,1.2306,3,V,2.0
V2,1.0,33.0,29.0,42.0,21.0,42,60.0,square3,f,0.0087,2,V,2.0
V2,2.0,37.0,26.0,45.0,22.0,26,86.0,square2,i,1.0696,1,V,2.0
V2,3.0,39.0,26.0,41.0,20.0,39,125.0,square1,j,0.1601,0,V,2.0
V2,4.0,29.0,32.0,45.0,19.0,45,170.0,square3,f,0.1423,2,V,2.0
V2,5.0,33.0,28.0,44.0,17.0,44,214.0,square3,f,0.0625,2,V,2.0
V2,6.0,32.0,24.0,49.0,20.0,49,263.0,square3,f,0.0156,2,V,2.0
V2,7.0,32.0,21.0,42.0,13.0,13,276.0,square4,r,0.0772,3,V,2.0
V2,8.0,35.0,23.0,45.0,19.0,45,321.0,square3,f,0.1103,2,V,2.0
V2,9.0,33.0,28.0,46.0,17.0,46,367.0,square3,f,0.1276,2,V,2.0
V2,10.0,39.0,27.0,45.0,21.0,45,412.0,square3,f,0.2739,2,V,2.0
V2,11.0,30.0,23.0,44.0,22.0,44,456.0,square3,f,0.1107,2,V,2.0
V2,12.0,31.0,26.0,43.0,16.0,43,499.0,square3,f,0.0916,2,V,2.0
V2,13.0,35.0,26.0,43.0,22.0,43,542.0,square3,f,0.3454,2,V,2.0
V2,14.0,35.0,29.0,46.0,19.0,46,588.0,square3,f,0.1814,2,V,2.0
V2,15.0,36.0,22.0,44.0,20.0,44,632.0,square3,f,0.1276,2,V,2.0
V2,16.0,33.0,27.0,45.0,19.0,45,677.0,square3,f,0.001,2,V,2.0
V2,17.0,35.0,25.0,41.0,15.0,41,718.0,square3,f,0.1204,2,V,2.0
V2,18.0,37.0,27.0,51.0,21.0,51,769.0,square3,f,0.0018,2,V,2.0
V2,19.0,33.0,25.0,43.0,18.0,43,812.0,square3,f,0.0774,2,V,2.0
V2,20.0,39.0,25.0,43.0,20.0,43,855.0,square3,f,0.0478,2,V,2.0
V2,21.0,27.0,32.0,43.0,24.0,43,898.0,square3,f,0.077,2,V,2.0
V2,22.0,35.0,27.0,50.0,13.0,27,925.0,square2,i,0.0934,1,V,2.0
V2,23.0,36.0,25.0,39.0,17.0,36,961.0,square1,j,0.2806,0,V,2.0
V2,24.0,32.0,45.0,39.0,59.0,59,1020.0,square4,r,0.1781,3,V,2.0
V2,25.0,26.0,43.0,37.0,55.0,55,1075.0,square4,r,0.1616,3,V,2.0
V2,26.0,23.0,45.0,39.0,58.0,58,1133.0,square4,r,0.1947,3,V,2.0
V2,27.0,30.0,44.0,40.0,56.0,56,1189.0,square4,r,0.0964,3,V,2.0
V2,28.0,34.0,48.0,41.0,54.0,54,1243.0,square4,r,0.2164,3,V,2.0
V2,29.0,29.0,42.0,35.0,54.0,54,1297.0,square4,r,0.0461,3,V,2.0
V2,30.0,22.0,39.0,39.0,55.0,39,1336.0,square3,f,0.293,2,V,2.0
V2,31.0,32.0,48.0,35.0,50.0,48,1384.0,square2,i,0.0946,1,V,2.0
V2,32.0,27.0,47.0,40.0,58.0,27,1411.0,square1,j,0.0993,0,V,2.0
V2,33.0,28.0,46.0,31.0,54.0,54,1465.0,square4,r,0.1608,3,V,2.0
V2,34.0,28.0,44.0,41.0,49.0,44,1509.0,square2,i,0.0016,1,V,2.0
V2,35.0,31.0,44.0,33.0,59.0,59,1568.0,square4,r,0.2133,3,V,2.0
V2,36.0,29.0,48.0,30.0,55.0,55,1623.0,square4,r,0.0607,3,V,2.0
V2,37.0,25.0,45.0,32.0,51.0,51,1674.0,square4,r,0.1951,3,V,2.0
V2,38.0,29.0,48.0,33.0,54.0,54,1728.0,square4,r,0.2205,3,V,2.0
V2,39.0,29.0,44.0,33.0,54.0,54,1782.0,square4,r,0.4023,3,V,2.0
V2,40.0,33.0,42.0,37.0,61.0,61,1843.0,square4,r,0.3475,3,V,2.0
V2,41.0,28.0,45.0,41.0,57.0,57,1900.0,square4,r,0.4786,3,V,2.0
V2,42.0,33.0,46.0,36.0,54.0,54,1954.0,square4,r,0.1668,3,V,2.0
V2,43.0,31.0,42.0,40.0,57.0,57,2011.0,square4,r,0.1939,3,V,2.0
V2,44.0,27.0,45.0,38.0,56.0,56,2067.0,square4,r,0.3606,3,V,2.0
V2,45.0,27.0,44.0,32.0,51.0,51,2118.0,square4,r,0.1999,3,V,2.0
V2,46.0,28.0,44.0,39.0,57.0,57,2175.0,square4,r,0.2939,3,V,2.0
V2,47.0,30.0,45.0,36.0,56.0,56,2231.0,square4,r,0.1444,3,V,2.0
V2,48.0,31.0,47.0,41.0,59.0,59,2290.0,square4,r,0.1753,3,V,2.0
V2,49.0,32.0,45.0,33.0,57.0,57,2347.0,square4,r,0.076,3,V,2.0
V2,50.0,24.0,38.0,36.0,52.0,52,2399.0,square4,r,0.3782,3,V,2.0
V2,51.0,29.0,48.0,34.0,54.0,54,2453.0,square4,r,0.2126,3,V,2.0
V2,52.0,30.0,50.0,38.0,56.0,56,2509.0,square4,r,0.1621,3,V,2.0
V2,53.0,27.0,47.0,33.0,55.0,55,2564.0,square4,r,0.2729,3,V,2.0
V2,54.0,34.0,21.0,45.0,25.0,25,2589.0,square4,r,0.1106,3,V,2.0
V2,55.0,36.0,19.0,39.0,24.0,19,2608.0,square2,i,0.0839,1,V,2.0
V2,56.0,29.0,19.0,45.0,18.0,29,2637.0,square1,j,0.0138,0,V,2.0
V2,57.0,29.0,20.0,39.0,20.0,39,2676.0,square3,f,0.0506,2,V,2.0
V2,58.0,40.0,18.0,42.0,21.0,42,2718.0,square3,f,0.0734,2,V,2.0
V2,59.0,31.0,17.0,44.0,23.0,44,2762.0,square3,f,0.1255,2,V,2.0
V2,60.0,31.0,19.0,42.0,20.0,42,2804.0,square3,f,0.1659,2,V,2.0
V2,61.0,34.0,16.0,41.0,25.0,16,2820.0,square2,i,0.061,1,V,2.0
V2,62.0,28.0,12.0,41.0,22.0,28,2848.0,square1,j,0.0484,0,V,2.0
V2,63.0,32.0,14.0,45.0,26.0,26,2874.0,square4,r,0.0941,3,V,2.0
V2,64.0,36.0,21.0,41.0,25.0,41,2915.0,square3,f,0.0773,2,V,2.0
V2,65.0,32.0,13.0,39.0,24.0,39,2954.0,square3,f,0.3116,2,V,2.0
V2,66.0,35.0,15.0,42.0,20.0,42,2996.0,square3,f,0.1697,2,V,2.0
V2,67.0,30.0,23.0,47.0,27.0,47,3043.0,square3,f,0.1112,2,V,2.0
V2,68.0,31.0,17.0,43.0,24.0,43,3086.0,square3,f,0.0698,2,V,2.0
V2,69.0,33.0,20.0,41.0,20.0,41,3127.0,square3,f,0.1107,2,V,2.0
V2,70.0,37.0,17.0,43.0,21.0,17,3144.0,square2,i,0.3441,1,V,2.0
V2,71.0,45.0,31.0,36.0,58.0,45,3189.0,square1,j,0.2025,0,V,2.0
V2,72.0,47.0,31.0,31.0,54.0,54,3243.0,square4,r,0.2087,3,V,2.0
V2,73.0,50.0,30.0,33.0,55.0,55,3298.0,square4,r,0.1106,3,V,2.0
V2,74.0,45.0,31.0,36.0,51.0,51,3349.0,square4,r,0.2774,3,V,2.0
V2,75.0,47.0,28.0,38.0,54.0,38,3387.0,square3,f,0.283,2,V,2.0
V2,76.0,52.0,33.0,35.0,60.0,60,3447.0,square4,r,0.2354,3,V,2.0
V2,77.0,41.0,29.0,37.0,53.0,41,3488.0,square1,j,0.1845,0,V,2.0
V2,78.0,51.0,24.0,34.0,56.0,56,3544.0,square4,r,0.2698,3,V,2.0
V2,79.0,41.0,34.0,36.0,52.0,41,3585.0,square1,j,0.1511,0,V,2.0
V2,80.0,48.0,31.0,37.0,51.0,51,3636.0,square4,r,0.294,3,V,2.0
V2,81.0,43.0,32.0,40.0,53.0,43,3679.0,square1,j,0.2311,0,V,2.0
V2,82.0,48.0,25.0,37.0,58.0,58,3737.0,square4,r,0.1067,3,V,2.0
V2,83.0,45.0,32.0,36.0,61.0,61,3798.0,square4,r,0.0554,3,V,2.0
V2,84.0,47.0,29.0,39.0,60.0,60,3858.0,square4,r,0.0345,3,V,2.0
V2,85.0,49.0,30.0,39.0,54.0,54,3912.0,square4,r,0.0537,3,V,2.0
V2,86.0,46.0,28.0,33.0,51.0,51,3963.0,square4,r,0.1004,3,V,2.0
V2,87.0,45.0,24.0,37.0,55.0,55,4018.0,square4,r,0.3095,3,V,2.0
V2,88.0,48.0,29.0,42.0,54.0,54,4072.0,square4,r,0.3391,3,V,2.0
V2,89.0,43.0,31.0,38.0,52.0,52,4124.0,square4,r,0.2514,3,V,2.0
V2,90.0,51.0,33.0,36.0,56.0,56,4180.0,square4,r,0.3541,3,V,2.0
V2,91.0,49.0,32.0,37.0,59.0,59,4239.0,square4,r,0.2503,3,V,2.0
V2,92.0,47.0,29.0,37.0,56.0,56,4295.0,square4,r,0.1235,3,V,2.0
V2,93.0,45.0,27.0,35.0,56.0,45,4340.0,square1,j,0.2069,0,V,2.0
V2,94.0,45.0,31.0,31.0,49.0,49,4389.0,square4,r,0.2684,3,V,2.0
V2,95.0,47.0,33.0,36.0,52.0,47,4436.0,square1,j,0.1016,0,V,2.0
V2,96.0,44.0,28.0,37.0,59.0,28,4464.0,square2,i,0.1571,1,V,2.0
V2,97.0,48.0,28.0,33.0,55.0,33,4497.0,square3,f,0.034,2,V,2.0
V2,98.0,49.0,29.0,39.0,60.0,49,4546.0,square1,j,0.1124,0,V,2.0
V2,99.0,44.0,30.0,36.0,50.0,50,4596.0,square4,r,0.0846,3,V,2.0
