block,Trial,square1,square2,square3,square4,currPoints,totalPoints,square,choiceKey.keys,choiceKey.rt,armNum,blockType,blockNum
prac,0.0,100.0,0.0,0.0,0.0,0,0.0,square3,,,2,p,0.0
prac,1.0,100.0,0.0,0.0,0.0,100,100.0,square1,,,0,p,0.0
prac,2.0,100.0,0.0,0.0,0.0,0,100.0,square2,,,1,p,0.0
prac,3.0,100.0,0.0,0.0,0.0,0,100.0,square4,,,3,p,0.0
prac,4.0,100.0,0.0,0.0,0.0,100,200.0,square1,,,0,p,0.0
prac,5.0,100.0,0.0,0.0,0.0,100,300.0,square1,,,0,p,0.0
prac,6.0,100.0,0.0,0.0,0.0,100,400.0,square1,,,0,p,0.0
prac,7.0,100.0,0.0,0.0,0.0,100,500.0,square1,,,0,p,0.0
prac,8.0,100.0,0.0,0.0,0.0,100,600.0,square1,,,0,p,0.0
prac,9.0,100.0,0.0,0.0,0.0,100,700.0,square1,,,0,p,0.0
NS6,0.0,68.0,18.0,30.0,58.0,58,58.0,square4,r,0.8592,3,N,6.0
NS6,1.0,62.0,23.0,38.0,67.0,38,96.0,square3,i,0.3538,2,N,6.0
NS6,2.0,59.0,30.0,33.0,67.0,59,155.0,square1,j,0.0226,0,N,6.0
NS6,3.0,62.0,27.0,39.0,65.0,27,182.0,square2,f,0.4371,1,N,6.0
NS6,4.0,65.0,22.0,32.0,67.0,65,247.0,square1,j,0.338,0,N,6.0
NS6,5.0,61.0,28.0,39.0,67.0,61,308.0,square1,j,0.3556,0,N,6.0
NS6,6.0,59.0,28.0,39.0,66.0,66,374.0,square4,r,0.3217,3,N,6.0
NS6,7.0,56.0,30.0,43.0,63.0,63,437.0,square4,r,0.2733,3,N,6.0
NS6,8.0,57.0,26.0,36.0,60.0,60,497.0,square4,r,0.205,3,N,6.0
NS6,9.0,51.0,30.0,38.0,65.0,38,535.0,square3,i,0.2876,2,N,6.0
NS6,10.0,46.0,26.0,41.0,61.0,46,581.0,square1,j,0.3192,0,N,6.0
NS6,11.0,46.0,30.0,40.0,58.0,58,639.0,square4,r,0.1114,3,N,6.0
NS6,12.0,44.0,27.0,41.0,56.0,27,666.0,square2,f,1.0197,1,N,6.0
NS6,13.0,41.0,32.0,44.0,54.0,99999,666.0,invalid,,,-1,N,6.0
NS6,14.0,45.0,36.0,41.0,51.0,99999,666.0,invalid,,,-1,N,6.0
NS6,15.0,37.0,34.0,39.0,54.0,39,705.0,square3,i,0.3045,2,N,6.0
NS6,16.0,36.0,37.0,39.0,48.0,36,741.0,square1,j,1.3698,0,N,6.0
NS6,17.0,41.0,39.0,36.0,45.0,39,780.0,square2,f,0.6706,1,N,6.0
NS6,18.0,39.0,38.0,29.0,48.0,38,818.0,square2,f,1.1124,1,N,6.0
NS6,19.0,35.0,40.0,32.0,46.0,35,853.0,square1,j,0.0709,0,N,6.0
NS6,20.0,41.0,40.0,28.0,55.0,41,894.0,square1,j,0.038,0,N,6.0
NS6,21.0,45.0,44.0,27.0,54.0,45,939.0,square1,j,0.2812,0,N,6.0
NS6,22.0,44.0,51.0,31.0,53.0,44,983.0,square1,j,0.1374,0,N,6.0
NS6,23.0,44.0,50.0,29.0,53.0,44,1027.0,square1,j,0.1075,0,N,6.0
NS6,24.0,49.0,49.0,35.0,55.0,49,1076.0,square1,j,0.3098,0,N,6.0
NS6,25.0,44.0,51.0,36.0,56.0,36,1112.0,square3,i,0.1682,2,N,6.0
NS6,26.0,43.0,46.0,38.0,58.0,46,1158.0,square2,f,0.7719,1,N,6.0
NS6,27.0,41.0,44.0,41.0,59.0,44,1202.0,square2,f,0.4199,1,N,6.0
NS6,28.0,38.0,47.0,39.0,58.0,38,1240.0,square1,j,0.2839,0,N,6.0
NS6,29.0,39.0,46.0,37.0,54.0,46,1286.0,square2,f,0.2229,1,N,6.0
NS6,30.0,36.0,49.0,40.0,53.0,49,1335.0,square2,f,0.2715,1,N,6.0
NS6,31.0,37.0,45.0,36.0,55.0,45,1380.0,square2,f,0.3825,1,N,6.0
NS6,32.0,42.0,42.0,40.0,56.0,42,1422.0,square2,f,0.2051,1,N,6.0
NS6,33.0,33.0,44.0,32.0,53.0,44,1466.0,square2,f,0.1051,1,N,6.0
NS6,34.0,32.0,42.0,36.0,49.0,42,1508.0,square2,f,0.0221,1,N,6.0
NS6,35.0,35.0,28.0,38.0,51.0,38,1546.0,square3,i,0.088,2,N,6.0
NS6,36.0,38.0,28.0,35.0,52.0,28,1574.0,square2,f,0.0893,1,N,6.0
NS6,37.0,44.0,31.0,37.0,55.0,37,1611.0,square3,i,0.1037,2,N,6.0
NS6,38.0,36.0,31.0,36.0,54.0,36,1647.0,square3,i,0.0867,2,N,6.0
NS6,39.0,40.0,29.0,41.0,60.0,41,1688.0,square3,i,0.2046,2,N,6.0
NS6,40.0,46.0,33.0,36.0,62.0,36,1724.0,square3,i,0.4906,2,N,6.0
NS6,41.0,44.0,38.0,34.0,63.0,34,1758.0,square3,i,0.3032,2,N,6.0
NS6,42.0,43.0,32.0,29.0,59.0,29,1787.0,square3,i,0.1054,2,N,6.0
NS6,43.0,47.0,29.0,38.0,61.0,29,1816.0,square2,f,0.2737,1,N,6.0
NS6,44.0,49.0,33.0,36.0,56.0,33,1849.0,square2,f,0.2552,1,N,6.0
NS6,45.0,51.0,29.0,32.0,60.0,29,1878.0,square2,f,0.1421,1,N,6.0
NS6,46.0,52.0,36.0,41.0,64.0,41,1919.0,square3,i,0.0537,2,N,6.0
NS6,47.0,55.0,35.0,46.0,60.0,46,1965.0,square3,i,0.2706,2,N,6.0
NS6,48.0,57.0,34.0,40.0,64.0,40,2005.0,square3,i,0.4561,2,N,6.0
NS6,49.0,54.0,37.0,42.0,59.0,42,2047.0,square3,i,0.1718,2,N,6.0
NS6,50.0,58.0,40.0,35.0,51.0,35,2082.0,square3,i,0.3249,2,N,6.0
NS6,51.0,64.0,35.0,36.0,53.0,36,2118.0,square3,i,0.8369,2,N,6.0
NS6,52.0,60.0,37.0,30.0,52.0,30,2148.0,square3,i,0.325,2,N,6.0
NS6,53.0,63.0,40.0,30.0,54.0,30,2178.0,square3,i,0.3569,2,N,6.0
NS6,54.0,60.0,37.0,30.0,53.0,30,2208.0,square3,i,0.421,2,N,6.0
NS6,55.0,57.0,40.0,29.0,50.0,29,2237.0,square3,i,0.3375,2,N,6.0
NS6,56.0,58.0,30.0,30.0,46.0,58,2295.0,square1,j,0.2811,0,N,6.0
NS6,57.0,64.0,34.0,31.0,45.0,64,2359.0,square1,j,0.3718,0,N,6.0
NS6,58.0,66.0,31.0,34.0,48.0,66,2425.0,square1,j,0.138,0,N,6.0
NS6,59.0,68.0,31.0,35.0,44.0,68,2493.0,square1,j,0.3058,0,N,6.0
NS6,60.0,65.0,28.0,27.0,49.0,65,2558.0,square1,j,0.1872,0,N,6.0
NS6,61.0,67.0,29.0,25.0,47.0,67,2625.0,square1,j,0.2363,0,N,6.0
NS6,62.0,67.0,31.0,27.0,41.0,67,2692.0,square1,j,0.2065,0,N,6.0
NS6,63.0,69.0,32.0,24.0,45.0,69,2761.0,square1,j,0.2381,0,N,6.0
NS6,64.0,72.0,41.0,30.0,50.0,72,2833.0,square1,j,0.0711,0,N,6.0
NS6,65.0,75.0,35.0,33.0,50.0,75,2908.0,square1,j,0.1411,0,N,6.0
NS6,66.0,71.0,37.0,26.0,49.0,71,2979.0,square1,j,0.2018,0,N,6.0
NS6,67.0,74.0,34.0,21.0,49.0,74,3053.0,square1,j,0.0743,0,N,6.0
NS6,68.0,81.0,37.0,27.0,50.0,81,3134.0,square1,j,0.0897,0,N,6.0
NS6,69.0,80.0,31.0,25.0,49.0,80,3214.0,square1,j,0.0387,0,N,6.0
NS6,70.0,83.0,33.0,31.0,46.0,83,3297.0,square1,j,0.1219,0,N,6.0
NS6,71.0,75.0,33.0,34.0,53.0,75,3372.0,square1,j,0.2232,0,N,6.0
NS6,72.0,73.0,39.0,32.0,55.0,73,3445.0,square1,j,0.1553,0,N,6.0
NS6,73.0,74.0,40.0,33.0,53.0,40,3485.0,square2,f,0.2869,1,N,6.0
NS6,74.0,73.0,46.0,32.0,50.0,32,3517.0,square3,i,0.3054,2,N,6.0
NS6,75.0,71.0,40.0,32.0,49.0,71,3588.0,square1,j,0.121,0,N,6.0
NS6,76.0,65.0,43.0,31.0,56.0,65,3653.0,square1,j,0.2217,0,N,6.0
NS6,77.0,66.0,41.0,33.0,56.0,66,3719.0,square1,j,0.205,0,N,6.0
NS6,78.0,71.0,40.0,38.0,64.0,71,3790.0,square1,j,0.2198,0,N,6.0
NS6,79.0,69.0,36.0,35.0,62.0,69,3859.0,square1,j,0.0556,0,N,6.0
NS6,80.0,69.0,34.0,37.0,69.0,69,3928.0,square1,j,0.1386,0,N,6.0
NS6,81.0,70.0,37.0,37.0,71.0,70,3998.0,square1,j,0.1555,0,N,6.0
NS6,82.0,68.0,38.0,39.0,66.0,68,4066.0,square1,j,0.2886,0,N,6.0
NS6,83.0,69.0,42.0,41.0,73.0,69,4135.0,square1,j,0.1539,0,N,6.0
NS6,84.0,62.0,42.0,42.0,70.0,62,4197.0,square1,j,0.1733,0,N,6.0
NS6,85.0,57.0,45.0,42.0,77.0,57,4254.0,square1,j,0.1902,0,N,6.0
NS6,86.0,58.0,47.0,44.0,70.0,58,4312.0,square1,j,0.0548,0,N,6.0
NS6,87.0,62.0,44.0,52.0,73.0,62,4374.0,square1,j,0.006,0,N,6.0
NS6,88.0,62.0,45.0,47.0,72.0,62,4436.0,square1,j,0.1224,0,N,6.0
NS6,89.0,59.0,50.0,47.0,73.0,59,4495.0,square1,j,0.2887,0,N,6.0
NS6,90.0,55.0,45.0,44.0,68.0,55,4550.0,square1,j,0.122,0,N,6.0
NS6,91.0,55.0,51.0,47.0,67.0,55,4605.0,square1,j,0.0875,0,N,6.0
NS6,92.0,62.0,52.0,35.0,69.0,62,4667.0,square1,j,0.0214,0,N,6.0
NS6,93.0,59.0,47.0,32.0,68.0,59,4726.0,square1,j,0.1206,0,N,6.0
NS6,94.0,67.0,53.0,44.0,66.0,67,4793.0,square1,j,0.206,0,N,6.0
NS6,95.0,71.0,44.0,47.0,66.0,71,4864.0,square1,j,0.2037,0,N,6.0
NS6,96.0,68.0,53.0,47.0,66.0,68,4932.0,square1,j,0.021,0,N,6.0
NS6,97.0,65.0,49.0,44.0,64.0,65,4997.0,square1,j,0.1562,0,N,6.0
NS6,98.0,66.0,54.0,55.0,57.0,66,5063.0,square1,j,0.2548,0,N,6.0
NS6,99.0,69.0,57.0,51.0,56.0,69,5132.0,square1,j,0.1714,0,N,6.0
NS9,0.0,40.0,33.0,41.0,64.0,33,33.0,square2,r,0.6177,1,N,9.0
NS9,1.0,40.0,19.0,39.0,64.0,40,73.0,square1,i,0.0366,0,N,9.0
NS9,2.0,41.0,16.0,44.0,59.0,59,132.0,square4,j,0.0195,3,N,9.0
NS9,3.0,41.0,19.0,48.0,58.0,48,180.0,square3,f,0.255,2,N,9.0
NS9,4.0,46.0,18.0,45.0,54.0,54,234.0,square4,j,0.2226,3,N,9.0
NS9,5.0,40.0,17.0,53.0,54.0,54,288.0,square4,j,0.2892,3,N,9.0
NS9,6.0,40.0,19.0,47.0,46.0,46,334.0,square4,j,0.321,3,N,9.0
NS9,7.0,44.0,21.0,51.0,49.0,49,383.0,square4,j,0.2562,3,N,9.0
NS9,8.0,41.0,26.0,44.0,55.0,55,438.0,square4,j,0.3213,3,N,9.0
NS9,9.0,36.0,15.0,44.0,54.0,54,492.0,square4,j,0.1053,3,N,9.0
NS9,10.0,32.0,19.0,48.0,49.0,49,541.0,square4,j,0.2042,3,N,9.0
NS9,11.0,32.0,18.0,50.0,57.0,50,591.0,square3,f,0.1881,2,N,9.0
NS9,12.0,32.0,18.0,57.0,52.0,57,648.0,square3,f,0.12,2,N,9.0
NS9,13.0,32.0,8.0,58.0,56.0,58,706.0,square3,f,0.072,2,N,9.0
NS9,14.0,28.0,9.0,61.0,55.0,61,767.0,square3,f,0.1879,2,N,9.0
NS9,15.0,31.0,11.0,64.0,48.0,64,831.0,square3,f,0.0883,2,N,9.0
NS9,16.0,34.0,13.0,68.0,47.0,68,899.0,square3,f,0.0551,2,N,9.0
NS9,17.0,37.0,11.0,71.0,54.0,71,970.0,square3,f,0.4728,2,N,9.0
NS9,18.0,35.0,10.0,71.0,50.0,71,1041.0,square3,f,0.1915,2,N,9.0
NS9,19.0,32.0,21.0,77.0,49.0,77,1118.0,square3,f,0.1556,2,N,9.0
NS9,20.0,41.0,22.0,74.0,48.0,74,1192.0,square3,f,0.1213,2,N,9.0
NS9,21.0,40.0,21.0,75.0,50.0,75,1267.0,square3,f,0.19,2,N,9.0
NS9,22.0,42.0,23.0,72.0,54.0,72,1339.0,square3,f,0.0543,2,N,9.0
NS9,23.0,43.0,22.0,75.0,45.0,75,1414.0,square3,f,0.2248,2,N,9.0
NS9,24.0,41.0,18.0,70.0,49.0,70,1484.0,square3,f,0.1411,2,N,9.0
NS9,25.0,38.0,21.0,75.0,53.0,75,1559.0,square3,f,0.1232,2,N,9.0
NS9,26.0,40.0,20.0,73.0,54.0,20,1579.0,square2,r,0.4408,1,N,9.0
NS9,27.0,46.0,21.0,74.0,56.0,46,1625.0,square1,i,0.288,0,N,9.0
NS9,28.0,51.0,25.0,72.0,58.0,72,1697.0,square3,f,0.0377,2,N,9.0
NS9,29.0,43.0,29.0,71.0,56.0,71,1768.0,square3,f,0.0709,2,N,9.0
NS9,30.0,38.0,26.0,71.0,52.0,71,1839.0,square3,f,0.0217,2,N,9.0
NS9,31.0,43.0,23.0,73.0,53.0,73,1912.0,square3,f,0.0059,2,N,9.0
NS9,32.0,43.0,24.0,76.0,52.0,76,1988.0,square3,f,0.0061,2,N,9.0
NS9,33.0,41.0,18.0,72.0,49.0,72,2060.0,square3,f,0.0558,2,N,9.0
NS9,34.0,36.0,26.0,68.0,55.0,68,2128.0,square3,f,0.0383,2,N,9.0
NS9,35.0,34.0,34.0,68.0,52.0,68,2196.0,square3,f,0.0217,2,N,9.0
NS9,36.0,34.0,43.0,70.0,49.0,70,2266.0,square3,f,0.0562,2,N,9.0
NS9,37.0,32.0,41.0,61.0,47.0,61,2327.0,square3,f,0.0715,2,N,9.0
NS9,38.0,28.0,41.0,65.0,47.0,65,2392.0,square3,f,0.0863,2,N,9.0
NS9,39.0,28.0,43.0,61.0,48.0,61,2453.0,square3,f,0.0872,2,N,9.0
NS9,40.0,26.0,46.0,65.0,39.0,65,2518.0,square3,f,0.021,2,N,9.0
NS9,41.0,21.0,38.0,62.0,41.0,62,2580.0,square3,f,0.0066,2,N,9.0
NS9,42.0,18.0,37.0,59.0,42.0,59,2639.0,square3,f,0.2048,2,N,9.0
NS9,43.0,18.0,44.0,57.0,39.0,57,2696.0,square3,f,0.0559,2,N,9.0
NS9,44.0,19.0,43.0,58.0,36.0,36,2732.0,square4,j,0.0087,3,N,9.0
NS9,45.0,23.0,42.0,53.0,39.0,53,2785.0,square3,f,0.1543,2,N,9.0
NS9,46.0,22.0,48.0,58.0,43.0,48,2833.0,square2,r,0.2377,1,N,9.0
NS9,47.0,20.0,47.0,51.0,44.0,51,2884.0,square3,f,0.0212,2,N,9.0
NS9,48.0,21.0,43.0,57.0,40.0,57,2941.0,square3,f,0.2552,2,N,9.0
NS9,49.0,25.0,38.0,59.0,46.0,59,3000.0,square3,f,0.0058,2,N,9.0
NS9,50.0,27.0,41.0,49.0,52.0,49,3049.0,square3,f,0.1038,2,N,9.0
NS9,51.0,20.0,42.0,52.0,54.0,52,3101.0,square3,f,0.1211,2,N,9.0
NS9,52.0,18.0,41.0,51.0,48.0,51,3152.0,square3,f,0.2548,2,N,9.0
NS9,53.0,17.0,43.0,52.0,50.0,52,3204.0,square3,f,0.1374,2,N,9.0
NS9,54.0,27.0,37.0,55.0,56.0,55,3259.0,square3,f,0.0065,2,N,9.0
NS9,55.0,30.0,38.0,59.0,50.0,59,3318.0,square3,f,0.1211,2,N,9.0
NS9,56.0,32.0,49.0,54.0,59.0,54,3372.0,square3,f,0.1039,2,N,9.0
NS9,57.0,34.0,50.0,50.0,58.0,50,3422.0,square2,r,0.4899,1,N,9.0
NS9,58.0,28.0,49.0,54.0,51.0,28,3450.0,square1,i,0.2049,0,N,9.0
NS9,59.0,26.0,47.0,46.0,49.0,49,3499.0,square4,j,0.1545,3,N,9.0
NS9,60.0,30.0,47.0,50.0,51.0,47,3546.0,square2,r,0.1386,1,N,9.0
NS9,61.0,29.0,43.0,51.0,50.0,51,3597.0,square3,f,0.1197,2,N,9.0
NS9,62.0,32.0,42.0,52.0,54.0,52,3649.0,square3,f,0.1548,2,N,9.0
NS9,63.0,35.0,45.0,57.0,46.0,57,3706.0,square3,f,0.0701,2,N,9.0
NS9,64.0,37.0,41.0,53.0,44.0,53,3759.0,square3,f,0.0374,2,N,9.0
NS9,65.0,34.0,41.0,50.0,49.0,50,3809.0,square3,f,0.0369,2,N,9.0
NS9,66.0,38.0,43.0,46.0,53.0,46,3855.0,square3,f,0.0401,2,N,9.0
NS9,67.0,36.0,35.0,51.0,54.0,51,3906.0,square3,f,0.7877,2,N,9.0
NS9,68.0,43.0,38.0,48.0,57.0,48,3954.0,square3,f,0.4375,2,N,9.0
NS9,69.0,42.0,42.0,48.0,49.0,42,3996.0,square2,r,0.1728,1,N,9.0
NS9,70.0,45.0,40.0,50.0,51.0,50,4046.0,square3,f,0.2033,2,N,9.0
NS9,71.0,49.0,42.0,48.0,52.0,49,4095.0,square1,i,0.3862,0,N,9.0
NS9,72.0,39.0,44.0,47.0,58.0,39,4134.0,square1,i,0.3222,0,N,9.0
NS9,73.0,40.0,45.0,45.0,62.0,62,4196.0,square4,j,0.0714,3,N,9.0
NS9,74.0,46.0,48.0,47.0,56.0,56,4252.0,square4,j,0.0741,3,N,9.0
NS9,75.0,35.0,39.0,53.0,65.0,65,4317.0,square4,j,0.0867,3,N,9.0
NS9,76.0,40.0,45.0,56.0,67.0,67,4384.0,square4,j,0.5568,3,N,9.0
NS9,77.0,38.0,46.0,54.0,69.0,69,4453.0,square4,j,0.3388,3,N,9.0
NS9,78.0,37.0,42.0,53.0,69.0,69,4522.0,square4,j,0.2384,3,N,9.0
NS9,79.0,40.0,44.0,53.0,70.0,70,4592.0,square4,j,0.3043,3,N,9.0
NS9,80.0,37.0,50.0,55.0,70.0,70,4662.0,square4,j,0.2544,3,N,9.0
NS9,81.0,33.0,54.0,54.0,63.0,63,4725.0,square4,j,0.2705,3,N,9.0
NS9,82.0,35.0,55.0,52.0,74.0,74,4799.0,square4,j,0.1729,3,N,9.0
NS9,83.0,34.0,48.0,56.0,75.0,75,4874.0,square4,j,0.0713,3,N,9.0
NS9,84.0,39.0,51.0,62.0,78.0,78,4952.0,square4,j,0.2076,3,N,9.0
NS9,85.0,38.0,57.0,55.0,77.0,77,5029.0,square4,j,0.2052,3,N,9.0
NS9,86.0,34.0,53.0,57.0,68.0,68,5097.0,square4,j,0.2048,3,N,9.0
NS9,87.0,35.0,48.0,55.0,69.0,69,5166.0,square4,j,0.2888,3,N,9.0
NS9,88.0,41.0,48.0,50.0,69.0,50,5216.0,square3,f,0.2206,2,N,9.0
NS9,89.0,38.0,54.0,55.0,70.0,70,5286.0,square4,j,0.4206,3,N,9.0
NS9,90.0,43.0,55.0,49.0,71.0,71,5357.0,square4,j,0.2367,3,N,9.0
NS9,91.0,41.0,46.0,54.0,78.0,78,5435.0,square4,j,0.0708,3,N,9.0
NS9,92.0,40.0,42.0,41.0,72.0,72,5507.0,square4,j,0.0076,3,N,9.0
NS9,93.0,39.0,43.0,47.0,70.0,70,5577.0,square4,j,0.0707,3,N,9.0
NS9,94.0,36.0,47.0,43.0,80.0,80,5657.0,square4,j,0.1881,3,N,9.0
NS9,95.0,37.0,46.0,43.0,75.0,75,5732.0,square4,j,0.1719,3,N,9.0
NS9,96.0,39.0,47.0,47.0,75.0,75,5807.0,square4,j,0.1726,3,N,9.0
NS9,97.0,35.0,41.0,49.0,80.0,80,5887.0,square4,j,0.1726,3,N,9.0
NS9,98.0,33.0,45.0,56.0,74.0,74,5961.0,square4,j,0.1714,3,N,9.0
NS9,99.0,34.0,42.0,58.0,74.0,74,6035.0,square4,j,0.074,3,N,9.0
NS2,0.0,44.0,66.0,42.0,38.0,44,44.0,square1,r,0.5285,0,N,2.0
NS2,1.0,44.0,66.0,47.0,43.0,47,91.0,square3,i,0.1552,2,N,2.0
NS2,2.0,42.0,62.0,53.0,43.0,62,153.0,square2,j,0.0545,1,N,2.0
NS2,3.0,46.0,58.0,48.0,46.0,46,199.0,square4,f,0.0565,3,N,2.0
NS2,4.0,47.0,61.0,51.0,42.0,61,260.0,square2,j,0.2415,1,N,2.0
NS2,5.0,51.0,58.0,50.0,50.0,58,318.0,square2,j,0.1407,1,N,2.0
NS2,6.0,52.0,58.0,43.0,48.0,58,376.0,square2,j,0.2222,1,N,2.0
NS2,7.0,50.0,52.0,43.0,50.0,52,428.0,square2,j,0.1541,1,N,2.0
NS2,8.0,54.0,58.0,41.0,46.0,58,486.0,square2,j,0.3391,1,N,2.0
NS2,9.0,52.0,59.0,42.0,46.0,59,545.0,square2,j,0.1212,1,N,2.0
NS2,10.0,50.0,52.0,37.0,48.0,52,597.0,square2,j,0.0899,1,N,2.0
NS2,11.0,45.0,56.0,38.0,43.0,56,653.0,square2,j,0.089,1,N,2.0
NS2,12.0,50.0,56.0,37.0,48.0,56,709.0,square2,j,0.007,1,N,2.0
NS2,13.0,47.0,63.0,36.0,49.0,63,772.0,square2,j,0.1891,1,N,2.0
NS2,14.0,51.0,56.0,39.0,49.0,56,828.0,square2,j,0.0724,1,N,2.0
NS2,15.0,46.0,64.0,39.0,50.0,64,892.0,square2,j,0.2548,1,N,2.0
NS2,16.0,51.0,61.0,37.0,47.0,61,953.0,square2,j,0.0887,1,N,2.0
NS2,17.0,59.0,68.0,46.0,53.0,68,1021.0,square2,j,0.4606,1,N,2.0
NS2,18.0,53.0,65.0,42.0,49.0,65,1086.0,square2,j,0.2051,1,N,2.0
NS2,19.0,52.0,67.0,47.0,49.0,67,1153.0,square2,j,0.5399,1,N,2.0
NS2,20.0,56.0,64.0,45.0,48.0,64,1217.0,square2,j,0.2893,1,N,2.0
NS2,21.0,57.0,73.0,46.0,44.0,73,1290.0,square2,j,0.121,1,N,2.0
NS2,22.0,54.0,76.0,36.0,47.0,76,1366.0,square2,j,0.0877,1,N,2.0
NS2,23.0,55.0,77.0,35.0,42.0,77,1443.0,square2,j,0.138,1,N,2.0
NS2,24.0,53.0,68.0,35.0,46.0,68,1511.0,square2,j,0.0711,1,N,2.0
NS2,25.0,55.0,73.0,29.0,45.0,73,1584.0,square2,j,0.2219,1,N,2.0
NS2,26.0,52.0,69.0,30.0,49.0,69,1653.0,square2,j,0.1731,1,N,2.0
NS2,27.0,52.0,62.0,33.0,52.0,62,1715.0,square2,j,0.2359,1,N,2.0
NS2,28.0,58.0,62.0,33.0,47.0,62,1777.0,square2,j,0.0706,1,N,2.0
NS2,29.0,56.0,65.0,38.0,46.0,65,1842.0,square2,j,0.271,1,N,2.0
NS2,30.0,56.0,66.0,37.0,50.0,66,1908.0,square2,j,0.3056,1,N,2.0
NS2,31.0,50.0,64.0,35.0,45.0,64,1972.0,square2,j,0.3051,1,N,2.0
NS2,32.0,56.0,62.0,38.0,45.0,62,2034.0,square2,j,0.3707,1,N,2.0
NS2,33.0,59.0,58.0,34.0,48.0,58,2092.0,square2,j,0.3404,1,N,2.0
NS2,34.0,55.0,59.0,36.0,48.0,59,2151.0,square2,j,0.3543,1,N,2.0
NS2,35.0,54.0,57.0,33.0,48.0,57,2208.0,square2,j,0.272,1,N,2.0
NS2,36.0,53.0,58.0,34.0,51.0,53,2261.0,square1,r,0.2704,0,N,2.0
NS2,37.0,46.0,53.0,32.0,55.0,32,2293.0,square3,i,0.1051,2,N,2.0
NS2,38.0,46.0,59.0,37.0,49.0,49,2342.0,square4,f,0.1989,3,N,2.0
NS2,39.0,53.0,59.0,36.0,48.0,48,2390.0,square4,f,0.3051,3,N,2.0
NS2,40.0,46.0,60.0,37.0,42.0,46,2436.0,square1,r,0.2558,0,N,2.0
NS2,41.0,51.0,57.0,42.0,41.0,51,2487.0,square1,r,0.1539,0,N,2.0
NS2,42.0,49.0,53.0,46.0,41.0,49,2536.0,square1,r,0.1875,0,N,2.0
NS2,43.0,49.0,57.0,43.0,39.0,57,2593.0,square2,j,0.106,1,N,2.0
NS2,44.0,48.0,55.0,48.0,37.0,55,2648.0,square2,j,0.0058,1,N,2.0
NS2,45.0,49.0,52.0,34.0,36.0,52,2700.0,square2,j,0.105,1,N,2.0
NS2,46.0,50.0,46.0,39.0,34.0,46,2746.0,square2,j,0.0539,1,N,2.0
NS2,47.0,55.0,48.0,39.0,26.0,48,2794.0,square2,j,0.2381,1,N,2.0
NS2,48.0,55.0,42.0,41.0,31.0,42,2836.0,square2,j,0.1258,1,N,2.0
NS2,49.0,55.0,41.0,36.0,36.0,55,2891.0,square1,r,0.139,0,N,2.0
NS2,50.0,50.0,43.0,43.0,36.0,50,2941.0,square1,r,0.0886,0,N,2.0
NS2,51.0,49.0,40.0,44.0,32.0,49,2990.0,square1,r,0.2054,0,N,2.0
NS2,52.0,54.0,45.0,40.0,32.0,54,3044.0,square1,r,0.0554,0,N,2.0
NS2,53.0,55.0,44.0,42.0,38.0,55,3099.0,square1,r,0.1535,0,N,2.0
NS2,54.0,57.0,44.0,42.0,37.0,57,3156.0,square1,r,0.0897,0,N,2.0
NS2,55.0,56.0,47.0,35.0,29.0,56,3212.0,square1,r,0.0207,0,N,2.0
NS2,56.0,56.0,45.0,31.0,36.0,56,3268.0,square1,r,0.0083,0,N,2.0
NS2,57.0,48.0,43.0,33.0,36.0,48,3316.0,square1,r,0.1206,0,N,2.0
NS2,58.0,46.0,44.0,30.0,40.0,30,3346.0,square3,i,0.0064,2,N,2.0
NS2,59.0,45.0,36.0,33.0,37.0,37,3383.0,square4,f,0.441,3,N,2.0
NS2,60.0,45.0,37.0,32.0,38.0,45,3428.0,square1,r,0.2209,0,N,2.0
NS2,61.0,47.0,37.0,31.0,37.0,47,3475.0,square1,r,0.1891,0,N,2.0
NS2,62.0,46.0,36.0,28.0,34.0,46,3521.0,square1,r,0.1379,0,N,2.0
NS2,63.0,53.0,36.0,26.0,43.0,53,3574.0,square1,r,0.0886,0,N,2.0
NS2,64.0,53.0,37.0,24.0,45.0,53,3627.0,square1,r,0.1257,0,N,2.0
NS2,65.0,49.0,34.0,27.0,49.0,49,3676.0,square1,r,0.1899,0,N,2.0
NS2,66.0,50.0,30.0,26.0,57.0,50,3726.0,square1,r,0.1729,0,N,2.0
NS2,67.0,49.0,28.0,32.0,55.0,49,3775.0,square1,r,0.09,0,N,2.0
NS2,68.0,53.0,23.0,35.0,55.0,23,3798.0,square2,j,0.1711,1,N,2.0
NS2,69.0,49.0,29.0,33.0,51.0,51,3849.0,square4,f,1.2042,3,N,2.0
NS2,70.0,54.0,27.0,30.0,60.0,30,3879.0,square3,i,0.3391,2,N,2.0
NS2,71.0,57.0,28.0,31.0,59.0,57,3936.0,square1,r,0.8057,0,N,2.0
NS2,72.0,55.0,25.0,29.0,61.0,55,3991.0,square1,r,0.2043,0,N,2.0
NS2,73.0,63.0,29.0,31.0,56.0,63,4054.0,square1,r,0.2074,0,N,2.0
NS2,74.0,59.0,34.0,34.0,58.0,59,4113.0,square1,r,0.0878,0,N,2.0
NS2,75.0,58.0,37.0,31.0,53.0,58,4171.0,square1,r,0.4902,0,N,2.0
NS2,76.0,62.0,41.0,25.0,53.0,62,4233.0,square1,r,0.276,0,N,2.0
NS2,77.0,60.0,37.0,30.0,52.0,60,4293.0,square1,r,0.1711,0,N,2.0
NS2,78.0,63.0,37.0,37.0,50.0,63,4356.0,square1,r,0.0882,0,N,2.0
NS2,79.0,66.0,44.0,32.0,47.0,66,4422.0,square1,r,0.0393,0,N,2.0
NS2,80.0,65.0,41.0,30.0,45.0,65,4487.0,square1,r,0.6399,0,N,2.0
NS2,81.0,60.0,37.0,26.0,49.0,60,4547.0,square1,r,0.006,0,N,2.0
NS2,82.0,68.0,38.0,28.0,46.0,68,4615.0,square1,r,0.1896,0,N,2.0
NS2,83.0,63.0,42.0,30.0,49.0,30,4645.0,square3,i,0.1057,2,N,2.0
NS2,84.0,71.0,41.0,37.0,51.0,51,4696.0,square4,f,0.1557,3,N,2.0
NS2,85.0,63.0,47.0,29.0,40.0,47,4743.0,square2,j,0.0222,1,N,2.0
NS2,86.0,67.0,42.0,36.0,44.0,44,4787.0,square4,f,0.2899,3,N,2.0
NS2,87.0,62.0,45.0,31.0,41.0,62,4849.0,square1,r,0.1552,0,N,2.0
NS2,88.0,63.0,39.0,32.0,44.0,63,4912.0,square1,r,0.0742,0,N,2.0
NS2,89.0,66.0,39.0,37.0,39.0,66,4978.0,square1,r,0.0725,0,N,2.0
NS2,90.0,53.0,38.0,35.0,40.0,53,5031.0,square1,r,0.1223,0,N,2.0
NS2,91.0,57.0,39.0,38.0,43.0,57,5088.0,square1,r,0.0233,0,N,2.0
NS2,92.0,53.0,36.0,40.0,47.0,53,5141.0,square1,r,0.0548,0,N,2.0
NS2,93.0,47.0,39.0,43.0,38.0,47,5188.0,square1,r,0.1229,0,N,2.0
NS2,94.0,45.0,33.0,46.0,40.0,45,5233.0,square1,r,0.0732,0,N,2.0
NS2,95.0,49.0,38.0,53.0,36.0,49,5282.0,square1,r,0.1217,0,N,2.0
NS2,96.0,50.0,39.0,46.0,34.0,50,5332.0,square1,r,0.0057,0,N,2.0
NS2,97.0,57.0,37.0,44.0,41.0,57,5389.0,square1,r,0.0398,0,N,2.0
NS2,98.0,55.0,43.0,39.0,43.0,55,5444.0,square1,r,0.1715,0,N,2.0
NS2,99.0,56.0,46.0,41.0,41.0,56,5500.0,square1,r,0.0239,0,N,2.0
V3,0.0,62.0,45.0,70.0,53.0,70,70.0,square3,r,1.9492,2,V,3.0
V3,1.0,63.0,47.0,76.0,60.0,60,130.0,square4,i,0.2897,3,V,3.0
V3,2.0,65.0,54.0,73.0,57.0,73,203.0,square3,r,0.0063,2,V,3.0
V3,3.0,68.0,51.0,71.0,51.0,68,271.0,square1,j,0.1571,0,V,3.0
V3,4.0,61.0,49.0,75.0,53.0,49,320.0,square2,f,0.1711,1,V,3.0
V3,5.0,65.0,47.0,74.0,50.0,74,394.0,square3,r,0.1326,2,V,3.0
V3,6.0,61.0,51.0,72.0,57.0,57,451.0,square4,i,0.0706,3,V,3.0
V3,7.0,67.0,49.0,75.0,55.0,75,526.0,square3,r,0.1228,2,V,3.0
V3,8.0,64.0,48.0,76.0,56.0,76,602.0,square3,r,0.1392,2,V,3.0
V3,9.0,67.0,49.0,71.0,56.0,71,673.0,square3,r,0.5009,2,V,3.0
V3,10.0,65.0,50.0,71.0,56.0,71,744.0,square3,r,0.1034,2,V,3.0
V3,11.0,63.0,43.0,78.0,58.0,78,822.0,square3,r,0.1258,2,V,3.0
V3,12.0,66.0,53.0,73.0,54.0,73,895.0,square3,r,0.0059,2,V,3.0
V3,13.0,64.0,46.0,78.0,51.0,78,973.0,square3,r,0.0543,2,V,3.0
V3,14.0,67.0,51.0,71.0,58.0,71,1044.0,square3,r,0.0396,2,V,3.0
V3,15.0,61.0,50.0,73.0,54.0,73,1117.0,square3,r,0.1052,2,V,3.0
V3,16.0,64.0,52.0,74.0,54.0,74,1191.0,square3,r,0.0082,2,V,3.0
V3,17.0,61.0,48.0,74.0,55.0,74,1265.0,square3,r,0.1554,2,V,3.0
V3,18.0,65.0,50.0,70.0,59.0,70,1335.0,square3,r,0.0383,2,V,3.0
V3,19.0,64.0,52.0,76.0,56.0,76,1411.0,square3,r,0.0077,2,V,3.0
V3,20.0,64.0,50.0,69.0,58.0,69,1480.0,square3,r,0.1761,2,V,3.0
V3,21.0,66.0,50.0,72.0,56.0,72,1552.0,square3,r,0.087,2,V,3.0
V3,22.0,43.0,48.0,40.0,62.0,40,1592.0,square3,r,0.1062,2,V,3.0
V3,23.0,41.0,51.0,35.0,59.0,59,1651.0,square4,i,0.0378,3,V,3.0
V3,24.0,51.0,51.0,37.0,60.0,60,1711.0,square4,i,0.1878,3,V,3.0
V3,25.0,45.0,53.0,36.0,57.0,57,1768.0,square4,i,0.1399,3,V,3.0
V3,26.0,44.0,51.0,38.0,59.0,59,1827.0,square4,i,0.1861,3,V,3.0
V3,27.0,43.0,51.0,34.0,66.0,43,1870.0,square1,j,0.1391,0,V,3.0
V3,28.0,47.0,51.0,40.0,67.0,51,1921.0,square2,f,0.1575,1,V,3.0
V3,29.0,42.0,55.0,35.0,65.0,65,1986.0,square4,i,0.0067,3,V,3.0
V3,30.0,49.0,54.0,36.0,62.0,62,2048.0,square4,i,0.0208,3,V,3.0
V3,31.0,50.0,53.0,42.0,66.0,66,2114.0,square4,i,0.1224,3,V,3.0
V3,32.0,47.0,53.0,34.0,58.0,34,2148.0,square3,r,0.1554,2,V,3.0
V3,33.0,45.0,56.0,34.0,62.0,62,2210.0,square4,i,0.0753,3,V,3.0
V3,34.0,48.0,54.0,38.0,64.0,64,2274.0,square4,i,0.0235,3,V,3.0
V3,35.0,39.0,55.0,42.0,65.0,65,2339.0,square4,i,0.0392,3,V,3.0
V3,36.0,46.0,57.0,41.0,63.0,63,2402.0,square4,i,0.0726,3,V,3.0
V3,37.0,43.0,54.0,41.0,65.0,65,2467.0,square4,i,0.0732,3,V,3.0
V3,38.0,47.0,52.0,37.0,63.0,63,2530.0,square4,i,0.12,3,V,3.0
V3,39.0,47.0,53.0,38.0,55.0,55,2585.0,square4,i,0.0889,3,V,3.0
V3,40.0,41.0,54.0,39.0,64.0,64,2649.0,square4,i,0.0068,3,V,3.0
V3,41.0,48.0,52.0,38.0,64.0,64,2713.0,square4,i,0.04,3,V,3.0
V3,42.0,45.0,50.0,34.0,63.0,63,2776.0,square4,i,0.1426,3,V,3.0
V3,43.0,44.0,50.0,34.0,62.0,62,2838.0,square4,i,0.0217,3,V,3.0
V3,44.0,47.0,55.0,39.0,65.0,65,2903.0,square4,i,0.0894,3,V,3.0
V3,45.0,45.0,55.0,31.0,63.0,63,2966.0,square4,i,0.1057,3,V,3.0
V3,46.0,42.0,52.0,38.0,64.0,64,3030.0,square4,i,0.1221,3,V,3.0
V3,47.0,44.0,53.0,37.0,55.0,55,3085.0,square4,i,0.0216,3,V,3.0
V3,48.0,44.0,49.0,37.0,58.0,58,3143.0,square4,i,0.0875,3,V,3.0
V3,49.0,48.0,58.0,35.0,54.0,48,3191.0,square1,j,0.4746,0,V,3.0
V3,50.0,42.0,28.0,30.0,52.0,28,3219.0,square2,f,0.1082,1,V,3.0
V3,51.0,46.0,29.0,32.0,51.0,51,3270.0,square4,i,0.1048,3,V,3.0
V3,52.0,37.0,20.0,36.0,50.0,36,3306.0,square3,r,0.0702,2,V,3.0
V3,53.0,44.0,22.0,34.0,55.0,55,3361.0,square4,i,0.0553,3,V,3.0
V3,54.0,37.0,27.0,26.0,50.0,50,3411.0,square4,i,0.1199,3,V,3.0
V3,55.0,41.0,21.0,39.0,53.0,53,3464.0,square4,i,0.022,3,V,3.0
V3,56.0,40.0,20.0,38.0,51.0,51,3515.0,square4,i,0.0421,3,V,3.0
V3,57.0,44.0,28.0,31.0,57.0,57,3572.0,square4,i,0.0557,3,V,3.0
V3,58.0,46.0,20.0,28.0,49.0,49,3621.0,square4,i,0.1543,3,V,3.0
V3,59.0,44.0,24.0,30.0,55.0,55,3676.0,square4,i,0.1397,3,V,3.0
V3,60.0,42.0,29.0,29.0,51.0,51,3727.0,square4,i,0.0883,3,V,3.0
V3,61.0,41.0,21.0,30.0,46.0,46,3773.0,square4,i,0.0855,3,V,3.0
V3,62.0,41.0,27.0,31.0,49.0,49,3822.0,square4,i,0.0872,3,V,3.0
V3,63.0,42.0,27.0,34.0,51.0,51,3873.0,square4,i,0.0563,3,V,3.0
V3,64.0,41.0,24.0,30.0,47.0,47,3920.0,square4,i,0.022,3,V,3.0
V3,65.0,36.0,18.0,34.0,48.0,48,3968.0,square4,i,0.1551,3,V,3.0
V3,66.0,39.0,28.0,35.0,45.0,45,4013.0,square4,i,0.0537,3,V,3.0
V3,67.0,42.0,21.0,32.0,46.0,46,4059.0,square4,i,0.0721,3,V,3.0
V3,68.0,40.0,24.0,35.0,53.0,53,4112.0,square4,i,0.1209,3,V,3.0
V3,69.0,48.0,23.0,34.0,50.0,50,4162.0,square4,i,0.1544,3,V,3.0
V3,70.0,40.0,27.0,31.0,49.0,49,4211.0,square4,i,0.1065,3,V,3.0
V3,71.0,41.0,23.0,28.0,51.0,51,4262.0,square4,i,0.1557,3,V,3.0
V3,72.0,42.0,25.0,33.0,55.0,55,4317.0,square4,i,0.1554,3,V,3.0
V3,73.0,41.0,24.0,35.0,55.0,55,4372.0,square4,i,0.1215,3,V,3.0
V3,74.0,38.0,26.0,28.0,53.0,53,4425.0,square4,i,0.1206,3,V,3.0
V3,75.0,54.0,39.0,69.0,50.0,50,4475.0,square4,i,0.0386,3,V,3.0
V3,76.0,55.0,42.0,64.0,53.0,53,4528.0,square4,i,0.0404,3,V,3.0
V3,77.0,59.0,37.0,66.0,44.0,59,4587.0,square1,j,0.4504,0,V,3.0
V3,78.0,58.0,38.0,60.0,46.0,58,4645.0,square1,j,0.0069,0,V,3.0
V3,79.0,54.0,35.0,66.0,49.0,54,4699.0,square1,j,0.155,0,V,3.0
V3,80.0,60.0,36.0,68.0,44.0,60,4759.0,square1,j,0.0554,0,V,3.0
V3,81.0,55.0,38.0,66.0,51.0,55,4814.0,square1,j,0.1199,0,V,3.0
V3,82.0,57.0,47.0,64.0,50.0,57,4871.0,square1,j,0.1371,0,V,3.0
V3,83.0,57.0,37.0,63.0,45.0,57,4928.0,square1,j,0.1233,0,V,3.0
V3,84.0,54.0,40.0,65.0,53.0,54,4982.0,square1,j,0.1218,0,V,3.0
V3,85.0,58.0,41.0,63.0,48.0,58,5040.0,square1,j,0.0062,0,V,3.0
V3,86.0,53.0,38.0,57.0,49.0,53,5093.0,square1,j,0.0377,0,V,3.0
V3,87.0,49.0,42.0,60.0,43.0,42,5135.0,square2,f,0.1736,1,V,3.0
V3,88.0,56.0,35.0,70.0,46.0,35,5170.0,square2,f,0.4397,1,V,3.0
V3,89.0,58.0,39.0,63.0,52.0,63,5233.0,square3,r,0.1395,2,V,3.0
V3,90.0,59.0,43.0,63.0,45.0,63,5296.0,square3,r,0.0227,2,V,3.0
V3,91.0,54.0,37.0,69.0,49.0,69,5365.0,square3,r,0.0873,2,V,3.0
V3,92.0,56.0,41.0,61.0,47.0,61,5426.0,square3,r,0.0736,2,V,3.0
V3,93.0,58.0,35.0,68.0,47.0,68,5494.0,square3,r,0.1391,2,V,3.0
V3,94.0,61.0,37.0,67.0,51.0,67,5561.0,square3,r,0.1398,2,V,3.0
V3,95.0,57.0,32.0,64.0,47.0,64,5625.0,square3,r,0.0898,2,V,3.0
V3,96.0,53.0,38.0,63.0,48.0,63,5688.0,square3,r,0.1547,2,V,3.0
V3,97.0,57.0,44.0,71.0,50.0,71,5759.0,square3,r,0.171,2,V,3.0
V3,98.0,56.0,39.0,70.0,47.0,70,5829.0,square3,r,0.1726,2,V,3.0
V3,99.0,62.0,40.0,67.0,49.0,67,5896.0,square3,r,0.1234,2,V,3.0
V10,0.0,28.0,21.0,37.0,46.0,28,28.0,square1,r,0.9519,0,V,10.0
V10,1.0,26.0,19.0,41.0,49.0,41,69.0,square3,f,0.0207,2,V,10.0
V10,2.0,29.0,20.0,43.0,48.0,20,89.0,square2,i,0.0064,1,V,10.0
V10,3.0,27.0,27.0,37.0,44.0,44,133.0,square4,j,0.1216,3,V,10.0
V10,4.0,28.0,16.0,36.0,47.0,47,180.0,square4,j,0.2885,3,V,10.0
V10,5.0,33.0,25.0,42.0,54.0,33,213.0,square1,r,0.0376,0,V,10.0
V10,6.0,28.0,19.0,35.0,45.0,19,232.0,square2,i,0.0911,1,V,10.0
V10,7.0,30.0,24.0,35.0,49.0,35,267.0,square3,f,0.3073,2,V,10.0
V10,8.0,37.0,29.0,41.0,47.0,47,314.0,square4,j,0.1387,3,V,10.0
V10,9.0,28.0,21.0,41.0,48.0,48,362.0,square4,j,0.0545,3,V,10.0
V10,10.0,27.0,22.0,39.0,42.0,42,404.0,square4,j,0.1061,3,V,10.0
V10,11.0,32.0,16.0,41.0,48.0,48,452.0,square4,j,0.1562,3,V,10.0
V10,12.0,34.0,15.0,33.0,49.0,49,501.0,square4,j,0.2531,3,V,10.0
V10,13.0,36.0,19.0,41.0,45.0,45,546.0,square4,j,0.0896,3,V,10.0
V10,14.0,28.0,23.0,35.0,53.0,53,599.0,square4,j,0.0716,3,V,10.0
V10,15.0,26.0,28.0,40.0,50.0,50,649.0,square4,j,0.0382,3,V,10.0
V10,16.0,30.0,25.0,42.0,47.0,47,696.0,square4,j,0.0225,3,V,10.0
V10,17.0,31.0,19.0,38.0,50.0,50,746.0,square4,j,0.138,3,V,10.0
V10,18.0,34.0,21.0,35.0,48.0,48,794.0,square4,j,0.1721,3,V,10.0
V10,19.0,31.0,24.0,39.0,46.0,31,825.0,square1,r,0.8708,0,V,10.0
V10,20.0,28.0,22.0,42.0,47.0,22,847.0,square2,i,0.1047,1,V,10.0
V10,21.0,24.0,20.0,41.0,47.0,41,888.0,square3,f,0.0563,2,V,10.0
V10,22.0,32.0,22.0,34.0,44.0,44,932.0,square4,j,0.0229,3,V,10.0
V10,23.0,29.0,23.0,37.0,47.0,47,979.0,square4,j,0.1367,3,V,10.0
V10,24.0,25.0,25.0,38.0,46.0,46,1025.0,square4,j,0.0223,3,V,10.0
V10,25.0,30.0,24.0,41.0,45.0,45,1070.0,square4,j,0.0882,3,V,10.0
V10,26.0,32.0,17.0,38.0,49.0,49,1119.0,square4,j,0.1238,3,V,10.0
V10,27.0,34.0,21.0,38.0,47.0,47,1166.0,square4,j,0.056,3,V,10.0
V10,28.0,29.0,21.0,37.0,45.0,45,1211.0,square4,j,0.0058,3,V,10.0
V10,29.0,30.0,20.0,31.0,47.0,47,1258.0,square4,j,0.007,3,V,10.0
V10,30.0,28.0,21.0,35.0,44.0,44,1302.0,square4,j,0.1381,3,V,10.0
V10,31.0,36.0,25.0,14.0,8.0,8,1310.0,square4,j,0.0064,3,V,10.0
V10,32.0,38.0,27.0,19.0,11.0,11,1321.0,square4,j,0.0419,3,V,10.0
V10,33.0,39.0,21.0,20.0,13.0,20,1341.0,square3,f,0.1545,2,V,10.0
V10,34.0,34.0,24.0,20.0,10.0,34,1375.0,square1,r,0.0901,0,V,10.0
V10,35.0,44.0,29.0,17.0,11.0,29,1404.0,square2,i,0.118,1,V,10.0
V10,36.0,33.0,30.0,17.0,9.0,33,1437.0,square1,r,0.0386,0,V,10.0
V10,37.0,31.0,27.0,12.0,6.0,12,1449.0,square3,f,0.0878,2,V,10.0
V10,38.0,34.0,29.0,15.0,10.0,10,1459.0,square4,j,0.5557,3,V,10.0
V10,39.0,35.0,21.0,19.0,5.0,21,1480.0,square2,i,0.0065,1,V,10.0
V10,40.0,32.0,26.0,18.0,6.0,32,1512.0,square1,r,0.0251,0,V,10.0
V10,41.0,34.0,32.0,13.0,9.0,34,1546.0,square1,r,0.0549,0,V,10.0
V10,42.0,35.0,30.0,16.0,8.0,35,1581.0,square1,r,0.0725,0,V,10.0
V10,43.0,38.0,32.0,16.0,8.0,38,1619.0,square1,r,0.0382,0,V,10.0
V10,44.0,34.0,20.0,18.0,3.0,34,1653.0,square1,r,0.0884,0,V,10.0
V10,45.0,38.0,22.0,23.0,9.0,38,1691.0,square1,r,0.0205,0,V,10.0
V10,46.0,36.0,28.0,16.0,10.0,36,1727.0,square1,r,0.1053,0,V,10.0
V10,47.0,36.0,27.0,13.0,8.0,36,1763.0,square1,r,0.0885,0,V,10.0
V10,48.0,35.0,27.0,14.0,12.0,35,1798.0,square1,r,0.1594,0,V,10.0
V10,49.0,33.0,28.0,16.0,10.0,33,1831.0,square1,r,0.1223,0,V,10.0
V10,50.0,31.0,29.0,19.0,8.0,31,1862.0,square1,r,0.0558,0,V,10.0
V10,51.0,32.0,21.0,20.0,12.0,32,1894.0,square1,r,0.0554,0,V,10.0
V10,52.0,29.0,25.0,21.0,10.0,25,1919.0,square2,i,0.0379,1,V,10.0
V10,53.0,39.0,29.0,23.0,2.0,23,1942.0,square3,f,0.0208,2,V,10.0
V10,54.0,33.0,28.0,19.0,7.0,7,1949.0,square4,j,0.1557,3,V,10.0
V10,55.0,34.0,24.0,15.0,8.0,34,1983.0,square1,r,0.2863,0,V,10.0
V10,56.0,35.0,20.0,21.0,9.0,35,2018.0,square1,r,0.0567,0,V,10.0
V10,57.0,33.0,27.0,19.0,7.0,33,2051.0,square1,r,0.2062,0,V,10.0
V10,58.0,38.0,24.0,16.0,7.0,38,2089.0,square1,r,0.287,0,V,10.0
V10,59.0,34.0,29.0,15.0,5.0,34,2123.0,square1,r,0.3721,0,V,10.0
V10,60.0,34.0,22.0,19.0,9.0,34,2157.0,square1,r,0.0207,0,V,10.0
V10,61.0,39.0,31.0,20.0,10.0,39,2196.0,square1,r,0.0429,0,V,10.0
V10,62.0,35.0,24.0,18.0,6.0,35,2231.0,square1,r,0.0061,0,V,10.0
V10,63.0,35.0,26.0,18.0,9.0,35,2266.0,square1,r,0.0533,0,V,10.0
V10,64.0,31.0,55.0,23.0,23.0,31,2297.0,square1,r,0.0733,0,V,10.0
V10,65.0,35.0,50.0,22.0,27.0,35,2332.0,square1,r,0.0063,0,V,10.0
V10,66.0,35.0,53.0,25.0,29.0,35,2367.0,square1,r,0.0692,0,V,10.0
V10,67.0,38.0,44.0,17.0,29.0,38,2405.0,square1,r,0.0064,0,V,10.0
V10,68.0,36.0,48.0,22.0,27.0,36,2441.0,square1,r,0.1727,0,V,10.0
V10,69.0,41.0,53.0,17.0,28.0,41,2482.0,square1,r,0.1044,0,V,10.0
V10,70.0,40.0,48.0,23.0,28.0,48,2530.0,square2,i,0.4227,1,V,10.0
V10,71.0,39.0,43.0,24.0,20.0,20,2550.0,square4,j,0.1562,3,V,10.0
V10,72.0,36.0,49.0,19.0,25.0,19,2569.0,square3,f,0.106,2,V,10.0
V10,73.0,39.0,49.0,23.0,32.0,49,2618.0,square2,i,0.006,1,V,10.0
V10,74.0,36.0,44.0,17.0,29.0,44,2662.0,square2,i,0.0891,1,V,10.0
V10,75.0,37.0,46.0,20.0,30.0,46,2708.0,square2,i,0.0925,1,V,10.0
V10,76.0,38.0,47.0,23.0,30.0,47,2755.0,square2,i,0.1223,1,V,10.0
V10,77.0,36.0,49.0,22.0,32.0,49,2804.0,square2,i,0.0725,1,V,10.0
V10,78.0,41.0,44.0,19.0,27.0,41,2845.0,square1,r,0.0905,0,V,10.0
V10,79.0,41.0,48.0,22.0,27.0,48,2893.0,square2,i,0.0549,1,V,10.0
V10,80.0,34.0,44.0,26.0,29.0,44,2937.0,square2,i,0.1571,1,V,10.0
V10,81.0,38.0,47.0,18.0,29.0,47,2984.0,square2,i,0.0233,1,V,10.0
V10,82.0,43.0,43.0,23.0,28.0,43,3027.0,square2,i,0.0383,1,V,10.0
V10,83.0,34.0,51.0,23.0,26.0,51,3078.0,square2,i,0.1208,1,V,10.0
V10,84.0,36.0,46.0,18.0,25.0,46,3124.0,square2,i,0.1567,1,V,10.0
V10,85.0,39.0,46.0,25.0,26.0,46,3170.0,square2,i,0.053,1,V,10.0
V10,86.0,39.0,50.0,27.0,27.0,50,3220.0,square2,i,0.1506,1,V,10.0
V10,87.0,38.0,46.0,20.0,30.0,46,3266.0,square2,i,0.0666,1,V,10.0
V10,88.0,37.0,49.0,22.0,28.0,49,3315.0,square2,i,0.0367,1,V,10.0
V10,89.0,34.0,51.0,25.0,26.0,51,3366.0,square2,i,0.0543,1,V,10.0
V10,90.0,41.0,49.0,22.0,29.0,49,3415.0,square2,i,0.0064,1,V,10.0
V10,91.0,37.0,45.0,26.0,32.0,45,3460.0,square2,i,0.1553,1,V,10.0
V10,92.0,42.0,42.0,27.0,28.0,42,3502.0,square2,i,0.0723,1,V,10.0
V10,93.0,41.0,48.0,19.0,36.0,48,3550.0,square2,i,0.0058,1,V,10.0
V10,94.0,43.0,49.0,23.0,31.0,43,3593.0,square1,r,0.0407,0,V,10.0
V10,95.0,39.0,46.0,18.0,27.0,18,3611.0,square3,f,0.086,2,V,10.0
V10,96.0,37.0,48.0,24.0,27.0,27,3638.0,square4,j,0.1544,3,V,10.0
V10,97.0,42.0,50.0,23.0,31.0,50,3688.0,square2,i,0.0377,1,V,10.0
V10,98.0,33.0,47.0,25.0,32.0,47,3735.0,square2,i,0.0399,1,V,10.0
V10,99.0,39.0,48.0,23.0,32.0,48,3783.0,square2,i,0.0564,1,V,10.0
V6,0.0,43.0,59.0,68.0,49.0,59,59.0,square2,r,0.65,1,V,6.0
V6,1.0,43.0,62.0,71.0,50.0,43,102.0,square1,j,0.1384,0,V,6.0
V6,2.0,48.0,61.0,72.0,51.0,72,174.0,square3,i,0.103,2,V,6.0
V6,3.0,46.0,55.0,71.0,51.0,51,225.0,square4,f,0.1371,3,V,6.0
V6,4.0,44.0,61.0,74.0,48.0,74,299.0,square3,i,0.1215,2,V,6.0
V6,5.0,45.0,62.0,70.0,51.0,70,369.0,square3,i,0.1767,2,V,6.0
V6,6.0,42.0,67.0,73.0,46.0,73,442.0,square3,i,0.1052,2,V,6.0
V6,7.0,44.0,63.0,71.0,53.0,71,513.0,square3,i,0.0063,2,V,6.0
V6,8.0,41.0,62.0,73.0,52.0,73,586.0,square3,i,0.1383,2,V,6.0
V6,9.0,46.0,59.0,72.0,54.0,72,658.0,square3,i,0.1218,2,V,6.0
V6,10.0,45.0,59.0,70.0,53.0,70,728.0,square3,i,0.155,2,V,6.0
V6,11.0,45.0,60.0,70.0,49.0,70,798.0,square3,i,0.054,2,V,6.0
V6,12.0,45.0,66.0,64.0,48.0,64,862.0,square3,i,0.1872,2,V,6.0
V6,13.0,45.0,61.0,69.0,47.0,69,931.0,square3,i,0.1555,2,V,6.0
V6,14.0,47.0,60.0,71.0,56.0,71,1002.0,square3,i,0.1705,2,V,6.0
V6,15.0,46.0,64.0,67.0,52.0,67,1069.0,square3,i,0.1872,2,V,6.0
V6,16.0,50.0,60.0,69.0,54.0,69,1138.0,square3,i,0.1556,2,V,6.0
V6,17.0,43.0,60.0,70.0,53.0,70,1208.0,square3,i,0.1217,2,V,6.0
V6,18.0,46.0,63.0,72.0,55.0,72,1280.0,square3,i,0.0868,2,V,6.0
V6,19.0,46.0,65.0,73.0,51.0,73,1353.0,square3,i,0.1537,2,V,6.0
V6,20.0,44.0,63.0,66.0,51.0,66,1419.0,square3,i,0.1218,2,V,6.0
V6,21.0,43.0,63.0,70.0,49.0,70,1489.0,square3,i,0.1365,2,V,6.0
V6,22.0,45.0,63.0,71.0,50.0,71,1560.0,square3,i,0.0704,2,V,6.0
V6,23.0,45.0,38.0,28.0,60.0,28,1588.0,square3,i,0.1244,2,V,6.0
V6,24.0,46.0,33.0,33.0,53.0,33,1621.0,square3,i,0.1052,2,V,6.0
V6,25.0,45.0,36.0,32.0,63.0,32,1653.0,square3,i,0.1048,2,V,6.0
V6,26.0,52.0,37.0,28.0,57.0,57,1710.0,square4,f,0.2699,3,V,6.0
V6,27.0,45.0,33.0,30.0,62.0,62,1772.0,square4,f,0.1697,3,V,6.0
V6,28.0,43.0,37.0,24.0,51.0,51,1823.0,square4,f,0.0719,3,V,6.0
V6,29.0,48.0,39.0,34.0,61.0,61,1884.0,square4,f,0.1395,3,V,6.0
V6,30.0,48.0,44.0,35.0,59.0,59,1943.0,square4,f,0.1213,3,V,6.0
V6,31.0,50.0,39.0,34.0,53.0,53,1996.0,square4,f,0.1713,3,V,6.0
V6,32.0,44.0,33.0,33.0,54.0,54,2050.0,square4,f,0.0058,3,V,6.0
V6,33.0,48.0,37.0,30.0,56.0,56,2106.0,square4,f,0.0051,3,V,6.0
V6,34.0,52.0,37.0,27.0,59.0,59,2165.0,square4,f,0.1385,3,V,6.0
V6,35.0,47.0,32.0,29.0,59.0,59,2224.0,square4,f,0.0699,3,V,6.0
V6,36.0,45.0,37.0,27.0,56.0,56,2280.0,square4,f,0.072,3,V,6.0
V6,37.0,39.0,37.0,31.0,57.0,57,2337.0,square4,f,0.089,3,V,6.0
V6,38.0,50.0,38.0,29.0,56.0,56,2393.0,square4,f,0.0068,3,V,6.0
V6,39.0,48.0,37.0,27.0,57.0,57,2450.0,square4,f,0.0871,3,V,6.0
V6,40.0,53.0,37.0,29.0,57.0,57,2507.0,square4,f,0.2205,3,V,6.0
V6,41.0,41.0,34.0,33.0,58.0,58,2565.0,square4,f,0.1712,3,V,6.0
V6,42.0,50.0,37.0,31.0,57.0,57,2622.0,square4,f,0.154,3,V,6.0
V6,43.0,48.0,34.0,30.0,58.0,58,2680.0,square4,f,0.1552,3,V,6.0
V6,44.0,44.0,37.0,33.0,60.0,60,2740.0,square4,f,0.0072,3,V,6.0
V6,45.0,44.0,32.0,33.0,55.0,55,2795.0,square4,f,0.1396,3,V,6.0
V6,46.0,44.0,36.0,33.0,59.0,59,2854.0,square4,f,0.0886,3,V,6.0
V6,47.0,42.0,34.0,29.0,52.0,52,2906.0,square4,f,0.0075,3,V,6.0
V6,48.0,46.0,41.0,28.0,60.0,60,2966.0,square4,f,0.1387,3,V,6.0
V6,49.0,46.0,40.0,27.0,55.0,55,3021.0,square4,f,0.0056,3,V,6.0
V6,50.0,46.0,41.0,32.0,55.0,55,3076.0,square4,f,0.041,3,V,6.0
V6,51.0,41.0,39.0,30.0,55.0,55,3131.0,square4,f,0.1582,3,V,6.0
V6,52.0,47.0,37.0,31.0,55.0,55,3186.0,square4,f,0.1214,3,V,6.0
V6,53.0,57.0,36.0,30.0,58.0,58,3244.0,square4,f,0.1556,3,V,6.0
V6,54.0,42.0,38.0,28.0,50.0,50,3294.0,square4,f,0.0879,3,V,6.0
V6,55.0,56.0,42.0,67.0,46.0,46,3340.0,square4,f,0.2054,3,V,6.0
V6,56.0,54.0,37.0,68.0,46.0,46,3386.0,square4,f,0.0215,3,V,6.0
V6,57.0,57.0,40.0,64.0,52.0,52,3438.0,square4,f,0.0054,3,V,6.0
V6,58.0,53.0,45.0,68.0,45.0,45,3483.0,square2,r,0.1537,1,V,6.0
V6,59.0,59.0,41.0,69.0,49.0,69,3552.0,square3,i,0.3058,2,V,6.0
V6,60.0,62.0,41.0,71.0,51.0,71,3623.0,square3,i,0.0535,2,V,6.0
V6,61.0,58.0,50.0,72.0,51.0,72,3695.0,square3,i,0.039,2,V,6.0
V6,62.0,61.0,43.0,65.0,47.0,65,3760.0,square3,i,0.0211,2,V,6.0
V6,63.0,55.0,40.0,67.0,51.0,67,3827.0,square3,i,0.072,2,V,6.0
V6,64.0,56.0,43.0,67.0,47.0,67,3894.0,square3,i,0.0059,2,V,6.0
V6,65.0,62.0,46.0,67.0,48.0,67,3961.0,square3,i,0.0876,2,V,6.0
V6,66.0,55.0,44.0,67.0,48.0,67,4028.0,square3,i,0.1249,2,V,6.0
V6,67.0,61.0,46.0,70.0,49.0,70,4098.0,square3,i,0.0068,2,V,6.0
V6,68.0,63.0,41.0,72.0,46.0,72,4170.0,square3,i,0.1034,2,V,6.0
V6,69.0,59.0,41.0,68.0,48.0,68,4238.0,square3,i,0.1213,2,V,6.0
V6,70.0,59.0,37.0,70.0,45.0,70,4308.0,square3,i,0.1565,2,V,6.0
V6,71.0,83.0,64.0,56.0,70.0,83,4391.0,square1,j,0.0222,0,V,6.0
V6,72.0,82.0,59.0,53.0,75.0,82,4473.0,square1,j,0.0061,0,V,6.0
V6,73.0,85.0,67.0,58.0,73.0,85,4558.0,square1,j,0.1056,0,V,6.0
V6,74.0,79.0,67.0,61.0,73.0,79,4637.0,square1,j,0.1874,0,V,6.0
V6,75.0,84.0,62.0,53.0,69.0,84,4721.0,square1,j,0.1555,0,V,6.0
V6,76.0,81.0,60.0,55.0,76.0,81,4802.0,square1,j,0.1209,0,V,6.0
V6,77.0,84.0,61.0,60.0,72.0,84,4886.0,square1,j,0.0868,0,V,6.0
V6,78.0,90.0,61.0,54.0,74.0,90,4976.0,square1,j,0.1359,0,V,6.0
V6,79.0,80.0,64.0,51.0,75.0,80,5056.0,square1,j,0.1668,0,V,6.0
V6,80.0,85.0,62.0,56.0,78.0,85,5141.0,square1,j,0.0717,0,V,6.0
V6,81.0,86.0,65.0,58.0,69.0,86,5227.0,square1,j,0.0388,0,V,6.0
V6,82.0,83.0,62.0,58.0,77.0,83,5310.0,square1,j,0.2036,0,V,6.0
V6,83.0,87.0,61.0,59.0,70.0,87,5397.0,square1,j,0.0724,0,V,6.0
V6,84.0,89.0,65.0,54.0,78.0,89,5486.0,square1,j,0.1202,0,V,6.0
V6,85.0,78.0,63.0,55.0,75.0,78,5564.0,square1,j,0.1041,0,V,6.0
V6,86.0,87.0,67.0,52.0,75.0,87,5651.0,square1,j,0.1043,0,V,6.0
V6,87.0,86.0,62.0,60.0,75.0,86,5737.0,square1,j,0.122,0,V,6.0
V6,88.0,79.0,67.0,56.0,76.0,79,5816.0,square1,j,0.0558,0,V,6.0
V6,89.0,83.0,61.0,57.0,75.0,83,5899.0,square1,j,0.0536,0,V,6.0
V6,90.0,83.0,67.0,51.0,76.0,83,5982.0,square1,j,0.0375,0,V,6.0
V6,91.0,83.0,63.0,55.0,69.0,83,6065.0,square1,j,0.0064,0,V,6.0
V6,92.0,89.0,56.0,53.0,68.0,89,6154.0,square1,j,0.0056,0,V,6.0
V6,93.0,84.0,61.0,59.0,74.0,84,6238.0,square1,j,0.0728,0,V,6.0
V6,94.0,77.0,58.0,58.0,76.0,77,6315.0,square1,j,0.0548,0,V,6.0
V6,95.0,82.0,60.0,53.0,74.0,82,6397.0,square1,j,0.139,0,V,6.0
V6,96.0,87.0,61.0,56.0,71.0,87,6484.0,square1,j,0.0056,0,V,6.0
V6,97.0,83.0,66.0,55.0,75.0,83,6567.0,square1,j,0.0538,0,V,6.0
V6,98.0,81.0,63.0,55.0,76.0,81,6648.0,square1,j,0.0065,0,V,6.0
V6,99.0,92.0,63.0,61.0,78.0,92,6740.0,square1,j,0.0903,0,V,6.0
