block,Trial,square1,square2,square3,square4,currPoints,totalPoints,square,choiceKey.keys,choiceKey.rt,armNum,blockType,blockNum
prac,0.0,100.0,0.0,0.0,0.0,0,0.0,square3,,,2,p,0.0
prac,1.0,100.0,0.0,0.0,0.0,100,100.0,square1,,,0,p,0.0
prac,2.0,100.0,0.0,0.0,0.0,0,100.0,square2,,,1,p,0.0
prac,3.0,100.0,0.0,0.0,0.0,0,100.0,square4,,,3,p,0.0
prac,4.0,100.0,0.0,0.0,0.0,100,200.0,square1,,,0,p,0.0
prac,5.0,100.0,0.0,0.0,0.0,100,300.0,square1,,,0,p,0.0
prac,6.0,100.0,0.0,0.0,0.0,100,400.0,square1,,,0,p,0.0
prac,7.0,100.0,0.0,0.0,0.0,100,500.0,square1,,,0,p,0.0
prac,8.0,100.0,0.0,0.0,0.0,100,600.0,square1,,,0,p,0.0
prac,9.0,100.0,0.0,0.0,0.0,100,700.0,square1,,,0,p,0.0
V9,0.0,20.0,29.0,37.0,45.0,45,45.0,square4,i,0.9538,3,V,9.0
V9,1.0,21.0,32.0,39.0,45.0,32,77.0,square2,r,0.17,1,V,9.0
V9,2.0,16.0,27.0,41.0,48.0,16,93.0,square1,j,0.2633,0,V,9.0
V9,3.0,20.0,30.0,42.0,50.0,42,135.0,square3,f,0.1525,2,V,9.0
V9,4.0,22.0,34.0,37.0,47.0,47,182.0,square4,i,0.1965,3,V,9.0
V9,5.0,17.0,32.0,38.0,49.0,49,231.0,square4,i,0.2471,3,V,9.0
V9,6.0,17.0,25.0,39.0,47.0,47,278.0,square4,i,0.3549,3,V,9.0
V9,7.0,22.0,28.0,33.0,48.0,48,326.0,square4,i,0.3134,3,V,9.0
V9,8.0,20.0,24.0,34.0,41.0,41,367.0,square4,i,0.2134,3,V,9.0
V9,9.0,20.0,33.0,30.0,51.0,30,397.0,square3,f,0.5304,2,V,9.0
V9,10.0,21.0,35.0,38.0,50.0,35,432.0,square2,r,0.0551,1,V,9.0
V9,11.0,19.0,29.0,44.0,45.0,45,477.0,square4,i,0.0195,3,V,9.0
V9,12.0,27.0,24.0,38.0,54.0,54,531.0,square4,i,0.1971,3,V,9.0
V9,13.0,15.0,26.0,37.0,50.0,50,581.0,square4,i,0.1643,3,V,9.0
V9,14.0,24.0,26.0,39.0,42.0,42,623.0,square4,i,0.1448,3,V,9.0
V9,15.0,26.0,27.0,43.0,49.0,49,672.0,square4,i,0.2298,3,V,9.0
V9,16.0,19.0,30.0,42.0,49.0,49,721.0,square4,i,0.0943,3,V,9.0
V9,17.0,21.0,30.0,34.0,49.0,49,770.0,square4,i,0.2446,3,V,9.0
V9,18.0,25.0,33.0,41.0,51.0,51,821.0,square4,i,0.1052,3,V,9.0
V9,19.0,17.0,31.0,41.0,45.0,45,866.0,square4,i,0.0283,3,V,9.0
V9,20.0,19.0,31.0,34.0,49.0,49,915.0,square4,i,0.0904,3,V,9.0
V9,21.0,23.0,29.0,37.0,48.0,48,963.0,square4,i,0.5193,3,V,9.0
V9,22.0,15.0,32.0,36.0,48.0,48,1011.0,square4,i,0.186,3,V,9.0
V9,23.0,25.0,33.0,39.0,47.0,47,1058.0,square4,i,0.1857,3,V,9.0
V9,24.0,21.0,30.0,38.0,52.0,52,1110.0,square4,i,0.1466,3,V,9.0
V9,25.0,25.0,29.0,42.0,48.0,48,1158.0,square4,i,0.1135,3,V,9.0
V9,26.0,22.0,29.0,39.0,47.0,47,1205.0,square4,i,0.0473,3,V,9.0
V9,27.0,17.0,31.0,45.0,41.0,41,1246.0,square4,i,0.0945,3,V,9.0
V9,28.0,29.0,28.0,43.0,43.0,43,1289.0,square4,i,0.2117,3,V,9.0
V9,29.0,20.0,31.0,43.0,49.0,49,1338.0,square4,i,0.1693,3,V,9.0
V9,30.0,23.0,33.0,39.0,48.0,48,1386.0,square4,i,0.436,3,V,9.0
V9,31.0,20.0,27.0,38.0,53.0,53,1439.0,square4,i,0.2144,3,V,9.0
V9,32.0,23.0,29.0,37.0,49.0,49,1488.0,square4,i,0.1302,3,V,9.0
V9,33.0,24.0,33.0,37.0,49.0,49,1537.0,square4,i,0.18,3,V,9.0
V9,34.0,43.0,58.0,48.0,30.0,30,1567.0,square4,i,0.1858,3,V,9.0
V9,35.0,48.0,59.0,45.0,34.0,34,1601.0,square4,i,0.2292,3,V,9.0
V9,36.0,39.0,56.0,54.0,32.0,32,1633.0,square4,i,0.3048,3,V,9.0
V9,37.0,40.0,57.0,50.0,35.0,57,1690.0,square2,r,0.0812,1,V,9.0
V9,38.0,49.0,62.0,51.0,33.0,62,1752.0,square2,r,0.219,1,V,9.0
V9,39.0,45.0,61.0,48.0,34.0,61,1813.0,square2,r,0.0573,1,V,9.0
V9,40.0,40.0,65.0,51.0,29.0,65,1878.0,square2,r,0.0317,1,V,9.0
V9,41.0,44.0,57.0,50.0,38.0,57,1935.0,square2,r,0.0153,1,V,9.0
V9,42.0,40.0,57.0,49.0,33.0,49,1984.0,square3,f,0.0972,2,V,9.0
V9,43.0,42.0,64.0,54.0,35.0,64,2048.0,square2,r,0.1024,1,V,9.0
V9,44.0,44.0,55.0,49.0,39.0,55,2103.0,square2,r,0.0615,1,V,9.0
V9,45.0,37.0,66.0,51.0,35.0,51,2154.0,square3,f,0.2694,2,V,9.0
V9,46.0,40.0,59.0,51.0,32.0,59,2213.0,square2,r,0.0857,1,V,9.0
V9,47.0,38.0,62.0,57.0,31.0,62,2275.0,square2,r,0.1366,1,V,9.0
V9,48.0,43.0,61.0,54.0,34.0,61,2336.0,square2,r,0.18,1,V,9.0
V9,49.0,43.0,61.0,49.0,40.0,61,2397.0,square2,r,0.0709,1,V,9.0
V9,50.0,37.0,58.0,51.0,32.0,58,2455.0,square2,r,0.0467,1,V,9.0
V9,51.0,44.0,63.0,48.0,39.0,44,2499.0,square1,j,0.0872,0,V,9.0
V9,52.0,35.0,65.0,48.0,30.0,65,2564.0,square2,r,0.0064,1,V,9.0
V9,53.0,43.0,59.0,48.0,39.0,59,2623.0,square2,r,0.1054,1,V,9.0
V9,54.0,43.0,59.0,52.0,30.0,59,2682.0,square2,r,0.2723,1,V,9.0
V9,55.0,41.0,58.0,51.0,34.0,34,2716.0,square4,i,0.1054,3,V,9.0
V9,56.0,44.0,63.0,50.0,33.0,63,2779.0,square2,r,0.2135,1,V,9.0
V9,57.0,42.0,60.0,49.0,32.0,60,2839.0,square2,r,0.049,1,V,9.0
V9,58.0,44.0,62.0,57.0,30.0,62,2901.0,square2,r,0.0147,1,V,9.0
V9,59.0,45.0,61.0,45.0,31.0,61,2962.0,square2,r,0.1134,1,V,9.0
V9,60.0,43.0,63.0,53.0,33.0,63,3025.0,square2,r,0.1137,1,V,9.0
V9,61.0,39.0,56.0,55.0,31.0,56,3081.0,square2,r,0.1529,1,V,9.0
V9,62.0,39.0,61.0,50.0,34.0,61,3142.0,square2,r,0.6951,1,V,9.0
V9,63.0,44.0,57.0,48.0,36.0,57,3199.0,square2,r,0.1131,1,V,9.0
V9,64.0,40.0,60.0,58.0,35.0,58,3257.0,square3,f,0.1358,2,V,9.0
V9,65.0,42.0,60.0,54.0,38.0,60,3317.0,square2,r,0.0366,1,V,9.0
V9,66.0,41.0,60.0,54.0,37.0,60,3377.0,square2,r,0.3025,1,V,9.0
V9,67.0,43.0,61.0,54.0,40.0,61,3438.0,square2,r,0.0467,1,V,9.0
V9,68.0,45.0,40.0,26.0,18.0,40,3478.0,square2,r,0.219,1,V,9.0
V9,69.0,50.0,41.0,29.0,20.0,29,3507.0,square3,f,0.1986,2,V,9.0
V9,70.0,43.0,36.0,27.0,15.0,15,3522.0,square4,i,0.0323,3,V,9.0
V9,71.0,44.0,40.0,28.0,18.0,44,3566.0,square1,j,0.1359,0,V,9.0
V9,72.0,42.0,38.0,27.0,18.0,42,3608.0,square1,j,0.3302,0,V,9.0
V9,73.0,46.0,33.0,25.0,19.0,33,3641.0,square2,r,0.245,1,V,9.0
V9,74.0,47.0,40.0,28.0,20.0,47,3688.0,square1,j,0.0285,0,V,9.0
V9,75.0,39.0,39.0,27.0,25.0,39,3727.0,square1,j,0.1141,0,V,9.0
V9,76.0,50.0,31.0,29.0,23.0,50,3777.0,square1,j,0.1859,0,V,9.0
V9,77.0,44.0,37.0,28.0,13.0,44,3821.0,square1,j,0.1376,0,V,9.0
V9,78.0,43.0,36.0,23.0,17.0,43,3864.0,square1,j,0.0966,0,V,9.0
V9,79.0,42.0,36.0,28.0,24.0,42,3906.0,square1,j,0.1197,0,V,9.0
V9,80.0,47.0,35.0,30.0,14.0,47,3953.0,square1,j,0.0649,0,V,9.0
V9,81.0,46.0,33.0,29.0,18.0,46,3999.0,square1,j,0.065,0,V,9.0
V9,82.0,46.0,35.0,28.0,18.0,46,4045.0,square1,j,0.0562,0,V,9.0
V9,83.0,47.0,41.0,32.0,15.0,47,4092.0,square1,j,0.2372,0,V,9.0
V9,84.0,45.0,38.0,31.0,18.0,45,4137.0,square1,j,0.0965,0,V,9.0
V9,85.0,42.0,35.0,30.0,21.0,42,4179.0,square1,j,0.0057,0,V,9.0
V9,86.0,49.0,39.0,23.0,18.0,49,4228.0,square1,j,0.2875,0,V,9.0
V9,87.0,49.0,39.0,27.0,16.0,49,4277.0,square1,j,0.0137,0,V,9.0
V9,88.0,45.0,38.0,25.0,14.0,45,4322.0,square1,j,0.1024,0,V,9.0
V9,89.0,45.0,32.0,28.0,19.0,45,4367.0,square1,j,0.1146,0,V,9.0
V9,90.0,44.0,35.0,29.0,20.0,20,4387.0,square4,i,0.0357,3,V,9.0
V9,91.0,42.0,38.0,32.0,16.0,42,4429.0,square1,j,0.0216,0,V,9.0
V9,92.0,45.0,36.0,23.0,20.0,45,4474.0,square1,j,0.0717,0,V,9.0
V9,93.0,45.0,35.0,26.0,18.0,26,4500.0,square3,f,0.1651,2,V,9.0
V9,94.0,44.0,37.0,27.0,13.0,37,4537.0,square2,r,1.8467,1,V,9.0
V9,95.0,46.0,36.0,25.0,20.0,46,4583.0,square1,j,0.1301,0,V,9.0
V9,96.0,43.0,39.0,27.0,16.0,43,4626.0,square1,j,0.0469,0,V,9.0
V9,97.0,48.0,39.0,30.0,16.0,48,4674.0,square1,j,0.1491,0,V,9.0
V9,98.0,49.0,40.0,26.0,20.0,49,4723.0,square1,j,0.086,0,V,9.0
V9,99.0,49.0,41.0,27.0,18.0,49,4772.0,square1,j,0.1525,0,V,9.0
V4,0.0,63.0,38.0,47.0,55.0,99999,0.0,invalid,,,-1,V,4.0
V4,1.0,66.0,42.0,43.0,59.0,66,66.0,square1,i,0.5394,0,V,4.0
V4,2.0,66.0,39.0,57.0,59.0,57,123.0,square3,j,0.3722,2,V,4.0
V4,3.0,66.0,37.0,51.0,59.0,59,182.0,square4,r,0.9481,3,V,4.0
V4,4.0,69.0,37.0,50.0,55.0,37,219.0,square2,f,0.7618,1,V,4.0
V4,5.0,64.0,44.0,46.0,62.0,64,283.0,square1,i,0.1857,0,V,4.0
V4,6.0,75.0,43.0,49.0,57.0,75,358.0,square1,i,0.1475,0,V,4.0
V4,7.0,62.0,41.0,52.0,59.0,62,420.0,square1,i,0.0685,0,V,4.0
V4,8.0,65.0,41.0,44.0,60.0,65,485.0,square1,i,0.145,0,V,4.0
V4,9.0,68.0,35.0,44.0,64.0,68,553.0,square1,i,0.1816,0,V,4.0
V4,10.0,67.0,44.0,48.0,61.0,67,620.0,square1,i,0.1195,0,V,4.0
V4,11.0,61.0,40.0,48.0,56.0,61,681.0,square1,i,0.1801,0,V,4.0
V4,12.0,68.0,41.0,49.0,55.0,68,749.0,square1,i,0.1968,0,V,4.0
V4,13.0,63.0,42.0,47.0,60.0,63,812.0,square1,i,0.2133,0,V,4.0
V4,14.0,63.0,40.0,51.0,55.0,63,875.0,square1,i,0.0227,0,V,4.0
V4,15.0,62.0,41.0,52.0,62.0,62,937.0,square1,i,0.0307,0,V,4.0
V4,16.0,69.0,37.0,47.0,60.0,69,1006.0,square1,i,0.0068,0,V,4.0
V4,17.0,66.0,40.0,48.0,56.0,66,1072.0,square1,i,0.0715,0,V,4.0
V4,18.0,67.0,43.0,47.0,59.0,67,1139.0,square1,i,0.0726,0,V,4.0
V4,19.0,64.0,42.0,51.0,59.0,64,1203.0,square1,i,0.0136,0,V,4.0
V4,20.0,67.0,40.0,47.0,58.0,67,1270.0,square1,i,0.2466,0,V,4.0
V4,21.0,60.0,41.0,50.0,59.0,60,1330.0,square1,i,0.1945,0,V,4.0
V4,22.0,66.0,43.0,54.0,55.0,66,1396.0,square1,i,0.0063,0,V,4.0
V4,23.0,67.0,37.0,50.0,62.0,67,1463.0,square1,i,0.1361,0,V,4.0
V4,24.0,67.0,37.0,49.0,60.0,67,1530.0,square1,i,0.2026,0,V,4.0
V4,25.0,67.0,39.0,55.0,52.0,67,1597.0,square1,i,0.1648,0,V,4.0
V4,26.0,64.0,39.0,51.0,63.0,64,1661.0,square1,i,0.1861,0,V,4.0
V4,27.0,68.0,36.0,55.0,60.0,68,1729.0,square1,i,0.3191,0,V,4.0
V4,28.0,67.0,40.0,46.0,54.0,67,1796.0,square1,i,0.1526,0,V,4.0
V4,29.0,67.0,41.0,50.0,57.0,67,1863.0,square1,i,0.1025,0,V,4.0
V4,30.0,66.0,39.0,49.0,53.0,66,1929.0,square1,i,0.2027,0,V,4.0
V4,31.0,70.0,38.0,48.0,58.0,70,1999.0,square1,i,0.0858,0,V,4.0
V4,32.0,63.0,40.0,53.0,61.0,63,2062.0,square1,i,0.2711,0,V,4.0
V4,33.0,66.0,41.0,51.0,56.0,66,2128.0,square1,i,0.081,0,V,4.0
V4,34.0,64.0,39.0,46.0,57.0,64,2192.0,square1,i,0.0784,0,V,4.0
V4,35.0,69.0,36.0,50.0,58.0,69,2261.0,square1,i,0.3024,0,V,4.0
V4,36.0,60.0,43.0,53.0,54.0,60,2321.0,square1,i,0.0783,0,V,4.0
V4,37.0,52.0,78.0,68.0,66.0,52,2373.0,square1,i,0.2142,0,V,4.0
V4,38.0,44.0,81.0,68.0,62.0,62,2435.0,square4,r,0.353,3,V,4.0
V4,39.0,59.0,71.0,70.0,63.0,70,2505.0,square3,j,0.1036,2,V,4.0
V4,40.0,53.0,77.0,73.0,59.0,73,2578.0,square3,j,0.0645,2,V,4.0
V4,41.0,53.0,76.0,74.0,66.0,74,2652.0,square3,j,0.2025,2,V,4.0
V4,42.0,51.0,79.0,73.0,59.0,73,2725.0,square3,j,0.1469,2,V,4.0
V4,43.0,48.0,76.0,68.0,65.0,68,2793.0,square3,j,0.0046,2,V,4.0
V4,44.0,57.0,83.0,78.0,63.0,78,2871.0,square3,j,0.0382,2,V,4.0
V4,45.0,54.0,74.0,69.0,61.0,69,2940.0,square3,j,0.3526,2,V,4.0
V4,46.0,53.0,85.0,66.0,62.0,66,3006.0,square3,j,0.1551,2,V,4.0
V4,47.0,56.0,83.0,68.0,57.0,68,3074.0,square3,j,0.1636,2,V,4.0
V4,48.0,49.0,74.0,73.0,59.0,73,3147.0,square3,j,0.1368,2,V,4.0
V4,49.0,54.0,74.0,70.0,60.0,70,3217.0,square3,j,0.1799,2,V,4.0
V4,50.0,47.0,83.0,69.0,60.0,69,3286.0,square3,j,0.1987,2,V,4.0
V4,51.0,54.0,78.0,73.0,56.0,73,3359.0,square3,j,0.0884,2,V,4.0
V4,52.0,52.0,76.0,71.0,58.0,71,3430.0,square3,j,0.0135,2,V,4.0
V4,53.0,51.0,82.0,76.0,63.0,76,3506.0,square3,j,0.0368,2,V,4.0
V4,54.0,57.0,76.0,69.0,64.0,69,3575.0,square3,j,0.1528,2,V,4.0
V4,55.0,49.0,75.0,68.0,59.0,68,3643.0,square3,j,0.0621,2,V,4.0
V4,56.0,55.0,81.0,66.0,65.0,66,3709.0,square3,j,0.1521,2,V,4.0
V4,57.0,58.0,80.0,72.0,63.0,72,3781.0,square3,j,0.2525,2,V,4.0
V4,58.0,49.0,81.0,66.0,62.0,66,3847.0,square3,j,0.1029,2,V,4.0
V4,59.0,57.0,78.0,73.0,59.0,59,3906.0,square4,r,0.1529,3,V,4.0
V4,60.0,48.0,79.0,66.0,59.0,79,3985.0,square2,f,0.1709,1,V,4.0
V4,61.0,53.0,80.0,72.0,60.0,80,4065.0,square2,f,0.119,1,V,4.0
V4,62.0,53.0,79.0,70.0,61.0,79,4144.0,square2,f,0.174,1,V,4.0
V4,63.0,81.0,66.0,90.0,66.0,66,4210.0,square2,f,0.0209,1,V,4.0
V4,64.0,80.0,64.0,85.0,76.0,85,4295.0,square3,j,0.2555,2,V,4.0
V4,65.0,77.0,61.0,92.0,74.0,77,4372.0,square1,i,0.0886,0,V,4.0
V4,66.0,89.0,65.0,91.0,73.0,91,4463.0,square3,j,0.1476,2,V,4.0
V4,67.0,86.0,64.0,92.0,70.0,92,4555.0,square3,j,0.2693,2,V,4.0
V4,68.0,82.0,60.0,91.0,77.0,91,4646.0,square3,j,0.0647,2,V,4.0
V4,69.0,78.0,69.0,90.0,70.0,90,4736.0,square3,j,0.1805,2,V,4.0
V4,70.0,85.0,64.0,95.0,73.0,95,4831.0,square3,j,0.1722,2,V,4.0
V4,71.0,85.0,61.0,88.0,69.0,88,4919.0,square3,j,0.1529,2,V,4.0
V4,72.0,86.0,63.0,87.0,75.0,87,5006.0,square3,j,0.1223,2,V,4.0
V4,73.0,86.0,69.0,92.0,70.0,92,5098.0,square3,j,0.004,2,V,4.0
V4,74.0,81.0,62.0,90.0,69.0,81,5179.0,square1,i,0.2024,0,V,4.0
V4,75.0,83.0,66.0,88.0,74.0,74,5253.0,square4,r,0.1466,3,V,4.0
V4,76.0,80.0,64.0,92.0,75.0,64,5317.0,square2,f,0.1151,1,V,4.0
V4,77.0,81.0,65.0,91.0,74.0,91,5408.0,square3,j,0.1872,2,V,4.0
V4,78.0,78.0,70.0,89.0,73.0,89,5497.0,square3,j,0.1142,2,V,4.0
V4,79.0,84.0,66.0,85.0,75.0,85,5582.0,square3,j,0.0221,2,V,4.0
V4,80.0,83.0,65.0,93.0,74.0,93,5675.0,square3,j,0.2736,2,V,4.0
V4,81.0,86.0,59.0,91.0,74.0,91,5766.0,square3,j,0.1058,2,V,4.0
V4,82.0,87.0,64.0,92.0,73.0,92,5858.0,square3,j,0.2861,2,V,4.0
V4,83.0,83.0,68.0,86.0,70.0,86,5944.0,square3,j,0.171,2,V,4.0
V4,84.0,82.0,62.0,87.0,73.0,87,6031.0,square3,j,0.2131,2,V,4.0
V4,85.0,85.0,61.0,90.0,70.0,90,6121.0,square3,j,0.1713,2,V,4.0
V4,86.0,84.0,66.0,97.0,71.0,97,6218.0,square3,j,0.2448,2,V,4.0
V4,87.0,82.0,64.0,87.0,71.0,87,6305.0,square3,j,0.0858,2,V,4.0
V4,88.0,80.0,67.0,93.0,72.0,93,6398.0,square3,j,0.1728,2,V,4.0
V4,89.0,78.0,64.0,92.0,75.0,92,6490.0,square3,j,0.0035,2,V,4.0
V4,90.0,75.0,66.0,88.0,72.0,88,6578.0,square3,j,0.2194,2,V,4.0
V4,91.0,82.0,59.0,91.0,76.0,91,6669.0,square3,j,0.2193,2,V,4.0
V4,92.0,84.0,62.0,91.0,70.0,91,6760.0,square3,j,0.0039,2,V,4.0
V4,93.0,80.0,61.0,94.0,76.0,94,6854.0,square3,j,0.2194,2,V,4.0
V4,94.0,83.0,64.0,88.0,72.0,88,6942.0,square3,j,0.1874,2,V,4.0
V4,95.0,82.0,60.0,94.0,69.0,94,7036.0,square3,j,0.1636,2,V,4.0
V4,96.0,84.0,63.0,92.0,72.0,92,7128.0,square3,j,0.0358,2,V,4.0
V4,97.0,84.0,62.0,85.0,70.0,85,7213.0,square3,j,0.0804,2,V,4.0
V4,98.0,81.0,64.0,93.0,72.0,93,7306.0,square3,j,0.0306,2,V,4.0
V4,99.0,80.0,61.0,92.0,75.0,92,7398.0,square3,j,0.0466,2,V,4.0
V5,0.0,46.0,21.0,37.0,28.0,21,21.0,square2,i,1.034,1,V,5.0
V5,1.0,43.0,27.0,36.0,31.0,31,52.0,square4,j,0.1696,3,V,5.0
V5,2.0,50.0,18.0,43.0,32.0,50,102.0,square1,r,0.1804,0,V,5.0
V5,3.0,53.0,23.0,36.0,34.0,36,138.0,square3,f,0.0694,2,V,5.0
V5,4.0,52.0,19.0,38.0,34.0,52,190.0,square1,r,0.1469,0,V,5.0
V5,5.0,50.0,22.0,41.0,29.0,50,240.0,square1,r,0.1303,0,V,5.0
V5,6.0,52.0,19.0,40.0,33.0,52,292.0,square1,r,0.0216,0,V,5.0
V5,7.0,48.0,24.0,36.0,27.0,48,340.0,square1,r,0.0633,0,V,5.0
V5,8.0,50.0,24.0,35.0,33.0,50,390.0,square1,r,0.1137,0,V,5.0
V5,9.0,48.0,25.0,39.0,34.0,48,438.0,square1,r,0.0454,0,V,5.0
V5,10.0,52.0,19.0,32.0,34.0,52,490.0,square1,r,0.2156,0,V,5.0
V5,11.0,48.0,22.0,32.0,32.0,48,538.0,square1,r,0.0905,0,V,5.0
V5,12.0,47.0,17.0,43.0,29.0,17,555.0,square2,i,0.1469,1,V,5.0
V5,13.0,46.0,21.0,42.0,29.0,29,584.0,square4,j,0.1313,3,V,5.0
V5,14.0,47.0,28.0,42.0,28.0,47,631.0,square1,r,0.1046,0,V,5.0
V5,15.0,50.0,29.0,38.0,36.0,50,681.0,square1,r,0.164,0,V,5.0
V5,16.0,49.0,24.0,36.0,34.0,49,730.0,square1,r,0.2036,0,V,5.0
V5,17.0,50.0,20.0,38.0,35.0,50,780.0,square1,r,0.1356,0,V,5.0
V5,18.0,49.0,22.0,46.0,29.0,49,829.0,square1,r,0.0696,0,V,5.0
V5,19.0,46.0,23.0,40.0,31.0,46,875.0,square1,r,0.0321,0,V,5.0
V5,20.0,51.0,22.0,41.0,28.0,51,926.0,square1,r,0.0548,0,V,5.0
V5,21.0,51.0,26.0,36.0,31.0,51,977.0,square1,r,0.0193,0,V,5.0
V5,22.0,47.0,18.0,41.0,28.0,47,1024.0,square1,r,0.1695,0,V,5.0
V5,23.0,52.0,20.0,36.0,29.0,52,1076.0,square1,r,0.2386,0,V,5.0
V5,24.0,51.0,21.0,41.0,34.0,51,1127.0,square1,r,0.0706,0,V,5.0
V5,25.0,50.0,20.0,41.0,27.0,50,1177.0,square1,r,0.0227,0,V,5.0
V5,26.0,49.0,29.0,37.0,28.0,49,1226.0,square1,r,0.0317,0,V,5.0
V5,27.0,10.0,13.0,42.0,32.0,42,1268.0,square3,f,0.1022,2,V,5.0
V5,28.0,9.0,19.0,40.0,27.0,9,1277.0,square1,r,0.0619,0,V,5.0
V5,29.0,17.0,17.0,38.0,29.0,38,1315.0,square3,f,0.0961,2,V,5.0
V5,30.0,8.0,18.0,36.0,29.0,18,1333.0,square2,i,0.0307,1,V,5.0
V5,31.0,16.0,24.0,34.0,29.0,29,1362.0,square4,j,0.0892,3,V,5.0
V5,32.0,9.0,17.0,35.0,31.0,35,1397.0,square3,f,0.0359,2,V,5.0
V5,33.0,11.0,19.0,36.0,28.0,36,1433.0,square3,f,0.0789,2,V,5.0
V5,34.0,10.0,19.0,38.0,28.0,38,1471.0,square3,f,0.0864,2,V,5.0
V5,35.0,5.0,23.0,40.0,34.0,40,1511.0,square3,f,0.0302,2,V,5.0
V5,36.0,17.0,20.0,36.0,31.0,36,1547.0,square3,f,0.1631,2,V,5.0
V5,37.0,12.0,13.0,36.0,30.0,36,1583.0,square3,f,0.1448,2,V,5.0
V5,38.0,14.0,24.0,35.0,27.0,35,1618.0,square3,f,0.2114,2,V,5.0
V5,39.0,13.0,20.0,39.0,32.0,20,1638.0,square2,i,0.0619,1,V,5.0
V5,40.0,9.0,15.0,37.0,24.0,37,1675.0,square3,f,0.0386,2,V,5.0
V5,41.0,9.0,14.0,38.0,31.0,9,1684.0,square1,r,0.1798,0,V,5.0
V5,42.0,14.0,17.0,43.0,31.0,43,1727.0,square3,f,0.1209,2,V,5.0
V5,43.0,10.0,18.0,39.0,23.0,23,1750.0,square4,j,0.1355,3,V,5.0
V5,44.0,10.0,20.0,33.0,32.0,33,1783.0,square3,f,0.064,2,V,5.0
V5,45.0,16.0,17.0,37.0,29.0,37,1820.0,square3,f,0.0138,2,V,5.0
V5,46.0,9.0,22.0,37.0,25.0,37,1857.0,square3,f,0.1304,2,V,5.0
V5,47.0,10.0,22.0,35.0,26.0,35,1892.0,square3,f,0.2786,2,V,5.0
V5,48.0,11.0,16.0,39.0,23.0,39,1931.0,square3,f,0.048,2,V,5.0
V5,49.0,13.0,16.0,33.0,27.0,33,1964.0,square3,f,0.1406,2,V,5.0
V5,50.0,12.0,16.0,39.0,24.0,39,2003.0,square3,f,0.1213,2,V,5.0
V5,51.0,10.0,21.0,43.0,28.0,43,2046.0,square3,f,0.0639,2,V,5.0
V5,52.0,8.0,15.0,36.0,28.0,36,2082.0,square3,f,0.5306,2,V,5.0
V5,53.0,38.0,20.0,31.0,54.0,31,2113.0,square3,f,0.0033,2,V,5.0
V5,54.0,39.0,20.0,35.0,51.0,35,2148.0,square3,f,0.2525,2,V,5.0
V5,55.0,41.0,21.0,27.0,50.0,27,2175.0,square3,f,0.1189,2,V,5.0
V5,56.0,39.0,23.0,28.0,49.0,28,2203.0,square3,f,0.0032,2,V,5.0
V5,57.0,36.0,28.0,29.0,59.0,29,2232.0,square3,f,0.3365,2,V,5.0
V5,58.0,38.0,22.0,28.0,49.0,22,2254.0,square2,i,0.0313,1,V,5.0
V5,59.0,44.0,23.0,30.0,51.0,51,2305.0,square4,j,0.1524,3,V,5.0
V5,60.0,43.0,21.0,31.0,48.0,48,2353.0,square4,j,0.6855,3,V,5.0
V5,61.0,39.0,24.0,35.0,50.0,50,2403.0,square4,j,0.1305,3,V,5.0
V5,62.0,38.0,25.0,31.0,52.0,52,2455.0,square4,j,0.0967,3,V,5.0
V5,63.0,41.0,14.0,31.0,52.0,52,2507.0,square4,j,0.1068,3,V,5.0
V5,64.0,43.0,23.0,30.0,51.0,51,2558.0,square4,j,0.0361,3,V,5.0
V5,65.0,41.0,23.0,35.0,52.0,52,2610.0,square4,j,0.0781,3,V,5.0
V5,66.0,41.0,17.0,33.0,47.0,47,2657.0,square4,j,0.1358,3,V,5.0
V5,67.0,44.0,23.0,32.0,49.0,49,2706.0,square4,j,0.1965,3,V,5.0
V5,68.0,44.0,24.0,31.0,44.0,44,2750.0,square4,j,0.631,3,V,5.0
V5,69.0,43.0,28.0,27.0,48.0,48,2798.0,square4,j,0.136,3,V,5.0
V5,70.0,38.0,22.0,26.0,50.0,50,2848.0,square4,j,0.0145,3,V,5.0
V5,71.0,41.0,29.0,26.0,53.0,53,2901.0,square4,j,0.0879,3,V,5.0
V5,72.0,40.0,20.0,28.0,51.0,51,2952.0,square4,j,0.1207,3,V,5.0
V5,73.0,59.0,44.0,51.0,35.0,35,2987.0,square4,j,0.2032,3,V,5.0
V5,74.0,60.0,38.0,55.0,43.0,60,3047.0,square1,r,0.1633,0,V,5.0
V5,75.0,63.0,45.0,50.0,37.0,63,3110.0,square1,r,0.1304,0,V,5.0
V5,76.0,62.0,42.0,50.0,37.0,62,3172.0,square1,r,0.0945,0,V,5.0
V5,77.0,57.0,37.0,52.0,35.0,57,3229.0,square1,r,0.2446,0,V,5.0
V5,78.0,66.0,45.0,54.0,37.0,66,3295.0,square1,r,0.1153,0,V,5.0
V5,79.0,64.0,37.0,48.0,35.0,64,3359.0,square1,r,0.022,0,V,5.0
V5,80.0,63.0,40.0,56.0,38.0,63,3422.0,square1,r,0.1526,0,V,5.0
V5,81.0,62.0,41.0,54.0,32.0,62,3484.0,square1,r,0.0874,0,V,5.0
V5,82.0,58.0,41.0,59.0,39.0,58,3542.0,square1,r,0.1369,0,V,5.0
V5,83.0,66.0,46.0,54.0,35.0,66,3608.0,square1,r,0.1568,0,V,5.0
V5,84.0,67.0,44.0,52.0,33.0,67,3675.0,square1,r,0.3135,0,V,5.0
V5,85.0,67.0,45.0,46.0,36.0,67,3742.0,square1,r,0.0056,0,V,5.0
V5,86.0,65.0,44.0,51.0,38.0,65,3807.0,square1,r,0.1638,0,V,5.0
V5,87.0,64.0,49.0,48.0,35.0,64,3871.0,square1,r,0.0801,0,V,5.0
V5,88.0,68.0,47.0,56.0,36.0,68,3939.0,square1,r,0.0803,0,V,5.0
V5,89.0,60.0,42.0,57.0,32.0,60,3999.0,square1,r,0.0969,0,V,5.0
V5,90.0,59.0,43.0,53.0,34.0,59,4058.0,square1,r,0.1113,0,V,5.0
V5,91.0,64.0,43.0,51.0,34.0,64,4122.0,square1,r,0.0812,0,V,5.0
V5,92.0,65.0,41.0,57.0,38.0,65,4187.0,square1,r,0.1299,0,V,5.0
V5,93.0,59.0,48.0,54.0,40.0,59,4246.0,square1,r,0.0047,0,V,5.0
V5,94.0,66.0,44.0,53.0,43.0,66,4312.0,square1,r,0.0716,0,V,5.0
V5,95.0,63.0,43.0,50.0,40.0,63,4375.0,square1,r,0.0374,0,V,5.0
V5,96.0,62.0,44.0,50.0,33.0,62,4437.0,square1,r,0.1864,0,V,5.0
V5,97.0,64.0,49.0,55.0,37.0,64,4501.0,square1,r,0.028,0,V,5.0
V5,98.0,65.0,44.0,53.0,36.0,65,4566.0,square1,r,0.0032,0,V,5.0
V5,99.0,65.0,42.0,55.0,35.0,65,4631.0,square1,r,0.0989,0,V,5.0
S7,0.0,68.0,73.0,62.0,57.0,73,73.0,square2,j,1.1207,1,S,7.0
S7,1.0,74.0,67.0,66.0,59.0,59,132.0,square4,r,0.0526,3,S,7.0
S7,2.0,68.0,69.0,65.0,60.0,68,200.0,square1,f,0.0528,0,S,7.0
S7,3.0,74.0,68.0,65.0,63.0,65,265.0,square3,i,0.0141,2,S,7.0
S7,4.0,68.0,74.0,67.0,63.0,74,339.0,square2,j,0.0202,1,S,7.0
S7,5.0,68.0,67.0,61.0,57.0,67,406.0,square2,j,0.0137,1,S,7.0
S7,6.0,72.0,64.0,65.0,51.0,64,470.0,square2,j,0.095,1,S,7.0
S7,7.0,69.0,63.0,69.0,63.0,63,533.0,square2,j,0.1531,1,S,7.0
S7,8.0,71.0,68.0,63.0,54.0,68,601.0,square2,j,0.053,1,S,7.0
S7,9.0,81.0,66.0,68.0,62.0,66,667.0,square2,j,0.1534,1,S,7.0
S7,10.0,72.0,73.0,68.0,61.0,72,739.0,square1,f,0.1525,0,S,7.0
S7,11.0,72.0,72.0,62.0,58.0,72,811.0,square1,f,0.0692,0,S,7.0
S7,12.0,66.0,66.0,62.0,61.0,66,877.0,square1,f,0.0967,0,S,7.0
S7,13.0,73.0,75.0,75.0,68.0,75,952.0,square3,i,0.0298,2,S,7.0
S7,14.0,71.0,73.0,72.0,66.0,72,1024.0,square3,i,0.1885,2,S,7.0
S7,15.0,75.0,68.0,68.0,65.0,68,1092.0,square3,i,0.1139,2,S,7.0
S7,16.0,67.0,65.0,62.0,56.0,56,1148.0,square4,r,0.0308,3,S,7.0
S7,17.0,72.0,67.0,63.0,64.0,63,1211.0,square3,i,0.0858,2,S,7.0
S7,18.0,73.0,69.0,66.0,65.0,69,1280.0,square2,j,0.0644,1,S,7.0
S7,19.0,75.0,70.0,62.0,58.0,70,1350.0,square2,j,0.0193,1,S,7.0
S7,20.0,76.0,63.0,67.0,62.0,63,1413.0,square2,j,0.1306,1,S,7.0
S7,21.0,79.0,76.0,63.0,64.0,79,1492.0,square1,f,0.0641,0,S,7.0
S7,22.0,67.0,72.0,63.0,62.0,67,1559.0,square1,f,0.1614,0,S,7.0
S7,23.0,69.0,71.0,70.0,62.0,69,1628.0,square1,f,0.0308,0,S,7.0
S7,24.0,74.0,67.0,70.0,62.0,74,1702.0,square1,f,0.0383,0,S,7.0
S7,25.0,70.0,67.0,72.0,62.0,70,1772.0,square1,f,0.205,0,S,7.0
S7,26.0,72.0,62.0,74.0,65.0,72,1844.0,square1,f,0.0801,0,S,7.0
S7,27.0,69.0,70.0,68.0,62.0,69,1913.0,square1,f,0.0137,0,S,7.0
S7,28.0,65.0,66.0,60.0,62.0,60,1973.0,square3,i,0.1521,2,S,7.0
S7,29.0,70.0,64.0,60.0,68.0,64,2037.0,square2,j,0.0055,1,S,7.0
S7,30.0,69.0,69.0,64.0,57.0,69,2106.0,square1,f,0.1558,0,S,7.0
S7,31.0,77.0,67.0,65.0,60.0,77,2183.0,square1,f,0.1805,0,S,7.0
S7,32.0,67.0,75.0,65.0,58.0,67,2250.0,square1,f,0.1302,0,S,7.0
S7,33.0,74.0,66.0,66.0,60.0,74,2324.0,square1,f,0.1387,0,S,7.0
S7,34.0,72.0,72.0,66.0,61.0,72,2396.0,square1,f,0.0034,0,S,7.0
S7,35.0,67.0,68.0,64.0,62.0,67,2463.0,square1,f,0.1616,0,S,7.0
S7,36.0,64.0,63.0,70.0,58.0,64,2527.0,square1,f,0.1198,0,S,7.0
S7,37.0,80.0,72.0,64.0,53.0,80,2607.0,square1,f,0.0303,0,S,7.0
S7,38.0,78.0,69.0,76.0,67.0,69,2676.0,square2,j,0.0966,1,S,7.0
S7,39.0,69.0,66.0,60.0,67.0,69,2745.0,square1,f,0.1466,0,S,7.0
S7,40.0,72.0,71.0,63.0,66.0,66,2811.0,square4,r,0.1618,3,S,7.0
S7,41.0,80.0,73.0,65.0,63.0,65,2876.0,square3,i,0.1691,2,S,7.0
S7,42.0,77.0,60.0,65.0,59.0,77,2953.0,square1,f,0.1296,0,S,7.0
S7,43.0,70.0,72.0,70.0,63.0,70,3023.0,square1,f,0.1363,0,S,7.0
S7,44.0,77.0,70.0,66.0,58.0,77,3100.0,square1,f,0.12,0,S,7.0
S7,45.0,75.0,69.0,73.0,58.0,75,3175.0,square1,f,0.063,0,S,7.0
S7,46.0,74.0,71.0,63.0,63.0,74,3249.0,square1,f,0.1547,0,S,7.0
S7,47.0,73.0,75.0,71.0,64.0,73,3322.0,square1,f,0.1564,0,S,7.0
S7,48.0,78.0,79.0,64.0,58.0,78,3400.0,square1,f,0.0467,0,S,7.0
S7,49.0,75.0,72.0,66.0,72.0,75,3475.0,square1,f,0.2388,0,S,7.0
S2,0.0,62.0,57.0,71.0,74.0,74,74.0,square4,i,1.0051,3,S,2.0
S2,1.0,64.0,59.0,72.0,67.0,64,138.0,square1,j,0.0968,0,S,2.0
S2,2.0,68.0,57.0,75.0,68.0,57,195.0,square2,r,0.1136,1,S,2.0
S2,3.0,69.0,57.0,80.0,70.0,80,275.0,square3,f,0.1286,2,S,2.0
S2,4.0,66.0,60.0,74.0,68.0,68,343.0,square4,i,0.0641,3,S,2.0
S2,5.0,63.0,62.0,77.0,72.0,77,420.0,square3,f,0.0464,2,S,2.0
S2,6.0,69.0,61.0,75.0,74.0,75,495.0,square3,f,0.0859,2,S,2.0
S2,7.0,74.0,66.0,79.0,72.0,79,574.0,square3,f,0.0813,2,S,2.0
S2,8.0,81.0,65.0,76.0,72.0,76,650.0,square3,f,0.122,2,S,2.0
S2,9.0,70.0,66.0,78.0,70.0,78,728.0,square3,f,0.0136,2,S,2.0
S2,10.0,70.0,72.0,70.0,74.0,70,798.0,square3,f,0.0193,2,S,2.0
S2,11.0,64.0,66.0,72.0,67.0,72,870.0,square3,f,0.0214,2,S,2.0
S2,12.0,66.0,57.0,70.0,67.0,70,940.0,square3,f,0.0981,2,S,2.0
S2,13.0,68.0,68.0,71.0,73.0,71,1011.0,square3,f,0.0538,2,S,2.0
S2,14.0,70.0,63.0,77.0,71.0,77,1088.0,square3,f,0.0397,2,S,2.0
S2,15.0,64.0,66.0,75.0,66.0,75,1163.0,square3,f,0.0859,2,S,2.0
S2,16.0,67.0,61.0,73.0,70.0,73,1236.0,square3,f,0.0857,2,S,2.0
S2,17.0,65.0,58.0,71.0,75.0,71,1307.0,square3,f,0.0856,2,S,2.0
S2,18.0,72.0,64.0,81.0,61.0,81,1388.0,square3,f,0.0694,2,S,2.0
S2,19.0,60.0,63.0,72.0,65.0,72,1460.0,square3,f,0.0302,2,S,2.0
S2,20.0,68.0,56.0,71.0,70.0,68,1528.0,square1,j,0.1632,0,S,2.0
S2,21.0,65.0,65.0,74.0,71.0,74,1602.0,square3,f,0.0699,2,S,2.0
S2,22.0,69.0,62.0,77.0,72.0,72,1674.0,square4,i,0.2133,3,S,2.0
S2,23.0,64.0,71.0,74.0,65.0,65,1739.0,square4,i,0.0962,3,S,2.0
S2,24.0,66.0,62.0,78.0,70.0,78,1817.0,square3,f,0.1526,2,S,2.0
S2,25.0,67.0,69.0,76.0,66.0,76,1893.0,square3,f,0.1619,2,S,2.0
S2,26.0,65.0,63.0,74.0,69.0,74,1967.0,square3,f,0.097,2,S,2.0
S2,27.0,68.0,64.0,67.0,68.0,67,2034.0,square3,f,0.0191,2,S,2.0
S2,28.0,61.0,52.0,71.0,68.0,52,2086.0,square2,r,0.1022,1,S,2.0
S2,29.0,67.0,64.0,73.0,69.0,73,2159.0,square3,f,0.1144,2,S,2.0
S2,30.0,67.0,53.0,77.0,67.0,77,2236.0,square3,f,0.047,2,S,2.0
S2,31.0,67.0,69.0,69.0,68.0,69,2305.0,square3,f,0.1192,2,S,2.0
S2,32.0,71.0,63.0,73.0,70.0,73,2378.0,square3,f,0.0036,2,S,2.0
S2,33.0,61.0,65.0,68.0,71.0,68,2446.0,square3,f,0.1138,2,S,2.0
S2,34.0,66.0,55.0,78.0,68.0,78,2524.0,square3,f,0.0721,2,S,2.0
S2,35.0,60.0,57.0,66.0,66.0,66,2590.0,square3,f,0.0192,2,S,2.0
S2,36.0,64.0,63.0,73.0,72.0,73,2663.0,square3,f,0.1357,2,S,2.0
S2,37.0,65.0,62.0,75.0,68.0,75,2738.0,square3,f,0.2035,2,S,2.0
S2,38.0,69.0,57.0,71.0,62.0,71,2809.0,square3,f,0.0526,2,S,2.0
S2,39.0,72.0,66.0,74.0,74.0,74,2883.0,square3,f,0.0137,2,S,2.0
S2,40.0,66.0,63.0,76.0,59.0,66,2949.0,square1,j,0.0131,0,S,2.0
S2,41.0,74.0,64.0,67.0,76.0,67,3016.0,square3,f,0.1647,2,S,2.0
S2,42.0,62.0,67.0,72.0,68.0,72,3088.0,square3,f,0.0969,2,S,2.0
S2,43.0,69.0,63.0,75.0,71.0,75,3163.0,square3,f,0.1553,2,S,2.0
S2,44.0,72.0,60.0,74.0,67.0,74,3237.0,square3,f,0.1037,2,S,2.0
S2,45.0,69.0,63.0,76.0,73.0,76,3313.0,square3,f,0.1691,2,S,2.0
S2,46.0,64.0,71.0,75.0,72.0,75,3388.0,square3,f,0.1527,2,S,2.0
S2,47.0,75.0,62.0,75.0,69.0,75,3463.0,square3,f,0.1642,2,S,2.0
S2,48.0,66.0,65.0,74.0,68.0,74,3537.0,square3,f,0.2397,2,S,2.0
S2,49.0,67.0,64.0,72.0,76.0,72,3609.0,square3,f,0.1359,2,S,2.0
S6,0.0,40.0,29.0,39.0,26.0,40,40.0,square1,i,0.3341,0,S,6.0
S6,1.0,34.0,40.0,31.0,25.0,40,80.0,square2,j,0.0626,1,S,6.0
S6,2.0,37.0,31.0,25.0,30.0,30,110.0,square4,f,0.1361,3,S,6.0
S6,3.0,39.0,37.0,30.0,27.0,30,140.0,square3,r,0.0695,2,S,6.0
S6,4.0,42.0,40.0,28.0,32.0,40,180.0,square2,j,0.1361,1,S,6.0
S6,5.0,35.0,35.0,39.0,29.0,35,215.0,square2,j,0.1192,1,S,6.0
S6,6.0,48.0,30.0,37.0,33.0,48,263.0,square1,i,0.1466,0,S,6.0
S6,7.0,47.0,34.0,31.0,29.0,47,310.0,square1,i,0.0973,0,S,6.0
S6,8.0,43.0,35.0,30.0,25.0,43,353.0,square1,i,0.1217,0,S,6.0
S6,9.0,36.0,38.0,35.0,35.0,36,389.0,square1,i,0.0875,0,S,6.0
S6,10.0,38.0,35.0,31.0,21.0,21,410.0,square4,f,0.1221,3,S,6.0
S6,11.0,30.0,36.0,31.0,20.0,30,440.0,square1,i,0.1149,0,S,6.0
S6,12.0,37.0,40.0,33.0,22.0,40,480.0,square2,j,0.0528,1,S,6.0
S6,13.0,32.0,41.0,35.0,29.0,41,521.0,square2,j,0.1029,1,S,6.0
S6,14.0,41.0,29.0,30.0,32.0,29,550.0,square2,j,0.0966,1,S,6.0
S6,15.0,43.0,37.0,31.0,27.0,31,581.0,square3,r,0.103,2,S,6.0
S6,16.0,34.0,34.0,35.0,31.0,34,615.0,square1,i,0.1236,0,S,6.0
S6,17.0,47.0,40.0,29.0,28.0,47,662.0,square1,i,0.0536,0,S,6.0
S6,18.0,37.0,38.0,34.0,35.0,37,699.0,square1,i,0.1025,0,S,6.0
S6,19.0,36.0,39.0,31.0,26.0,36,735.0,square1,i,0.1316,0,S,6.0
S6,20.0,44.0,40.0,31.0,25.0,44,779.0,square1,i,0.1965,0,S,6.0
S6,21.0,39.0,41.0,35.0,24.0,35,814.0,square3,r,0.1952,2,S,6.0
S6,22.0,41.0,38.0,41.0,31.0,41,855.0,square1,i,0.0802,0,S,6.0
S6,23.0,37.0,31.0,30.0,32.0,37,892.0,square1,i,0.1375,0,S,6.0
S6,24.0,48.0,34.0,34.0,21.0,48,940.0,square1,i,0.0207,0,S,6.0
S6,25.0,42.0,45.0,26.0,29.0,42,982.0,square1,i,0.1861,0,S,6.0
S6,26.0,40.0,39.0,36.0,28.0,40,1022.0,square1,i,0.0362,0,S,6.0
S6,27.0,42.0,33.0,29.0,29.0,42,1064.0,square1,i,0.0692,0,S,6.0
S6,28.0,41.0,30.0,29.0,29.0,41,1105.0,square1,i,0.1479,0,S,6.0
S6,29.0,42.0,40.0,32.0,27.0,42,1147.0,square1,i,0.1191,0,S,6.0
S6,30.0,42.0,36.0,30.0,26.0,42,1189.0,square1,i,0.1635,0,S,6.0
S6,31.0,42.0,34.0,35.0,29.0,42,1231.0,square1,i,0.0393,0,S,6.0
S6,32.0,35.0,36.0,31.0,23.0,35,1266.0,square1,i,0.1488,0,S,6.0
S6,33.0,35.0,31.0,35.0,30.0,30,1296.0,square4,f,0.0467,3,S,6.0
S6,34.0,40.0,38.0,31.0,27.0,40,1336.0,square1,i,0.1874,0,S,6.0
S6,35.0,42.0,37.0,34.0,34.0,42,1378.0,square1,i,0.136,0,S,6.0
S6,36.0,37.0,46.0,31.0,34.0,37,1415.0,square1,i,0.195,0,S,6.0
S6,37.0,38.0,40.0,30.0,26.0,38,1453.0,square1,i,0.063,0,S,6.0
S6,38.0,36.0,34.0,31.0,33.0,36,1489.0,square1,i,0.2378,0,S,6.0
S6,39.0,44.0,37.0,33.0,31.0,44,1533.0,square1,i,0.2129,0,S,6.0
S6,40.0,40.0,38.0,31.0,25.0,40,1573.0,square1,i,0.0035,0,S,6.0
S6,41.0,49.0,35.0,35.0,28.0,49,1622.0,square1,i,0.1798,0,S,6.0
S6,42.0,44.0,40.0,32.0,28.0,44,1666.0,square1,i,0.0642,0,S,6.0
S6,43.0,43.0,36.0,33.0,26.0,43,1709.0,square1,i,0.0814,0,S,6.0
S6,44.0,38.0,33.0,34.0,26.0,38,1747.0,square1,i,0.3895,0,S,6.0
S6,45.0,32.0,35.0,30.0,28.0,35,1782.0,square2,j,0.3885,1,S,6.0
S6,46.0,38.0,36.0,34.0,30.0,38,1820.0,square1,i,0.0818,0,S,6.0
S6,47.0,44.0,35.0,32.0,31.0,32,1852.0,square3,r,0.0189,2,S,6.0
S6,48.0,40.0,40.0,31.0,33.0,40,1892.0,square1,i,0.23,0,S,6.0
S6,49.0,41.0,29.0,29.0,29.0,41,1933.0,square1,i,0.1822,0,S,6.0
S10,0.0,72.0,76.0,80.0,64.0,64,64.0,square4,i,0.5606,3,S,10.0
S10,1.0,76.0,75.0,74.0,65.0,74,138.0,square3,j,0.4986,2,S,10.0
S10,2.0,70.0,72.0,79.0,74.0,79,217.0,square3,j,0.0802,2,S,10.0
S10,3.0,69.0,77.0,76.0,68.0,77,294.0,square2,f,0.1232,1,S,10.0
S10,4.0,72.0,79.0,77.0,70.0,72,366.0,square1,r,0.98,0,S,10.0
S10,5.0,68.0,74.0,72.0,64.0,72,438.0,square3,j,0.1469,2,S,10.0
S10,6.0,70.0,77.0,72.0,62.0,77,515.0,square2,f,0.1798,1,S,10.0
S10,7.0,78.0,81.0,80.0,74.0,81,596.0,square2,f,0.1939,1,S,10.0
S10,8.0,78.0,78.0,82.0,66.0,78,674.0,square2,f,0.1392,1,S,10.0
S10,9.0,69.0,76.0,77.0,65.0,76,750.0,square2,f,0.1528,1,S,10.0
S10,10.0,72.0,78.0,72.0,75.0,78,828.0,square2,f,0.1232,1,S,10.0
S10,11.0,71.0,76.0,78.0,66.0,76,904.0,square2,f,0.0891,1,S,10.0
S10,12.0,73.0,83.0,79.0,69.0,83,987.0,square2,f,0.0798,1,S,10.0
S10,13.0,68.0,77.0,65.0,65.0,77,1064.0,square2,f,0.1194,1,S,10.0
S10,14.0,69.0,84.0,79.0,65.0,84,1148.0,square2,f,0.0116,1,S,10.0
S10,15.0,72.0,84.0,70.0,71.0,72,1220.0,square1,r,0.1031,0,S,10.0
S10,16.0,79.0,80.0,82.0,67.0,80,1300.0,square2,f,0.1633,1,S,10.0
S10,17.0,69.0,83.0,75.0,70.0,83,1383.0,square2,f,0.2305,1,S,10.0
S10,18.0,69.0,75.0,69.0,68.0,75,1458.0,square2,f,0.203,1,S,10.0
S10,19.0,70.0,83.0,73.0,66.0,83,1541.0,square2,f,0.2363,1,S,10.0
S10,20.0,69.0,83.0,75.0,66.0,83,1624.0,square2,f,0.0785,1,S,10.0
S10,21.0,77.0,70.0,75.0,70.0,70,1694.0,square2,f,0.0469,1,S,10.0
S10,22.0,73.0,77.0,81.0,69.0,77,1771.0,square2,f,0.2129,1,S,10.0
S10,23.0,73.0,78.0,70.0,65.0,78,1849.0,square2,f,0.1695,1,S,10.0
S10,24.0,70.0,80.0,75.0,66.0,80,1929.0,square2,f,0.113,1,S,10.0
S10,25.0,70.0,80.0,73.0,72.0,80,2009.0,square2,f,0.0806,1,S,10.0
S10,26.0,73.0,75.0,73.0,75.0,75,2084.0,square2,f,0.1299,1,S,10.0
S10,27.0,77.0,81.0,83.0,66.0,81,2165.0,square2,f,0.1297,1,S,10.0
S10,28.0,73.0,79.0,79.0,73.0,79,2244.0,square2,f,0.1448,1,S,10.0
S10,29.0,73.0,79.0,72.0,69.0,79,2323.0,square2,f,0.1859,1,S,10.0
S10,30.0,71.0,85.0,79.0,69.0,85,2408.0,square2,f,0.1027,1,S,10.0
S10,31.0,71.0,85.0,83.0,66.0,85,2493.0,square2,f,0.0693,1,S,10.0
S10,32.0,78.0,79.0,77.0,65.0,77,2570.0,square3,j,0.0134,2,S,10.0
S10,33.0,83.0,79.0,72.0,68.0,79,2649.0,square2,f,0.0067,1,S,10.0
S10,34.0,68.0,74.0,79.0,72.0,74,2723.0,square2,f,0.0031,1,S,10.0
S10,35.0,70.0,83.0,79.0,67.0,79,2802.0,square3,j,0.1725,2,S,10.0
S10,36.0,67.0,76.0,75.0,72.0,75,2877.0,square3,j,0.0691,2,S,10.0
S10,37.0,76.0,82.0,79.0,60.0,79,2956.0,square3,j,0.0631,2,S,10.0
S10,38.0,72.0,75.0,69.0,68.0,69,3025.0,square3,j,0.1132,2,S,10.0
S10,39.0,73.0,78.0,76.0,70.0,70,3095.0,square4,i,0.037,3,S,10.0
S10,40.0,76.0,77.0,66.0,60.0,60,3155.0,square4,i,0.0951,3,S,10.0
S10,41.0,74.0,83.0,73.0,67.0,74,3229.0,square1,r,0.1457,0,S,10.0
S10,42.0,72.0,69.0,80.0,63.0,72,3301.0,square1,r,0.1858,0,S,10.0
S10,43.0,69.0,74.0,72.0,68.0,69,3370.0,square1,r,0.0967,0,S,10.0
S10,44.0,67.0,76.0,70.0,65.0,76,3446.0,square2,f,0.1302,1,S,10.0
S10,45.0,76.0,81.0,74.0,72.0,81,3527.0,square2,f,0.112,1,S,10.0
S10,46.0,76.0,79.0,76.0,66.0,79,3606.0,square2,f,0.1631,1,S,10.0
S10,47.0,67.0,81.0,84.0,60.0,81,3687.0,square2,f,0.2024,1,S,10.0
S10,48.0,73.0,83.0,75.0,66.0,83,3770.0,square2,f,0.0965,1,S,10.0
S10,49.0,66.0,77.0,74.0,71.0,77,3847.0,square2,f,0.0052,1,S,10.0
S11,0.0,49.0,53.0,49.0,45.0,49,49.0,square1,i,0.863,0,S,11.0
S11,1.0,54.0,56.0,42.0,50.0,50,99.0,square4,f,0.0299,3,S,11.0
S11,2.0,39.0,51.0,39.0,43.0,51,150.0,square2,j,0.0141,1,S,11.0
S11,3.0,53.0,50.0,38.0,43.0,50,200.0,square2,j,0.1052,1,S,11.0
S11,4.0,47.0,54.0,39.0,48.0,39,239.0,square3,r,0.1301,2,S,11.0
S11,5.0,47.0,52.0,40.0,46.0,52,291.0,square2,j,0.0692,1,S,11.0
S11,6.0,47.0,46.0,44.0,54.0,46,337.0,square2,j,0.1689,1,S,11.0
S11,7.0,48.0,51.0,35.0,51.0,51,388.0,square4,f,0.0231,3,S,11.0
S11,8.0,52.0,49.0,36.0,43.0,43,431.0,square4,f,0.1982,3,S,11.0
S11,9.0,47.0,53.0,41.0,55.0,47,478.0,square1,i,0.0734,0,S,11.0
S11,10.0,44.0,48.0,41.0,43.0,44,522.0,square1,i,0.0219,0,S,11.0
S11,11.0,41.0,54.0,38.0,43.0,54,576.0,square2,j,0.0468,1,S,11.0
S11,12.0,45.0,54.0,44.0,45.0,54,630.0,square2,j,0.3975,1,S,11.0
S11,13.0,54.0,52.0,44.0,50.0,52,682.0,square2,j,0.0803,1,S,11.0
S11,14.0,57.0,58.0,36.0,45.0,58,740.0,square2,j,0.0723,1,S,11.0
S11,15.0,48.0,54.0,43.0,49.0,54,794.0,square2,j,0.2138,1,S,11.0
S11,16.0,58.0,47.0,42.0,46.0,47,841.0,square2,j,0.1191,1,S,11.0
S11,17.0,41.0,61.0,42.0,53.0,61,902.0,square2,j,0.1464,1,S,11.0
S11,18.0,51.0,58.0,33.0,39.0,58,960.0,square2,j,0.1283,1,S,11.0
S11,19.0,48.0,49.0,37.0,42.0,49,1009.0,square2,j,0.1692,1,S,11.0
S11,20.0,52.0,52.0,45.0,46.0,46,1055.0,square4,f,0.2811,3,S,11.0
S11,21.0,47.0,53.0,44.0,51.0,53,1108.0,square2,j,0.0035,1,S,11.0
S11,22.0,49.0,54.0,37.0,41.0,49,1157.0,square1,i,0.0961,0,S,11.0
S11,23.0,52.0,54.0,41.0,45.0,54,1211.0,square2,j,0.0358,1,S,11.0
S11,24.0,42.0,56.0,41.0,45.0,56,1267.0,square2,j,0.0703,1,S,11.0
S11,25.0,52.0,56.0,42.0,44.0,56,1323.0,square2,j,0.0695,1,S,11.0
S11,26.0,43.0,56.0,41.0,45.0,56,1379.0,square2,j,0.1801,1,S,11.0
S11,27.0,48.0,50.0,40.0,43.0,50,1429.0,square2,j,0.0483,1,S,11.0
S11,28.0,46.0,49.0,38.0,48.0,49,1478.0,square2,j,0.161,1,S,11.0
S11,29.0,46.0,55.0,40.0,42.0,40,1518.0,square3,r,0.1696,2,S,11.0
S11,30.0,46.0,56.0,43.0,37.0,56,1574.0,square2,j,0.1692,1,S,11.0
S11,31.0,42.0,49.0,44.0,42.0,49,1623.0,square2,j,0.1819,1,S,11.0
S11,32.0,51.0,52.0,36.0,40.0,52,1675.0,square2,j,0.1227,1,S,11.0
S11,33.0,44.0,53.0,39.0,43.0,53,1728.0,square2,j,0.1055,1,S,11.0
S11,34.0,52.0,52.0,43.0,49.0,52,1780.0,square2,j,0.0953,1,S,11.0
S11,35.0,53.0,51.0,38.0,45.0,51,1831.0,square2,j,0.0138,1,S,11.0
S11,36.0,50.0,44.0,42.0,48.0,44,1875.0,square2,j,0.1802,1,S,11.0
S11,37.0,49.0,51.0,40.0,48.0,49,1924.0,square1,i,0.0726,0,S,11.0
S11,38.0,47.0,47.0,39.0,38.0,47,1971.0,square1,i,0.1208,0,S,11.0
S11,39.0,51.0,55.0,40.0,42.0,51,2022.0,square1,i,0.1469,0,S,11.0
S11,40.0,50.0,52.0,41.0,44.0,50,2072.0,square1,i,0.2561,0,S,11.0
S11,41.0,47.0,50.0,46.0,50.0,47,2119.0,square1,i,0.0036,0,S,11.0
S11,42.0,52.0,48.0,41.0,47.0,52,2171.0,square1,i,0.0554,0,S,11.0
S11,43.0,50.0,56.0,34.0,42.0,50,2221.0,square1,i,0.0219,0,S,11.0
S11,44.0,42.0,48.0,37.0,49.0,42,2263.0,square1,i,0.228,0,S,11.0
S11,45.0,47.0,47.0,41.0,40.0,40,2303.0,square4,f,0.0207,3,S,11.0
S11,46.0,50.0,56.0,40.0,44.0,56,2359.0,square2,j,0.1612,1,S,11.0
S11,47.0,46.0,48.0,38.0,47.0,48,2407.0,square2,j,0.1196,1,S,11.0
S11,48.0,45.0,54.0,44.0,41.0,54,2461.0,square2,j,0.1123,1,S,11.0
S11,49.0,44.0,53.0,41.0,41.0,53,2514.0,square2,j,0.1807,1,S,11.0
S8,0.0,58.0,60.0,52.0,45.0,45,45.0,square4,i,0.5134,3,S,8.0
S8,1.0,55.0,57.0,56.0,52.0,56,101.0,square3,j,0.0706,2,S,8.0
S8,2.0,54.0,58.0,58.0,49.0,58,159.0,square2,f,0.1857,1,S,8.0
S8,3.0,55.0,62.0,52.0,53.0,55,214.0,square1,r,0.0524,0,S,8.0
S8,4.0,55.0,60.0,49.0,51.0,60,274.0,square2,f,0.0986,1,S,8.0
S8,5.0,48.0,63.0,61.0,49.0,63,337.0,square2,f,0.0364,1,S,8.0
S8,6.0,58.0,63.0,59.0,55.0,63,400.0,square2,f,0.0149,1,S,8.0
S8,7.0,56.0,53.0,49.0,51.0,53,453.0,square2,f,0.1649,1,S,8.0
S8,8.0,61.0,63.0,66.0,49.0,66,519.0,square3,j,0.0634,2,S,8.0
S8,9.0,60.0,59.0,53.0,47.0,53,572.0,square3,j,0.2134,2,S,8.0
S8,10.0,55.0,63.0,52.0,55.0,55,627.0,square1,r,0.2118,0,S,8.0
S8,11.0,62.0,60.0,54.0,50.0,62,689.0,square1,r,0.0802,0,S,8.0
S8,12.0,58.0,64.0,51.0,52.0,58,747.0,square1,r,0.1976,0,S,8.0
S8,13.0,62.0,59.0,53.0,53.0,62,809.0,square1,r,0.1475,0,S,8.0
S8,14.0,51.0,62.0,61.0,54.0,51,860.0,square1,r,0.1364,0,S,8.0
S8,15.0,56.0,68.0,56.0,50.0,68,928.0,square2,f,0.036,1,S,8.0
S8,16.0,58.0,64.0,56.0,50.0,64,992.0,square2,f,0.1805,1,S,8.0
S8,17.0,64.0,63.0,60.0,42.0,63,1055.0,square2,f,0.1957,1,S,8.0
S8,18.0,54.0,64.0,57.0,55.0,64,1119.0,square2,f,0.1216,1,S,8.0
S8,19.0,56.0,53.0,57.0,53.0,53,1172.0,square2,f,0.0961,1,S,8.0
S8,20.0,59.0,64.0,56.0,49.0,56,1228.0,square3,j,0.1136,2,S,8.0
S8,21.0,54.0,59.0,55.0,48.0,55,1283.0,square3,j,0.2132,2,S,8.0
S8,22.0,63.0,63.0,59.0,49.0,59,1342.0,square3,j,0.1359,2,S,8.0
S8,23.0,59.0,60.0,48.0,52.0,48,1390.0,square3,j,0.2216,2,S,8.0
S8,24.0,55.0,53.0,60.0,50.0,53,1443.0,square2,f,0.1295,1,S,8.0
S8,25.0,57.0,60.0,55.0,54.0,60,1503.0,square2,f,0.0357,1,S,8.0
S8,26.0,62.0,66.0,57.0,58.0,66,1569.0,square2,f,0.123,1,S,8.0
S8,27.0,58.0,55.0,52.0,48.0,55,1624.0,square2,f,0.1201,1,S,8.0
S8,28.0,53.0,59.0,53.0,55.0,59,1683.0,square2,f,0.0386,1,S,8.0
S8,29.0,60.0,58.0,57.0,53.0,58,1741.0,square2,f,0.1547,1,S,8.0
S8,30.0,57.0,67.0,52.0,56.0,67,1808.0,square2,f,0.1948,1,S,8.0
S8,31.0,60.0,58.0,52.0,50.0,58,1866.0,square2,f,0.2302,1,S,8.0
S8,32.0,54.0,61.0,56.0,57.0,61,1927.0,square2,f,0.2046,1,S,8.0
S8,33.0,66.0,64.0,63.0,52.0,64,1991.0,square2,f,0.0032,1,S,8.0
S8,34.0,54.0,65.0,66.0,56.0,65,2056.0,square2,f,0.1356,1,S,8.0
S8,35.0,54.0,62.0,61.0,48.0,62,2118.0,square2,f,0.0033,1,S,8.0
S8,36.0,53.0,63.0,54.0,55.0,63,2181.0,square2,f,0.0693,1,S,8.0
S8,37.0,64.0,58.0,57.0,51.0,58,2239.0,square2,f,0.1477,1,S,8.0
S8,38.0,68.0,65.0,59.0,57.0,65,2304.0,square2,f,0.021,1,S,8.0
S8,39.0,64.0,65.0,51.0,55.0,65,2369.0,square2,f,0.0035,1,S,8.0
S8,40.0,63.0,61.0,57.0,47.0,61,2430.0,square2,f,0.1468,1,S,8.0
S8,41.0,65.0,58.0,55.0,49.0,58,2488.0,square2,f,0.1459,1,S,8.0
S8,42.0,52.0,60.0,51.0,56.0,60,2548.0,square2,f,0.1713,1,S,8.0
S8,43.0,63.0,57.0,48.0,50.0,57,2605.0,square2,f,0.1705,1,S,8.0
S8,44.0,59.0,63.0,53.0,53.0,59,2664.0,square1,r,0.1191,0,S,8.0
S8,45.0,62.0,62.0,60.0,53.0,62,2726.0,square1,r,0.0375,0,S,8.0
S8,46.0,56.0,62.0,57.0,60.0,56,2782.0,square1,r,0.1872,0,S,8.0
S8,47.0,60.0,63.0,58.0,56.0,63,2845.0,square2,f,0.0523,1,S,8.0
S8,48.0,59.0,63.0,49.0,53.0,63,2908.0,square2,f,0.219,1,S,8.0
S8,49.0,67.0,67.0,59.0,55.0,67,2975.0,square2,f,0.0816,1,S,8.0
