block,Trial,square1,square2,square3,square4,currPoints,totalPoints,square,choiceKey.keys,choiceKey.rt,armNum,blockType,blockNum
prac,0.0,100.0,0.0,0.0,0.0,100,100.0,square1,,,0,p,0.0
prac,1.0,100.0,0.0,0.0,0.0,100,200.0,square1,,,0,p,0.0
prac,2.0,100.0,0.0,0.0,0.0,0,200.0,square3,,,2,p,0.0
prac,3.0,100.0,0.0,0.0,0.0,0,200.0,square2,,,1,p,0.0
prac,4.0,100.0,0.0,0.0,0.0,0,200.0,square4,,,3,p,0.0
prac,5.0,100.0,0.0,0.0,0.0,100,300.0,square1,,,0,p,0.0
prac,6.0,100.0,0.0,0.0,0.0,100,400.0,square1,,,0,p,0.0
prac,7.0,100.0,0.0,0.0,0.0,100,500.0,square1,,,0,p,0.0
prac,8.0,100.0,0.0,0.0,0.0,100,600.0,square1,,,0,p,0.0
prac,9.0,100.0,0.0,0.0,0.0,100,700.0,square1,,,0,p,0.0
V8,0.0,49.0,55.0,64.0,74.0,55,55.0,square2,r,1.169,1,V,8.0
V8,1.0,51.0,54.0,70.0,81.0,70,125.0,square3,i,1.004,2,V,8.0
V8,2.0,46.0,62.0,70.0,77.0,70,195.0,square3,i,0.723,2,V,8.0
V8,3.0,46.0,56.0,67.0,75.0,46,241.0,square1,j,0.232,0,V,8.0
V8,4.0,50.0,59.0,67.0,83.0,83,324.0,square4,f,0.256,3,V,8.0
V8,5.0,51.0,54.0,65.0,78.0,78,402.0,square4,f,0.279,3,V,8.0
V8,6.0,45.0,57.0,66.0,80.0,66,468.0,square3,i,0.42,2,V,8.0
V8,7.0,46.0,64.0,68.0,77.0,64,532.0,square2,r,0.199,1,V,8.0
V8,8.0,50.0,57.0,66.0,73.0,50,582.0,square1,j,0.152,0,V,8.0
V8,9.0,46.0,56.0,71.0,72.0,72,654.0,square4,f,0.252,3,V,8.0
V8,10.0,56.0,58.0,67.0,75.0,75,729.0,square4,f,0.233,3,V,8.0
V8,11.0,50.0,61.0,69.0,74.0,74,803.0,square4,f,0.213,3,V,8.0
V8,12.0,59.0,59.0,69.0,77.0,69,872.0,square3,i,0.467,2,V,8.0
V8,13.0,50.0,56.0,72.0,77.0,56,928.0,square2,r,0.136,1,V,8.0
V8,14.0,48.0,55.0,65.0,80.0,48,976.0,square1,j,0.031,0,V,8.0
V8,15.0,48.0,58.0,65.0,76.0,48,1024.0,square1,j,0.031,0,V,8.0
V8,16.0,49.0,58.0,67.0,75.0,49,1073.0,square1,j,0.537,0,V,8.0
V8,17.0,51.0,56.0,68.0,76.0,68,1141.0,square3,i,0.157,2,V,8.0
V8,18.0,52.0,63.0,69.0,80.0,69,1210.0,square3,i,0.102,2,V,8.0
V8,19.0,54.0,54.0,71.0,79.0,54,1264.0,square2,r,0.134,1,V,8.0
V8,20.0,48.0,53.0,62.0,77.0,77,1341.0,square4,f,0.632,3,V,8.0
V8,21.0,44.0,61.0,66.0,77.0,77,1418.0,square4,f,0.416,3,V,8.0
V8,22.0,52.0,58.0,64.0,78.0,78,1496.0,square4,f,0.147,3,V,8.0
V8,23.0,50.0,49.0,67.0,79.0,79,1575.0,square4,f,0.014,3,V,8.0
V8,24.0,49.0,59.0,69.0,74.0,49,1624.0,square1,j,0.501,0,V,8.0
V8,25.0,46.0,61.0,65.0,81.0,65,1689.0,square3,i,0.413,2,V,8.0
V8,26.0,49.0,58.0,63.0,35.0,58,1747.0,square2,r,0.413,1,V,8.0
V8,27.0,48.0,51.0,66.0,41.0,41,1788.0,square4,f,0.269,3,V,8.0
V8,28.0,46.0,55.0,65.0,38.0,65,1853.0,square3,i,0.213,2,V,8.0
V8,29.0,47.0,58.0,69.0,40.0,58,1911.0,square2,r,0.233,1,V,8.0
V8,30.0,42.0,55.0,67.0,43.0,42,1953.0,square1,j,0.097,0,V,8.0
V8,31.0,49.0,56.0,64.0,36.0,64,2017.0,square3,i,0.07,2,V,8.0
V8,32.0,49.0,55.0,69.0,38.0,38,2055.0,square4,f,0.229,3,V,8.0
V8,33.0,44.0,52.0,65.0,48.0,65,2120.0,square3,i,0.084,2,V,8.0
V8,34.0,44.0,57.0,70.0,45.0,44,2164.0,square1,j,0.131,0,V,8.0
V8,35.0,44.0,54.0,68.0,38.0,54,2218.0,square2,r,0.034,1,V,8.0
V8,36.0,45.0,56.0,64.0,40.0,64,2282.0,square3,i,0.167,2,V,8.0
V8,37.0,47.0,57.0,66.0,37.0,66,2348.0,square3,i,0.168,2,V,8.0
V8,38.0,49.0,50.0,66.0,37.0,66,2414.0,square3,i,0.198,2,V,8.0
V8,39.0,51.0,56.0,61.0,39.0,61,2475.0,square3,i,0.23,2,V,8.0
V8,40.0,47.0,59.0,66.0,41.0,41,2516.0,square4,f,0.037,3,V,8.0
V8,41.0,42.0,56.0,69.0,42.0,42,2558.0,square1,j,0.063,0,V,8.0
V8,42.0,47.0,57.0,72.0,35.0,57,2615.0,square2,r,0.152,1,V,8.0
V8,43.0,47.0,57.0,63.0,44.0,63,2678.0,square3,i,0.247,2,V,8.0
V8,44.0,45.0,58.0,67.0,42.0,67,2745.0,square3,i,0.136,2,V,8.0
V8,45.0,44.0,56.0,66.0,43.0,66,2811.0,square3,i,0.103,2,V,8.0
V8,46.0,46.0,53.0,70.0,37.0,70,2881.0,square3,i,0.184,2,V,8.0
V8,47.0,54.0,53.0,71.0,41.0,71,2952.0,square3,i,0.122,2,V,8.0
V8,48.0,49.0,53.0,69.0,37.0,69,3021.0,square3,i,0.133,2,V,8.0
V8,49.0,39.0,57.0,65.0,47.0,65,3086.0,square3,i,0.233,2,V,8.0
V8,50.0,48.0,55.0,65.0,41.0,41,3127.0,square4,f,0.15,3,V,8.0
V8,51.0,45.0,61.0,68.0,43.0,45,3172.0,square1,j,0.581,0,V,8.0
V8,52.0,53.0,52.0,68.0,37.0,52,3224.0,square2,r,0.221,1,V,8.0
V8,53.0,47.0,55.0,66.0,46.0,66,3290.0,square3,i,0.055,2,V,8.0
V8,54.0,49.0,53.0,61.0,39.0,61,3351.0,square3,i,0.034,2,V,8.0
V8,55.0,53.0,70.0,55.0,72.0,55,3406.0,square3,i,0.097,2,V,8.0
V8,56.0,57.0,63.0,48.0,73.0,73,3479.0,square4,f,0.201,3,V,8.0
V8,57.0,53.0,71.0,45.0,80.0,80,3559.0,square4,f,0.035,3,V,8.0
V8,58.0,57.0,69.0,52.0,73.0,57,3616.0,square1,j,0.036,0,V,8.0
V8,59.0,58.0,67.0,54.0,73.0,73,3689.0,square4,f,0.132,3,V,8.0
V8,60.0,55.0,66.0,47.0,76.0,66,3755.0,square2,r,0.173,1,V,8.0
V8,61.0,56.0,65.0,54.0,72.0,72,3827.0,square4,f,0.119,3,V,8.0
V8,62.0,56.0,65.0,49.0,75.0,75,3902.0,square4,f,0.119,3,V,8.0
V8,63.0,61.0,65.0,44.0,78.0,78,3980.0,square4,f,0.062,3,V,8.0
V8,64.0,54.0,66.0,48.0,75.0,54,4034.0,square1,j,0.249,0,V,8.0
V8,65.0,59.0,65.0,46.0,79.0,79,4113.0,square4,f,0.0,3,V,8.0
V8,66.0,51.0,62.0,46.0,73.0,73,4186.0,square4,f,1.002,3,V,8.0
V8,67.0,60.0,70.0,45.0,76.0,76,4262.0,square4,f,0.169,3,V,8.0
V8,68.0,63.0,64.0,47.0,73.0,73,4335.0,square4,f,0.114,3,V,8.0
V8,69.0,58.0,66.0,43.0,77.0,77,4412.0,square4,f,0.065,3,V,8.0
V8,70.0,59.0,65.0,49.0,73.0,65,4477.0,square2,r,0.014,1,V,8.0
V8,71.0,60.0,64.0,49.0,79.0,49,4526.0,square3,i,0.015,2,V,8.0
V8,72.0,96.0,68.0,78.0,67.0,96,4622.0,square1,j,0.47,0,V,8.0
V8,73.0,96.0,68.0,79.0,64.0,96,4718.0,square1,j,0.197,0,V,8.0
V8,74.0,92.0,67.0,81.0,62.0,92,4810.0,square1,j,0.035,0,V,8.0
V8,75.0,96.0,72.0,83.0,62.0,96,4906.0,square1,j,0.153,0,V,8.0
V8,76.0,94.0,70.0,77.0,57.0,94,5000.0,square1,j,0.066,0,V,8.0
V8,77.0,91.0,68.0,81.0,59.0,91,5091.0,square1,j,0.125,0,V,8.0
V8,78.0,90.0,73.0,80.0,63.0,73,5164.0,square2,r,0.032,1,V,8.0
V8,79.0,90.0,73.0,83.0,61.0,90,5254.0,square1,j,0.083,0,V,8.0
V8,80.0,95.0,75.0,81.0,66.0,95,5349.0,square1,j,0.156,0,V,8.0
V8,81.0,92.0,72.0,81.0,57.0,92,5441.0,square1,j,0.016,0,V,8.0
V8,82.0,91.0,71.0,80.0,61.0,91,5532.0,square1,j,0.133,0,V,8.0
V8,83.0,90.0,66.0,83.0,62.0,90,5622.0,square1,j,0.213,0,V,8.0
V8,84.0,93.0,67.0,87.0,65.0,87,5709.0,square3,i,0.101,2,V,8.0
V8,85.0,85.0,70.0,80.0,62.0,85,5794.0,square1,j,0.066,0,V,8.0
V8,86.0,84.0,72.0,85.0,62.0,84,5878.0,square1,j,0.181,0,V,8.0
V8,87.0,91.0,68.0,82.0,65.0,65,5943.0,square4,f,0.152,3,V,8.0
V8,88.0,93.0,67.0,83.0,61.0,83,6026.0,square3,i,0.101,2,V,8.0
V8,89.0,95.0,68.0,78.0,66.0,95,6121.0,square1,j,0.117,0,V,8.0
V8,90.0,91.0,73.0,80.0,60.0,91,6212.0,square1,j,0.02,0,V,8.0
V8,91.0,93.0,68.0,81.0,64.0,93,6305.0,square1,j,0.106,0,V,8.0
V8,92.0,90.0,75.0,82.0,67.0,90,6395.0,square1,j,0.061,0,V,8.0
V8,93.0,92.0,70.0,82.0,66.0,70,6465.0,square2,r,0.239,1,V,8.0
V8,94.0,90.0,71.0,78.0,63.0,90,6555.0,square1,j,0.612,0,V,8.0
V8,95.0,88.0,65.0,78.0,63.0,88,6643.0,square1,j,0.752,0,V,8.0
V8,96.0,89.0,72.0,85.0,62.0,62,6705.0,square4,f,0.255,3,V,8.0
V8,97.0,92.0,72.0,77.0,67.0,92,6797.0,square1,j,0.048,0,V,8.0
V8,98.0,86.0,63.0,82.0,62.0,86,6883.0,square1,j,0.404,0,V,8.0
V8,99.0,90.0,66.0,75.0,61.0,90,6973.0,square1,j,0.102,0,V,8.0
V7,0.0,86.0,61.0,78.0,68.0,78,78.0,square3,j,1.13,2,V,7.0
V7,1.0,95.0,62.0,79.0,70.0,79,157.0,square3,j,0.418,2,V,7.0
V7,2.0,89.0,67.0,81.0,77.0,67,224.0,square2,i,0.256,1,V,7.0
V7,3.0,90.0,56.0,85.0,72.0,72,296.0,square4,r,0.173,3,V,7.0
V7,4.0,91.0,65.0,77.0,71.0,91,387.0,square1,f,0.384,0,V,7.0
V7,5.0,91.0,58.0,84.0,72.0,91,478.0,square1,f,0.225,0,V,7.0
V7,6.0,94.0,65.0,87.0,72.0,87,565.0,square3,j,0.15,2,V,7.0
V7,7.0,89.0,67.0,79.0,67.0,67,632.0,square2,i,0.166,1,V,7.0
V7,8.0,91.0,65.0,84.0,68.0,68,700.0,square4,r,0.117,3,V,7.0
V7,9.0,92.0,60.0,87.0,69.0,92,792.0,square1,f,0.333,0,V,7.0
V7,10.0,90.0,67.0,81.0,76.0,90,882.0,square1,f,0.13,0,V,7.0
V7,11.0,86.0,67.0,83.0,73.0,86,968.0,square1,f,0.804,0,V,7.0
V7,12.0,90.0,62.0,80.0,72.0,90,1058.0,square1,f,0.165,0,V,7.0
V7,13.0,84.0,60.0,88.0,71.0,60,1118.0,square2,i,0.015,1,V,7.0
V7,14.0,95.0,64.0,80.0,70.0,95,1213.0,square1,f,0.211,0,V,7.0
V7,15.0,86.0,60.0,81.0,70.0,81,1294.0,square3,j,0.034,2,V,7.0
V7,16.0,85.0,65.0,77.0,69.0,85,1379.0,square1,f,0.255,0,V,7.0
V7,17.0,91.0,65.0,81.0,70.0,91,1470.0,square1,f,0.134,0,V,7.0
V7,18.0,95.0,61.0,81.0,76.0,95,1565.0,square1,f,0.014,0,V,7.0
V7,19.0,90.0,58.0,79.0,72.0,90,1655.0,square1,f,0.005,0,V,7.0
V7,20.0,94.0,68.0,80.0,79.0,94,1749.0,square1,f,0.054,0,V,7.0
V7,21.0,92.0,66.0,82.0,70.0,92,1841.0,square1,f,0.016,0,V,7.0
V7,22.0,92.0,64.0,83.0,72.0,92,1933.0,square1,f,0.587,0,V,7.0
V7,23.0,91.0,68.0,82.0,73.0,91,2024.0,square1,f,0.319,0,V,7.0
V7,24.0,87.0,71.0,82.0,72.0,87,2111.0,square1,f,0.213,0,V,7.0
V7,25.0,91.0,68.0,90.0,74.0,90,2201.0,square3,j,0.135,2,V,7.0
V7,26.0,89.0,65.0,83.0,72.0,83,2284.0,square3,j,0.52,2,V,7.0
V7,27.0,91.0,61.0,81.0,73.0,91,2375.0,square1,f,0.05,0,V,7.0
V7,28.0,90.0,66.0,81.0,72.0,90,2465.0,square1,f,0.423,0,V,7.0
V7,29.0,89.0,67.0,77.0,71.0,89,2554.0,square1,f,0.198,0,V,7.0
V7,30.0,95.0,68.0,84.0,71.0,84,2638.0,square3,j,0.418,2,V,7.0
V7,31.0,95.0,61.0,81.0,70.0,95,2733.0,square1,f,0.182,0,V,7.0
V7,32.0,89.0,65.0,82.0,75.0,89,2822.0,square1,f,0.248,0,V,7.0
V7,33.0,77.0,50.0,80.0,61.0,77,2899.0,square1,f,0.0,0,V,7.0
V7,34.0,76.0,54.0,78.0,61.0,61,2960.0,square4,r,0.001,3,V,7.0
V7,35.0,71.0,51.0,80.0,64.0,71,3031.0,square1,f,0.402,0,V,7.0
V7,36.0,75.0,51.0,80.0,62.0,80,3111.0,square3,j,0.096,2,V,7.0
V7,37.0,73.0,58.0,86.0,63.0,86,3197.0,square3,j,0.107,2,V,7.0
V7,38.0,73.0,50.0,86.0,61.0,86,3283.0,square3,j,0.055,2,V,7.0
V7,39.0,67.0,53.0,78.0,61.0,78,3361.0,square3,j,0.151,2,V,7.0
V7,40.0,71.0,53.0,84.0,58.0,53,3414.0,square2,i,0.165,1,V,7.0
V7,41.0,75.0,51.0,83.0,63.0,83,3497.0,square3,j,0.13,2,V,7.0
V7,42.0,69.0,48.0,87.0,63.0,87,3584.0,square3,j,0.033,2,V,7.0
V7,43.0,70.0,58.0,81.0,60.0,81,3665.0,square3,j,0.068,2,V,7.0
V7,44.0,68.0,56.0,76.0,63.0,63,3728.0,square4,r,0.1,3,V,7.0
V7,45.0,74.0,59.0,76.0,56.0,76,3804.0,square3,j,0.451,2,V,7.0
V7,46.0,72.0,54.0,77.0,61.0,54,3858.0,square2,i,0.135,1,V,7.0
V7,47.0,69.0,47.0,81.0,62.0,69,3927.0,square1,f,0.013,0,V,7.0
V7,48.0,75.0,52.0,81.0,57.0,81,4008.0,square3,j,0.045,2,V,7.0
V7,49.0,74.0,55.0,78.0,60.0,78,4086.0,square3,j,0.63,2,V,7.0
V7,50.0,71.0,51.0,80.0,61.0,51,4137.0,square2,i,0.287,1,V,7.0
V7,51.0,75.0,55.0,85.0,62.0,62,4199.0,square4,r,0.2,3,V,7.0
V7,52.0,75.0,59.0,76.0,59.0,76,4275.0,square3,j,0.163,2,V,7.0
V7,53.0,72.0,53.0,84.0,66.0,84,4359.0,square3,j,0.067,2,V,7.0
V7,54.0,69.0,51.0,81.0,60.0,81,4440.0,square3,j,0.584,2,V,7.0
V7,55.0,74.0,56.0,75.0,54.0,75,4515.0,square3,j,0.067,2,V,7.0
V7,56.0,76.0,51.0,83.0,58.0,76,4591.0,square1,f,0.371,0,V,7.0
V7,57.0,71.0,53.0,80.0,64.0,80,4671.0,square3,j,0.134,2,V,7.0
V7,58.0,81.0,56.0,79.0,61.0,79,4750.0,square3,j,0.713,2,V,7.0
V7,59.0,71.0,55.0,83.0,59.0,71,4821.0,square1,f,0.099,0,V,7.0
V7,60.0,73.0,53.0,83.0,64.0,53,4874.0,square2,i,0.385,1,V,7.0
V7,61.0,70.0,53.0,77.0,63.0,63,4937.0,square4,r,0.084,3,V,7.0
V7,62.0,71.0,54.0,76.0,61.0,76,5013.0,square3,j,0.0,2,V,7.0
V7,63.0,68.0,45.0,79.0,65.0,79,5092.0,square3,j,0.849,2,V,7.0
V7,64.0,65.0,55.0,79.0,59.0,65,5157.0,square1,f,0.1,0,V,7.0
V7,65.0,74.0,54.0,81.0,61.0,54,5211.0,square2,i,0.271,1,V,7.0
V7,66.0,70.0,56.0,81.0,63.0,56,5267.0,square2,i,0.316,1,V,7.0
V7,67.0,70.0,85.0,64.0,92.0,85,5352.0,square2,i,0.184,1,V,7.0
V7,68.0,73.0,85.0,68.0,92.0,85,5437.0,square2,i,0.135,1,V,7.0
V7,69.0,75.0,83.0,70.0,91.0,83,5520.0,square2,i,0.152,1,V,7.0
V7,70.0,75.0,85.0,69.0,91.0,85,5605.0,square2,i,0.685,1,V,7.0
V7,71.0,71.0,86.0,65.0,94.0,65,5670.0,square3,j,0.065,2,V,7.0
V7,72.0,77.0,86.0,65.0,98.0,86,5756.0,square2,i,0.318,1,V,7.0
V7,73.0,77.0,84.0,63.0,94.0,84,5840.0,square2,i,0.602,1,V,7.0
V7,74.0,71.0,86.0,64.0,91.0,91,5931.0,square4,r,0.067,3,V,7.0
V7,75.0,73.0,90.0,60.0,90.0,90,6021.0,square4,r,0.686,3,V,7.0
V7,76.0,79.0,84.0,68.0,95.0,95,6116.0,square4,r,0.348,3,V,7.0
V7,77.0,73.0,85.0,66.0,89.0,89,6205.0,square4,r,0.539,3,V,7.0
V7,78.0,75.0,82.0,67.0,91.0,91,6296.0,square4,r,0.252,3,V,7.0
V7,79.0,72.0,85.0,60.0,90.0,90,6386.0,square4,r,0.269,3,V,7.0
V7,80.0,73.0,83.0,66.0,97.0,97,6483.0,square4,r,0.391,3,V,7.0
V7,81.0,73.0,84.0,67.0,92.0,92,6575.0,square4,r,0.103,3,V,7.0
V7,82.0,69.0,84.0,65.0,91.0,91,6666.0,square4,r,0.265,3,V,7.0
V7,83.0,76.0,83.0,72.0,99.0,99,6765.0,square4,r,0.135,3,V,7.0
V7,84.0,72.0,84.0,70.0,94.0,94,6859.0,square4,r,0.2,3,V,7.0
V7,85.0,77.0,83.0,67.0,88.0,88,6947.0,square4,r,0.218,3,V,7.0
V7,86.0,76.0,80.0,67.0,90.0,90,7037.0,square4,r,0.047,3,V,7.0
V7,87.0,70.0,86.0,67.0,95.0,95,7132.0,square4,r,0.505,3,V,7.0
V7,88.0,76.0,84.0,67.0,100.0,100,7232.0,square4,r,0.157,3,V,7.0
V7,89.0,71.0,88.0,60.0,97.0,97,7329.0,square4,r,0.318,3,V,7.0
V7,90.0,69.0,82.0,71.0,95.0,95,7424.0,square4,r,0.128,3,V,7.0
V7,91.0,80.0,84.0,65.0,92.0,92,7516.0,square4,r,0.185,3,V,7.0
V7,92.0,77.0,85.0,68.0,85.0,85,7601.0,square4,r,0.151,3,V,7.0
V7,93.0,72.0,84.0,66.0,91.0,91,7692.0,square4,r,0.766,3,V,7.0
V7,94.0,69.0,83.0,66.0,95.0,95,7787.0,square4,r,0.318,3,V,7.0
V7,95.0,70.0,86.0,75.0,91.0,91,7878.0,square4,r,0.286,3,V,7.0
V7,96.0,74.0,85.0,66.0,88.0,85,7963.0,square2,i,0.289,1,V,7.0
V7,97.0,77.0,82.0,73.0,91.0,91,8054.0,square4,r,0.266,3,V,7.0
V7,98.0,76.0,91.0,62.0,94.0,94,8148.0,square4,r,0.273,3,V,7.0
V7,99.0,74.0,84.0,67.0,88.0,88,8236.0,square4,r,0.263,3,V,7.0
V5,0.0,46.0,21.0,37.0,28.0,46,46.0,square1,j,1.713,0,V,5.0
V5,1.0,43.0,27.0,36.0,31.0,36,82.0,square3,r,1.352,2,V,5.0
V5,2.0,50.0,18.0,43.0,32.0,32,114.0,square4,i,0.339,3,V,5.0
V5,3.0,53.0,23.0,36.0,34.0,23,137.0,square2,f,0.335,1,V,5.0
V5,4.0,52.0,19.0,38.0,34.0,52,189.0,square1,j,0.316,0,V,5.0
V5,5.0,50.0,22.0,41.0,29.0,29,218.0,square4,i,0.003,3,V,5.0
V5,6.0,52.0,19.0,40.0,33.0,40,258.0,square3,r,0.233,2,V,5.0
V5,7.0,48.0,24.0,36.0,27.0,36,294.0,square3,r,0.004,2,V,5.0
V5,8.0,50.0,24.0,35.0,33.0,35,329.0,square3,r,0.182,2,V,5.0
V5,9.0,48.0,25.0,39.0,34.0,39,368.0,square3,r,0.665,2,V,5.0
V5,10.0,52.0,19.0,32.0,34.0,52,420.0,square1,j,0.068,0,V,5.0
V5,11.0,48.0,22.0,32.0,32.0,48,468.0,square1,j,0.065,0,V,5.0
V5,12.0,47.0,17.0,43.0,29.0,17,485.0,square2,f,0.452,1,V,5.0
V5,13.0,46.0,21.0,42.0,29.0,29,514.0,square4,i,0.235,3,V,5.0
V5,14.0,47.0,28.0,42.0,28.0,28,542.0,square4,i,0.495,3,V,5.0
V5,15.0,50.0,29.0,38.0,36.0,36,578.0,square4,i,0.005,3,V,5.0
V5,16.0,49.0,24.0,36.0,34.0,36,614.0,square3,r,0.084,2,V,5.0
V5,17.0,50.0,20.0,38.0,35.0,35,649.0,square4,i,0.514,3,V,5.0
V5,18.0,49.0,22.0,46.0,29.0,49,698.0,square1,j,0.134,0,V,5.0
V5,19.0,46.0,23.0,40.0,31.0,46,744.0,square1,j,0.125,0,V,5.0
V5,20.0,51.0,22.0,41.0,28.0,22,766.0,square2,f,0.05,1,V,5.0
V5,21.0,51.0,26.0,36.0,31.0,51,817.0,square1,j,0.519,0,V,5.0
V5,22.0,47.0,18.0,41.0,28.0,47,864.0,square1,j,0.507,0,V,5.0
V5,23.0,52.0,20.0,36.0,29.0,52,916.0,square1,j,0.38,0,V,5.0
V5,24.0,51.0,21.0,41.0,34.0,34,950.0,square4,i,0.081,3,V,5.0
V5,25.0,50.0,20.0,41.0,27.0,41,991.0,square3,r,0.197,2,V,5.0
V5,26.0,49.0,29.0,37.0,28.0,37,1028.0,square3,r,0.036,2,V,5.0
V5,27.0,10.0,13.0,42.0,32.0,13,1041.0,square2,f,0.135,1,V,5.0
V5,28.0,9.0,19.0,40.0,27.0,40,1081.0,square3,r,0.079,2,V,5.0
V5,29.0,17.0,17.0,38.0,29.0,38,1119.0,square3,r,0.789,2,V,5.0
V5,30.0,8.0,18.0,36.0,29.0,36,1155.0,square3,r,0.17,2,V,5.0
V5,31.0,16.0,24.0,34.0,29.0,34,1189.0,square3,r,0.222,2,V,5.0
V5,32.0,9.0,17.0,35.0,31.0,35,1224.0,square3,r,0.095,2,V,5.0
V5,33.0,11.0,19.0,36.0,28.0,28,1252.0,square4,i,0.134,3,V,5.0
V5,34.0,10.0,19.0,38.0,28.0,28,1280.0,square4,i,0.305,3,V,5.0
V5,35.0,5.0,23.0,40.0,34.0,5,1285.0,square1,j,0.38,0,V,5.0
V5,36.0,17.0,20.0,36.0,31.0,17,1302.0,square1,j,0.1,0,V,5.0
V5,37.0,12.0,13.0,36.0,30.0,13,1315.0,square2,f,0.419,1,V,5.0
V5,38.0,14.0,24.0,35.0,27.0,35,1350.0,square3,r,0.133,2,V,5.0
V5,39.0,13.0,20.0,39.0,32.0,39,1389.0,square3,r,0.001,2,V,5.0
V5,40.0,9.0,15.0,37.0,24.0,24,1413.0,square4,i,0.323,3,V,5.0
V5,41.0,9.0,14.0,38.0,31.0,31,1444.0,square4,i,0.065,3,V,5.0
V5,42.0,14.0,17.0,43.0,31.0,31,1475.0,square4,i,0.095,3,V,5.0
V5,43.0,10.0,18.0,39.0,23.0,39,1514.0,square3,r,0.136,2,V,5.0
V5,44.0,10.0,20.0,33.0,32.0,33,1547.0,square3,r,0.099,2,V,5.0
V5,45.0,16.0,17.0,37.0,29.0,29,1576.0,square4,i,0.067,3,V,5.0
V5,46.0,9.0,22.0,37.0,25.0,25,1601.0,square4,i,0.669,3,V,5.0
V5,47.0,10.0,22.0,35.0,26.0,26,1627.0,square4,i,0.017,3,V,5.0
V5,48.0,11.0,16.0,39.0,23.0,23,1650.0,square4,i,0.036,3,V,5.0
V5,49.0,13.0,16.0,33.0,27.0,27,1677.0,square4,i,0.297,3,V,5.0
V5,50.0,12.0,16.0,39.0,24.0,39,1716.0,square3,r,0.03,2,V,5.0
V5,51.0,10.0,21.0,43.0,28.0,43,1759.0,square3,r,0.284,2,V,5.0
V5,52.0,8.0,15.0,36.0,28.0,36,1795.0,square3,r,0.217,2,V,5.0
V5,53.0,38.0,20.0,31.0,54.0,31,1826.0,square3,r,0.035,2,V,5.0
V5,54.0,39.0,20.0,35.0,51.0,35,1861.0,square3,r,0.034,2,V,5.0
V5,55.0,41.0,21.0,27.0,50.0,41,1902.0,square1,j,0.571,0,V,5.0
V5,56.0,39.0,23.0,28.0,49.0,39,1941.0,square1,j,0.067,0,V,5.0
V5,57.0,36.0,28.0,29.0,59.0,36,1977.0,square1,j,0.031,0,V,5.0
V5,58.0,38.0,22.0,28.0,49.0,22,1999.0,square2,f,0.136,1,V,5.0
V5,59.0,44.0,23.0,30.0,51.0,44,2043.0,square1,j,0.185,0,V,5.0
V5,60.0,43.0,21.0,31.0,48.0,43,2086.0,square1,j,0.079,0,V,5.0
V5,61.0,39.0,24.0,35.0,50.0,39,2125.0,square1,j,0.257,0,V,5.0
V5,62.0,38.0,25.0,31.0,52.0,52,2177.0,square4,i,0.132,3,V,5.0
V5,63.0,41.0,14.0,31.0,52.0,52,2229.0,square4,i,0.013,3,V,5.0
V5,64.0,43.0,23.0,30.0,51.0,51,2280.0,square4,i,0.238,3,V,5.0
V5,65.0,41.0,23.0,35.0,52.0,35,2315.0,square3,r,0.069,2,V,5.0
V5,66.0,41.0,17.0,33.0,47.0,33,2348.0,square3,r,0.234,2,V,5.0
V5,67.0,44.0,23.0,32.0,49.0,49,2397.0,square4,i,0.253,3,V,5.0
V5,68.0,44.0,24.0,31.0,44.0,44,2441.0,square4,i,0.133,3,V,5.0
V5,69.0,43.0,28.0,27.0,48.0,48,2489.0,square4,i,0.652,3,V,5.0
V5,70.0,38.0,22.0,26.0,50.0,50,2539.0,square4,i,0.097,3,V,5.0
V5,71.0,41.0,29.0,26.0,53.0,53,2592.0,square4,i,0.114,3,V,5.0
V5,72.0,40.0,20.0,28.0,51.0,51,2643.0,square4,i,0.069,3,V,5.0
V5,73.0,59.0,44.0,51.0,35.0,35,2678.0,square4,i,0.47,3,V,5.0
V5,74.0,60.0,38.0,55.0,43.0,43,2721.0,square4,i,0.134,3,V,5.0
V5,75.0,63.0,45.0,50.0,37.0,37,2758.0,square4,i,0.035,3,V,5.0
V5,76.0,62.0,42.0,50.0,37.0,42,2800.0,square2,f,0.001,1,V,5.0
V5,77.0,57.0,37.0,52.0,35.0,37,2837.0,square2,f,0.069,1,V,5.0
V5,78.0,66.0,45.0,54.0,37.0,45,2882.0,square2,f,0.213,1,V,5.0
V5,79.0,64.0,37.0,48.0,35.0,64,2946.0,square1,j,0.273,0,V,5.0
V5,80.0,63.0,40.0,56.0,38.0,63,3009.0,square1,j,0.285,0,V,5.0
V5,81.0,62.0,41.0,54.0,32.0,62,3071.0,square1,j,1.017,0,V,5.0
V5,82.0,58.0,41.0,59.0,39.0,58,3129.0,square1,j,0.085,0,V,5.0
V5,83.0,66.0,46.0,54.0,35.0,66,3195.0,square1,j,0.08,0,V,5.0
V5,84.0,67.0,44.0,52.0,33.0,67,3262.0,square1,j,0.118,0,V,5.0
V5,85.0,67.0,45.0,46.0,36.0,46,3308.0,square3,r,0.022,2,V,5.0
V5,86.0,65.0,44.0,51.0,38.0,65,3373.0,square1,j,0.123,0,V,5.0
V5,87.0,64.0,49.0,48.0,35.0,64,3437.0,square1,j,0.138,0,V,5.0
V5,88.0,68.0,47.0,56.0,36.0,68,3505.0,square1,j,0.333,0,V,5.0
V5,89.0,60.0,42.0,57.0,32.0,32,3537.0,square4,i,0.085,3,V,5.0
V5,90.0,59.0,43.0,53.0,34.0,34,3571.0,square4,i,0.485,3,V,5.0
V5,91.0,64.0,43.0,51.0,34.0,64,3635.0,square1,j,0.205,0,V,5.0
V5,92.0,65.0,41.0,57.0,38.0,65,3700.0,square1,j,0.334,0,V,5.0
V5,93.0,59.0,48.0,54.0,40.0,48,3748.0,square2,f,0.184,1,V,5.0
V5,94.0,66.0,44.0,53.0,43.0,44,3792.0,square2,f,0.049,1,V,5.0
V5,95.0,63.0,43.0,50.0,40.0,63,3855.0,square1,j,0.075,0,V,5.0
V5,96.0,62.0,44.0,50.0,33.0,62,3917.0,square1,j,0.239,0,V,5.0
V5,97.0,64.0,49.0,55.0,37.0,64,3981.0,square1,j,0.184,0,V,5.0
V5,98.0,65.0,44.0,53.0,36.0,65,4046.0,square1,j,0.055,0,V,5.0
V5,99.0,65.0,42.0,55.0,35.0,65,4111.0,square1,j,0.068,0,V,5.0
S11,0.0,49.0,53.0,49.0,45.0,99999,0.0,invalid,,,-1,S,11.0
S11,1.0,54.0,56.0,42.0,50.0,42,42.0,square3,f,1.304,2,S,11.0
S11,2.0,39.0,51.0,39.0,43.0,43,85.0,square4,j,0.632,3,S,11.0
S11,3.0,53.0,50.0,38.0,43.0,50,135.0,square2,i,0.539,1,S,11.0
S11,4.0,47.0,54.0,39.0,48.0,47,182.0,square1,r,0.417,0,S,11.0
S11,5.0,47.0,52.0,40.0,46.0,52,234.0,square2,i,0.413,1,S,11.0
S11,6.0,47.0,46.0,44.0,54.0,44,278.0,square3,f,0.286,2,S,11.0
S11,7.0,48.0,51.0,35.0,51.0,51,329.0,square4,j,0.301,3,S,11.0
S11,8.0,52.0,49.0,36.0,43.0,43,372.0,square4,j,0.363,3,S,11.0
S11,9.0,47.0,53.0,41.0,55.0,53,425.0,square2,i,0.42,1,S,11.0
S11,10.0,44.0,48.0,41.0,43.0,48,473.0,square2,i,0.263,1,S,11.0
S11,11.0,41.0,54.0,38.0,43.0,41,514.0,square1,r,0.371,0,S,11.0
S11,12.0,45.0,54.0,44.0,45.0,45,559.0,square1,r,0.315,0,S,11.0
S11,13.0,54.0,52.0,44.0,50.0,50,609.0,square4,j,0.298,3,S,11.0
S11,14.0,57.0,58.0,36.0,45.0,45,654.0,square4,j,0.253,3,S,11.0
S11,15.0,48.0,54.0,43.0,49.0,54,708.0,square2,i,0.314,1,S,11.0
S11,16.0,58.0,47.0,42.0,46.0,47,755.0,square2,i,0.101,1,S,11.0
S11,17.0,41.0,61.0,42.0,53.0,41,796.0,square1,r,0.185,0,S,11.0
S11,18.0,51.0,58.0,33.0,39.0,39,835.0,square4,j,0.1,3,S,11.0
S11,19.0,48.0,49.0,37.0,42.0,37,872.0,square3,f,0.032,2,S,11.0
S11,20.0,52.0,52.0,45.0,46.0,45,917.0,square3,f,0.38,2,S,11.0
S11,21.0,47.0,53.0,44.0,51.0,53,970.0,square2,i,0.115,1,S,11.0
S11,22.0,49.0,54.0,37.0,41.0,54,1024.0,square2,i,0.102,1,S,11.0
S11,23.0,52.0,54.0,41.0,45.0,54,1078.0,square2,i,0.15,1,S,11.0
S11,24.0,42.0,56.0,41.0,45.0,56,1134.0,square2,i,0.035,1,S,11.0
S11,25.0,52.0,56.0,42.0,44.0,56,1190.0,square2,i,0.173,1,S,11.0
S11,26.0,43.0,56.0,41.0,45.0,56,1246.0,square2,i,0.166,1,S,11.0
S11,27.0,48.0,50.0,40.0,43.0,50,1296.0,square2,i,0.105,1,S,11.0
S11,28.0,46.0,49.0,38.0,48.0,49,1345.0,square2,i,0.037,1,S,11.0
S11,29.0,46.0,55.0,40.0,42.0,46,1391.0,square1,r,0.233,0,S,11.0
S11,30.0,46.0,56.0,43.0,37.0,46,1437.0,square1,r,0.153,0,S,11.0
S11,31.0,42.0,49.0,44.0,42.0,42,1479.0,square4,j,0.602,3,S,11.0
S11,32.0,51.0,52.0,36.0,40.0,40,1519.0,square4,j,0.152,3,S,11.0
S11,33.0,44.0,53.0,39.0,43.0,53,1572.0,square2,i,0.445,1,S,11.0
S11,34.0,52.0,52.0,43.0,49.0,52,1624.0,square2,i,0.0,1,S,11.0
S11,35.0,53.0,51.0,38.0,45.0,51,1675.0,square2,i,0.0,1,S,11.0
S11,36.0,50.0,44.0,42.0,48.0,44,1719.0,square2,i,0.153,1,S,11.0
S11,37.0,49.0,51.0,40.0,48.0,51,1770.0,square2,i,0.587,1,S,11.0
S11,38.0,47.0,47.0,39.0,38.0,47,1817.0,square2,i,0.048,1,S,11.0
S11,39.0,51.0,55.0,40.0,42.0,55,1872.0,square2,i,0.584,1,S,11.0
S11,40.0,50.0,52.0,41.0,44.0,52,1924.0,square2,i,0.102,1,S,11.0
S11,41.0,47.0,50.0,46.0,50.0,50,1974.0,square2,i,0.566,1,S,11.0
S11,42.0,52.0,48.0,41.0,47.0,48,2022.0,square2,i,0.552,1,S,11.0
S11,43.0,50.0,56.0,34.0,42.0,56,2078.0,square2,i,0.218,1,S,11.0
S11,44.0,42.0,48.0,37.0,49.0,48,2126.0,square2,i,0.133,1,S,11.0
S11,45.0,47.0,47.0,41.0,40.0,47,2173.0,square2,i,0.414,1,S,11.0
S11,46.0,50.0,56.0,40.0,44.0,56,2229.0,square2,i,0.304,1,S,11.0
S11,47.0,46.0,48.0,38.0,47.0,46,2275.0,square1,r,0.368,0,S,11.0
S11,48.0,45.0,54.0,44.0,41.0,54,2329.0,square2,i,0.285,1,S,11.0
S11,49.0,44.0,53.0,41.0,41.0,53,2382.0,square2,i,0.368,1,S,11.0
S6,0.0,40.0,29.0,39.0,26.0,26,26.0,square4,r,1.346,3,S,6.0
S6,1.0,34.0,40.0,31.0,25.0,31,57.0,square3,i,0.05,2,S,6.0
S6,2.0,37.0,31.0,25.0,30.0,31,88.0,square2,j,0.096,1,S,6.0
S6,3.0,39.0,37.0,30.0,27.0,39,127.0,square1,f,0.184,0,S,6.0
S6,4.0,42.0,40.0,28.0,32.0,32,159.0,square4,r,0.069,3,S,6.0
S6,5.0,35.0,35.0,39.0,29.0,29,188.0,square4,r,0.303,3,S,6.0
S6,6.0,48.0,30.0,37.0,33.0,37,225.0,square3,i,0.107,2,S,6.0
S6,7.0,47.0,34.0,31.0,29.0,34,259.0,square2,j,0.284,1,S,6.0
S6,8.0,43.0,35.0,30.0,25.0,25,284.0,square4,r,1.2,3,S,6.0
S6,9.0,36.0,38.0,35.0,35.0,35,319.0,square3,i,0.033,2,S,6.0
S6,10.0,38.0,35.0,31.0,21.0,31,350.0,square3,i,0.051,2,S,6.0
S6,11.0,30.0,36.0,31.0,20.0,31,381.0,square3,i,0.545,2,S,6.0
S6,12.0,37.0,40.0,33.0,22.0,37,418.0,square1,f,0.403,0,S,6.0
S6,13.0,32.0,41.0,35.0,29.0,41,459.0,square2,j,0.072,1,S,6.0
S6,14.0,41.0,29.0,30.0,32.0,29,488.0,square2,j,0.001,1,S,6.0
S6,15.0,43.0,37.0,31.0,27.0,27,515.0,square4,r,0.166,3,S,6.0
S6,16.0,34.0,34.0,35.0,31.0,35,550.0,square3,i,0.585,2,S,6.0
S6,17.0,47.0,40.0,29.0,28.0,29,579.0,square3,i,0.689,2,S,6.0
S6,18.0,37.0,38.0,34.0,35.0,34,613.0,square3,i,1.339,2,S,6.0
S6,19.0,36.0,39.0,31.0,26.0,39,652.0,square2,j,0.219,1,S,6.0
S6,20.0,44.0,40.0,31.0,25.0,25,677.0,square4,r,0.117,3,S,6.0
S6,21.0,39.0,41.0,35.0,24.0,39,716.0,square1,f,0.023,0,S,6.0
S6,22.0,41.0,38.0,41.0,31.0,41,757.0,square1,f,0.335,0,S,6.0
S6,23.0,37.0,31.0,30.0,32.0,32,789.0,square4,r,0.202,3,S,6.0
S6,24.0,48.0,34.0,34.0,21.0,34,823.0,square3,i,0.417,2,S,6.0
S6,25.0,42.0,45.0,26.0,29.0,45,868.0,square2,j,0.168,1,S,6.0
S6,26.0,40.0,39.0,36.0,28.0,40,908.0,square1,f,0.152,0,S,6.0
S6,27.0,42.0,33.0,29.0,29.0,29,937.0,square4,r,0.267,3,S,6.0
S6,28.0,41.0,30.0,29.0,29.0,29,966.0,square3,i,0.731,2,S,6.0
S6,29.0,42.0,40.0,32.0,27.0,32,998.0,square3,i,0.037,2,S,6.0
S6,30.0,42.0,36.0,30.0,26.0,36,1034.0,square2,j,0.14,1,S,6.0
S6,31.0,42.0,34.0,35.0,29.0,34,1068.0,square2,j,0.102,1,S,6.0
S6,32.0,35.0,36.0,31.0,23.0,36,1104.0,square2,j,0.179,1,S,6.0
S6,33.0,35.0,31.0,35.0,30.0,35,1139.0,square1,f,0.085,0,S,6.0
S6,34.0,40.0,38.0,31.0,27.0,40,1179.0,square1,f,0.448,0,S,6.0
S6,35.0,42.0,37.0,34.0,34.0,42,1221.0,square1,f,0.28,0,S,6.0
S6,36.0,37.0,46.0,31.0,34.0,37,1258.0,square1,f,0.055,0,S,6.0
S6,37.0,38.0,40.0,30.0,26.0,38,1296.0,square1,f,0.267,0,S,6.0
S6,38.0,36.0,34.0,31.0,33.0,36,1332.0,square1,f,0.667,0,S,6.0
S6,39.0,44.0,37.0,33.0,31.0,33,1365.0,square3,i,0.263,2,S,6.0
S6,40.0,40.0,38.0,31.0,25.0,40,1405.0,square1,f,0.2,0,S,6.0
S6,41.0,49.0,35.0,35.0,28.0,49,1454.0,square1,f,0.335,0,S,6.0
S6,42.0,44.0,40.0,32.0,28.0,44,1498.0,square1,f,0.25,0,S,6.0
S6,43.0,43.0,36.0,33.0,26.0,43,1541.0,square1,f,0.25,0,S,6.0
S6,44.0,38.0,33.0,34.0,26.0,38,1579.0,square1,f,0.518,0,S,6.0
S6,45.0,32.0,35.0,30.0,28.0,32,1611.0,square1,f,0.383,0,S,6.0
S6,46.0,38.0,36.0,34.0,30.0,38,1649.0,square1,f,0.133,0,S,6.0
S6,47.0,44.0,35.0,32.0,31.0,44,1693.0,square1,f,0.07,0,S,6.0
S6,48.0,40.0,40.0,31.0,33.0,40,1733.0,square1,f,0.084,0,S,6.0
S6,49.0,41.0,29.0,29.0,29.0,41,1774.0,square1,f,0.018,0,S,6.0
S4,0.0,18.0,16.0,34.0,20.0,20,20.0,square4,j,1.448,3,S,4.0
S4,1.0,33.0,26.0,26.0,23.0,33,53.0,square1,i,0.218,0,S,4.0
S4,2.0,35.0,15.0,33.0,22.0,15,68.0,square2,f,0.17,1,S,4.0
S4,3.0,28.0,19.0,27.0,27.0,28,96.0,square1,i,0.0,0,S,4.0
S4,4.0,27.0,16.0,25.0,28.0,25,121.0,square3,r,0.65,2,S,4.0
S4,5.0,23.0,22.0,31.0,24.0,23,144.0,square1,i,0.064,0,S,4.0
S4,6.0,25.0,20.0,34.0,23.0,23,167.0,square4,j,0.235,3,S,4.0
S4,7.0,21.0,22.0,30.0,21.0,22,189.0,square2,f,0.057,1,S,4.0
S4,8.0,33.0,24.0,33.0,17.0,33,222.0,square3,r,0.0,2,S,4.0
S4,9.0,24.0,18.0,31.0,28.0,31,253.0,square3,r,0.533,2,S,4.0
S4,10.0,31.0,26.0,35.0,20.0,35,288.0,square3,r,0.29,2,S,4.0
S4,11.0,25.0,15.0,31.0,25.0,25,313.0,square1,i,0.135,0,S,4.0
S4,12.0,24.0,16.0,29.0,22.0,22,335.0,square4,j,0.329,3,S,4.0
S4,13.0,28.0,23.0,25.0,17.0,23,358.0,square2,f,0.085,1,S,4.0
S4,14.0,22.0,23.0,21.0,23.0,21,379.0,square3,r,0.217,2,S,4.0
S4,15.0,25.0,19.0,28.0,25.0,28,407.0,square3,r,0.358,2,S,4.0
S4,16.0,26.0,17.0,30.0,21.0,30,437.0,square3,r,0.186,2,S,4.0
S4,17.0,22.0,21.0,29.0,22.0,29,466.0,square3,r,0.266,2,S,4.0
S4,18.0,28.0,22.0,32.0,22.0,32,498.0,square3,r,0.025,2,S,4.0
S4,19.0,26.0,19.0,31.0,26.0,31,529.0,square3,r,0.541,2,S,4.0
S4,20.0,28.0,18.0,28.0,25.0,28,557.0,square3,r,0.322,2,S,4.0
S4,21.0,33.0,26.0,21.0,29.0,21,578.0,square3,r,0.039,2,S,4.0
S4,22.0,31.0,19.0,29.0,20.0,31,609.0,square1,i,1.307,0,S,4.0
S4,23.0,27.0,21.0,36.0,26.0,27,636.0,square1,i,0.001,0,S,4.0
S4,24.0,28.0,15.0,32.0,21.0,28,664.0,square1,i,0.215,0,S,4.0
S4,25.0,27.0,18.0,28.0,25.0,27,691.0,square1,i,0.149,0,S,4.0
S4,26.0,26.0,20.0,27.0,14.0,26,717.0,square1,i,0.046,0,S,4.0
S4,27.0,28.0,19.0,36.0,18.0,18,735.0,square4,j,0.023,3,S,4.0
S4,28.0,28.0,19.0,28.0,23.0,23,758.0,square4,j,0.068,3,S,4.0
S4,29.0,25.0,22.0,29.0,23.0,22,780.0,square2,f,0.034,1,S,4.0
S4,30.0,26.0,16.0,30.0,20.0,16,796.0,square2,f,0.686,1,S,4.0
S4,31.0,23.0,25.0,26.0,30.0,23,819.0,square1,i,0.096,0,S,4.0
S4,32.0,21.0,26.0,22.0,23.0,21,840.0,square1,i,0.337,0,S,4.0
S4,33.0,25.0,22.0,24.0,17.0,25,865.0,square1,i,0.097,0,S,4.0
S4,34.0,30.0,22.0,33.0,24.0,30,895.0,square1,i,0.185,0,S,4.0
S4,35.0,23.0,21.0,35.0,26.0,23,918.0,square1,i,0.149,0,S,4.0
S4,36.0,19.0,21.0,33.0,24.0,19,937.0,square1,i,0.55,0,S,4.0
S4,37.0,20.0,17.0,26.0,26.0,20,957.0,square1,i,0.179,0,S,4.0
S4,38.0,28.0,20.0,28.0,26.0,28,985.0,square3,r,0.285,2,S,4.0
S4,39.0,28.0,23.0,40.0,27.0,40,1025.0,square3,r,0.066,2,S,4.0
S4,40.0,25.0,24.0,32.0,22.0,32,1057.0,square3,r,0.215,2,S,4.0
S4,41.0,23.0,23.0,26.0,17.0,26,1083.0,square3,r,0.049,2,S,4.0
S4,42.0,26.0,18.0,33.0,22.0,22,1105.0,square4,j,0.013,3,S,4.0
S4,43.0,22.0,21.0,36.0,25.0,25,1130.0,square4,j,0.113,3,S,4.0
S4,44.0,21.0,18.0,33.0,14.0,33,1163.0,square3,r,0.073,2,S,4.0
S4,45.0,29.0,19.0,30.0,29.0,30,1193.0,square3,r,0.024,2,S,4.0
S4,46.0,21.0,16.0,22.0,23.0,22,1215.0,square3,r,0.039,2,S,4.0
S4,47.0,22.0,18.0,28.0,22.0,22,1237.0,square1,i,0.518,0,S,4.0
S4,48.0,33.0,21.0,32.0,26.0,33,1270.0,square1,i,0.1,0,S,4.0
S4,49.0,23.0,17.0,20.0,21.0,23,1293.0,square1,i,1.719,0,S,4.0
S9,0.0,36.0,36.0,32.0,32.0,36,36.0,square2,r,1.296,1,S,9.0
S9,1.0,40.0,29.0,36.0,24.0,24,60.0,square4,i,0.119,3,S,9.0
S9,2.0,31.0,43.0,22.0,29.0,43,103.0,square2,r,0.518,1,S,9.0
S9,3.0,41.0,33.0,28.0,27.0,33,136.0,square2,r,0.168,1,S,9.0
S9,4.0,34.0,29.0,32.0,31.0,29,165.0,square2,r,0.097,1,S,9.0
S9,5.0,41.0,32.0,22.0,29.0,32,197.0,square2,r,0.152,1,S,9.0
S9,6.0,44.0,30.0,21.0,28.0,30,227.0,square2,r,0.416,1,S,9.0
S9,7.0,39.0,37.0,26.0,24.0,37,264.0,square2,r,0.084,1,S,9.0
S9,8.0,41.0,33.0,23.0,20.0,33,297.0,square2,r,0.413,1,S,9.0
S9,9.0,30.0,35.0,24.0,27.0,35,332.0,square2,r,0.299,1,S,9.0
S9,10.0,41.0,29.0,23.0,28.0,23,355.0,square3,j,0.167,2,S,9.0
S9,11.0,37.0,38.0,22.0,33.0,37,392.0,square1,f,0.404,0,S,9.0
S9,12.0,35.0,31.0,27.0,32.0,31,423.0,square2,r,0.303,1,S,9.0
S9,13.0,38.0,37.0,30.0,29.0,38,461.0,square1,f,0.121,0,S,9.0
S9,14.0,36.0,38.0,30.0,37.0,36,497.0,square1,f,0.453,0,S,9.0
S9,15.0,40.0,29.0,27.0,24.0,40,537.0,square1,f,0.22,0,S,9.0
S9,16.0,33.0,37.0,29.0,28.0,33,570.0,square1,f,0.104,0,S,9.0
S9,17.0,41.0,32.0,36.0,31.0,41,611.0,square1,f,0.13,0,S,9.0
S9,18.0,39.0,26.0,16.0,35.0,39,650.0,square1,f,0.651,0,S,9.0
S9,19.0,35.0,30.0,23.0,27.0,35,685.0,square1,f,0.689,0,S,9.0
S9,20.0,39.0,34.0,23.0,29.0,39,724.0,square1,f,0.451,0,S,9.0
S9,21.0,35.0,37.0,28.0,31.0,35,759.0,square1,f,0.099,0,S,9.0
S9,22.0,37.0,30.0,23.0,38.0,37,796.0,square1,f,0.246,0,S,9.0
S9,23.0,37.0,34.0,27.0,34.0,37,833.0,square1,f,0.428,0,S,9.0
S9,24.0,31.0,34.0,26.0,27.0,34,867.0,square2,r,0.336,1,S,9.0
S9,25.0,38.0,40.0,29.0,24.0,38,905.0,square1,f,0.19,0,S,9.0
S9,26.0,43.0,31.0,21.0,24.0,43,948.0,square1,f,0.036,0,S,9.0
S9,27.0,30.0,31.0,23.0,28.0,30,978.0,square1,f,0.4,0,S,9.0
S9,28.0,44.0,32.0,31.0,32.0,44,1022.0,square1,f,0.051,0,S,9.0
S9,29.0,36.0,38.0,22.0,22.0,36,1058.0,square1,f,0.035,0,S,9.0
S9,30.0,41.0,30.0,26.0,29.0,41,1099.0,square1,f,0.068,0,S,9.0
S9,31.0,39.0,37.0,30.0,32.0,39,1138.0,square1,f,0.183,0,S,9.0
S9,32.0,35.0,39.0,28.0,31.0,35,1173.0,square1,f,0.201,0,S,9.0
S9,33.0,37.0,39.0,29.0,32.0,37,1210.0,square1,f,0.148,0,S,9.0
S9,34.0,46.0,33.0,21.0,25.0,46,1256.0,square1,f,0.104,0,S,9.0
S9,35.0,38.0,33.0,28.0,28.0,38,1294.0,square1,f,0.065,0,S,9.0
S9,36.0,40.0,37.0,21.0,32.0,40,1334.0,square1,f,0.178,0,S,9.0
S9,37.0,38.0,43.0,23.0,37.0,38,1372.0,square1,f,0.068,0,S,9.0
S9,38.0,36.0,31.0,29.0,29.0,36,1408.0,square1,f,0.004,0,S,9.0
S9,39.0,41.0,29.0,26.0,28.0,41,1449.0,square1,f,0.649,0,S,9.0
S9,40.0,32.0,36.0,26.0,28.0,32,1481.0,square1,f,1.566,0,S,9.0
S9,41.0,40.0,37.0,35.0,28.0,40,1521.0,square1,f,0.305,0,S,9.0
S9,42.0,43.0,32.0,26.0,37.0,43,1564.0,square1,f,0.066,0,S,9.0
S9,43.0,40.0,31.0,23.0,31.0,40,1604.0,square1,f,0.035,0,S,9.0
S9,44.0,42.0,38.0,24.0,40.0,42,1646.0,square1,f,0.023,0,S,9.0
S9,45.0,36.0,35.0,30.0,33.0,36,1682.0,square1,f,0.001,0,S,9.0
S9,46.0,38.0,30.0,33.0,26.0,38,1720.0,square1,f,0.031,0,S,9.0
S9,47.0,39.0,37.0,25.0,26.0,39,1759.0,square1,f,0.613,0,S,9.0
S9,48.0,36.0,35.0,26.0,27.0,36,1795.0,square1,f,0.585,0,S,9.0
S9,49.0,40.0,32.0,24.0,28.0,40,1835.0,square1,f,0.301,0,S,9.0
S10,0.0,72.0,76.0,80.0,64.0,76,76.0,square2,j,1.234,1,S,10.0
S10,1.0,76.0,75.0,74.0,65.0,75,151.0,square2,j,0.101,1,S,10.0
S10,2.0,70.0,72.0,79.0,74.0,72,223.0,square2,j,0.013,1,S,10.0
S10,3.0,69.0,77.0,76.0,68.0,69,292.0,square1,i,0.08,0,S,10.0
S10,4.0,72.0,79.0,77.0,70.0,70,362.0,square4,r,0.901,3,S,10.0
S10,5.0,68.0,74.0,72.0,64.0,72,434.0,square3,f,0.099,2,S,10.0
S10,6.0,70.0,77.0,72.0,62.0,77,511.0,square2,j,0.167,1,S,10.0
S10,7.0,78.0,81.0,80.0,74.0,81,592.0,square2,j,0.597,1,S,10.0
S10,8.0,78.0,78.0,82.0,66.0,78,670.0,square2,j,0.121,1,S,10.0
S10,9.0,69.0,76.0,77.0,65.0,76,746.0,square2,j,0.507,1,S,10.0
S10,10.0,72.0,78.0,72.0,75.0,78,824.0,square2,j,0.08,1,S,10.0
S10,11.0,71.0,76.0,78.0,66.0,71,895.0,square1,i,0.736,0,S,10.0
S10,12.0,73.0,83.0,79.0,69.0,83,978.0,square2,j,0.179,1,S,10.0
S10,13.0,68.0,77.0,65.0,65.0,77,1055.0,square2,j,0.148,1,S,10.0
S10,14.0,69.0,84.0,79.0,65.0,84,1139.0,square2,j,0.005,1,S,10.0
S10,15.0,72.0,84.0,70.0,71.0,84,1223.0,square2,j,0.439,1,S,10.0
S10,16.0,79.0,80.0,82.0,67.0,80,1303.0,square2,j,0.74,1,S,10.0
S10,17.0,69.0,83.0,75.0,70.0,83,1386.0,square2,j,0.65,1,S,10.0
S10,18.0,69.0,75.0,69.0,68.0,75,1461.0,square2,j,0.183,1,S,10.0
S10,19.0,70.0,83.0,73.0,66.0,83,1544.0,square2,j,0.502,1,S,10.0
S10,20.0,69.0,83.0,75.0,66.0,83,1627.0,square2,j,0.233,1,S,10.0
S10,21.0,77.0,70.0,75.0,70.0,70,1697.0,square2,j,0.825,1,S,10.0
S10,22.0,73.0,77.0,81.0,69.0,77,1774.0,square2,j,0.218,1,S,10.0
S10,23.0,73.0,78.0,70.0,65.0,78,1852.0,square2,j,0.082,1,S,10.0
S10,24.0,70.0,80.0,75.0,66.0,80,1932.0,square2,j,0.005,1,S,10.0
S10,25.0,70.0,80.0,73.0,72.0,80,2012.0,square2,j,0.078,1,S,10.0
S10,26.0,73.0,75.0,73.0,75.0,75,2087.0,square2,j,0.265,1,S,10.0
S10,27.0,77.0,81.0,83.0,66.0,81,2168.0,square2,j,0.271,1,S,10.0
S10,28.0,73.0,79.0,79.0,73.0,79,2247.0,square2,j,0.234,1,S,10.0
S10,29.0,73.0,79.0,72.0,69.0,79,2326.0,square2,j,0.033,1,S,10.0
S10,30.0,71.0,85.0,79.0,69.0,85,2411.0,square2,j,0.005,1,S,10.0
S10,31.0,71.0,85.0,83.0,66.0,85,2496.0,square2,j,0.185,1,S,10.0
S10,32.0,78.0,79.0,77.0,65.0,79,2575.0,square2,j,0.133,1,S,10.0
S10,33.0,83.0,79.0,72.0,68.0,79,2654.0,square2,j,0.44,1,S,10.0
S10,34.0,68.0,74.0,79.0,72.0,74,2728.0,square2,j,0.014,1,S,10.0
S10,35.0,70.0,83.0,79.0,67.0,83,2811.0,square2,j,0.699,1,S,10.0
S10,36.0,67.0,76.0,75.0,72.0,76,2887.0,square2,j,0.181,1,S,10.0
S10,37.0,76.0,82.0,79.0,60.0,99999,2887.0,invalid,,,-1,S,10.0
S10,38.0,72.0,75.0,69.0,68.0,75,2962.0,square2,j,0.0,1,S,10.0
S10,39.0,73.0,78.0,76.0,70.0,78,3040.0,square2,j,0.05,1,S,10.0
S10,40.0,76.0,77.0,66.0,60.0,77,3117.0,square2,j,0.164,1,S,10.0
S10,41.0,74.0,83.0,73.0,67.0,83,3200.0,square2,j,0.096,1,S,10.0
S10,42.0,72.0,69.0,80.0,63.0,69,3269.0,square2,j,0.138,1,S,10.0
S10,43.0,69.0,74.0,72.0,68.0,74,3343.0,square2,j,0.138,1,S,10.0
S10,44.0,67.0,76.0,70.0,65.0,76,3419.0,square2,j,0.184,1,S,10.0
S10,45.0,76.0,81.0,74.0,72.0,81,3500.0,square2,j,0.168,1,S,10.0
S10,46.0,76.0,79.0,76.0,66.0,79,3579.0,square2,j,0.148,1,S,10.0
S10,47.0,67.0,81.0,84.0,60.0,81,3660.0,square2,j,0.168,1,S,10.0
S10,48.0,73.0,83.0,75.0,66.0,83,3743.0,square2,j,0.15,1,S,10.0
S10,49.0,66.0,77.0,74.0,71.0,77,3820.0,square2,j,0.131,1,S,10.0
S5,0.0,90.0,70.0,79.0,84.0,70,70.0,square2,r,1.728,1,S,5.0
S5,1.0,92.0,77.0,83.0,81.0,92,162.0,square1,f,0.064,0,S,5.0
S5,2.0,83.0,72.0,81.0,76.0,76,238.0,square4,i,0.103,3,S,5.0
S5,3.0,87.0,72.0,79.0,81.0,79,317.0,square3,j,0.367,2,S,5.0
S5,4.0,86.0,81.0,78.0,72.0,81,398.0,square2,r,0.667,1,S,5.0
S5,5.0,89.0,70.0,79.0,83.0,89,487.0,square1,f,0.164,0,S,5.0
S5,6.0,86.0,69.0,81.0,81.0,81,568.0,square4,i,0.232,3,S,5.0
S5,7.0,82.0,72.0,86.0,80.0,86,654.0,square3,j,0.132,2,S,5.0
S5,8.0,84.0,67.0,80.0,77.0,84,738.0,square1,f,0.169,0,S,5.0
S5,9.0,92.0,80.0,86.0,84.0,92,830.0,square1,f,0.138,0,S,5.0
S5,10.0,82.0,71.0,80.0,80.0,82,912.0,square1,f,0.033,0,S,5.0
S5,11.0,80.0,75.0,79.0,75.0,80,992.0,square1,f,0.067,0,S,5.0
S5,12.0,84.0,75.0,80.0,82.0,84,1076.0,square1,f,0.0,0,S,5.0
S5,13.0,85.0,74.0,74.0,81.0,85,1161.0,square1,f,0.05,0,S,5.0
S5,14.0,81.0,79.0,85.0,81.0,81,1242.0,square1,f,0.53,0,S,5.0
S5,15.0,81.0,75.0,76.0,77.0,81,1323.0,square1,f,0.471,0,S,5.0
S5,16.0,86.0,74.0,78.0,74.0,86,1409.0,square1,f,0.588,0,S,5.0
S5,17.0,81.0,77.0,81.0,77.0,81,1490.0,square1,f,0.864,0,S,5.0
S5,18.0,87.0,70.0,84.0,82.0,87,1577.0,square1,f,0.523,0,S,5.0
S5,19.0,84.0,76.0,83.0,76.0,84,1661.0,square1,f,0.435,0,S,5.0
S5,20.0,79.0,78.0,82.0,76.0,79,1740.0,square1,f,0.632,0,S,5.0
S5,21.0,86.0,68.0,80.0,72.0,86,1826.0,square1,f,0.955,0,S,5.0
S5,22.0,93.0,80.0,85.0,84.0,93,1919.0,square1,f,1.621,0,S,5.0
S5,23.0,87.0,73.0,76.0,70.0,99999,1919.0,invalid,,,-1,S,5.0
S5,24.0,85.0,69.0,81.0,78.0,99999,1919.0,invalid,,,-1,S,5.0
S5,25.0,89.0,77.0,77.0,76.0,89,2008.0,square1,f,0.052,0,S,5.0
S5,26.0,84.0,71.0,81.0,75.0,84,2092.0,square1,f,0.198,0,S,5.0
S5,27.0,84.0,75.0,82.0,71.0,99999,2092.0,invalid,,,-1,S,5.0
S5,28.0,83.0,72.0,82.0,78.0,83,2175.0,square1,f,0.914,0,S,5.0
S5,29.0,91.0,67.0,79.0,74.0,91,2266.0,square1,f,0.065,0,S,5.0
S5,30.0,82.0,69.0,81.0,77.0,82,2348.0,square1,f,0.351,0,S,5.0
S5,31.0,82.0,72.0,80.0,78.0,82,2430.0,square1,f,0.586,0,S,5.0
S5,32.0,83.0,73.0,91.0,80.0,83,2513.0,square1,f,0.248,0,S,5.0
S5,33.0,83.0,68.0,85.0,78.0,83,2596.0,square1,f,0.466,0,S,5.0
S5,34.0,89.0,79.0,83.0,77.0,89,2685.0,square1,f,0.299,0,S,5.0
S5,35.0,88.0,72.0,79.0,80.0,88,2773.0,square1,f,0.101,0,S,5.0
S5,36.0,90.0,74.0,84.0,76.0,90,2863.0,square1,f,0.118,0,S,5.0
S5,37.0,85.0,75.0,80.0,82.0,85,2948.0,square1,f,0.353,0,S,5.0
S5,38.0,78.0,74.0,85.0,79.0,78,3026.0,square1,f,0.449,0,S,5.0
S5,39.0,87.0,73.0,87.0,85.0,87,3113.0,square1,f,0.266,0,S,5.0
S5,40.0,83.0,67.0,81.0,80.0,83,3196.0,square1,f,0.213,0,S,5.0
S5,41.0,82.0,69.0,88.0,80.0,82,3278.0,square1,f,0.016,0,S,5.0
S5,42.0,85.0,78.0,91.0,80.0,85,3363.0,square1,f,0.057,0,S,5.0
S5,43.0,89.0,74.0,78.0,74.0,89,3452.0,square1,f,0.012,0,S,5.0
S5,44.0,90.0,74.0,77.0,85.0,90,3542.0,square1,f,0.296,0,S,5.0
S5,45.0,89.0,68.0,81.0,78.0,89,3631.0,square1,f,0.004,0,S,5.0
S5,46.0,86.0,70.0,86.0,68.0,86,3717.0,square1,f,0.271,0,S,5.0
S5,47.0,90.0,77.0,85.0,84.0,90,3807.0,square1,f,0.433,0,S,5.0
S5,48.0,76.0,66.0,82.0,79.0,76,3883.0,square1,f,0.013,0,S,5.0
S5,49.0,84.0,73.0,82.0,75.0,84,3967.0,square1,f,0.634,0,S,5.0
