block,Trial,square1,square2,square3,square4,currPoints,totalPoints,square,choiceKey.keys,choiceKey.rt,armNum,blockType,blockNum
prac,0.0,100.0,0.0,0.0,0.0,99999,0.0,invalid,,,-1,p,0.0
prac,1.0,100.0,0.0,0.0,0.0,0,0.0,square3,,,2,p,0.0
prac,2.0,100.0,0.0,0.0,0.0,0,0.0,square4,,,3,p,0.0
prac,3.0,100.0,0.0,0.0,0.0,100,100.0,square1,,,0,p,0.0
prac,4.0,100.0,0.0,0.0,0.0,100,200.0,square1,,,0,p,0.0
prac,5.0,100.0,0.0,0.0,0.0,100,300.0,square1,,,0,p,0.0
prac,6.0,100.0,0.0,0.0,0.0,100,400.0,square1,,,0,p,0.0
prac,7.0,100.0,0.0,0.0,0.0,100,500.0,square1,,,0,p,0.0
prac,8.0,100.0,0.0,0.0,0.0,100,600.0,square1,,,0,p,0.0
prac,9.0,100.0,0.0,0.0,0.0,100,700.0,square1,,,0,p,0.0
S1,0.0,72.0,58.0,70.0,66.0,70,70.0,square3,i,0.838,2,S,1.0
S1,1.0,75.0,64.0,66.0,69.0,64,134.0,square2,j,0.335,1,S,1.0
S1,2.0,75.0,62.0,62.0,79.0,79,213.0,square4,r,1.486,3,S,1.0
S1,3.0,68.0,62.0,63.0,69.0,68,281.0,square1,f,0.399,0,S,1.0
S1,4.0,82.0,63.0,64.0,73.0,73,354.0,square4,r,0.181,3,S,1.0
S1,5.0,66.0,70.0,65.0,73.0,73,427.0,square4,r,0.055,3,S,1.0
S1,6.0,73.0,65.0,62.0,65.0,65,492.0,square4,r,0.137,3,S,1.0
S1,7.0,70.0,61.0,65.0,66.0,66,558.0,square4,r,0.035,3,S,1.0
S1,8.0,78.0,63.0,67.0,68.0,68,626.0,square4,r,0.054,3,S,1.0
S1,9.0,74.0,67.0,66.0,68.0,68,694.0,square4,r,0.163,3,S,1.0
S1,10.0,73.0,59.0,68.0,68.0,68,762.0,square4,r,0.537,3,S,1.0
S1,11.0,76.0,65.0,62.0,81.0,81,843.0,square4,r,0.789,3,S,1.0
S1,12.0,77.0,66.0,69.0,63.0,63,906.0,square4,r,0.054,3,S,1.0
S1,13.0,75.0,63.0,68.0,73.0,73,979.0,square4,r,0.122,3,S,1.0
S1,14.0,67.0,60.0,67.0,69.0,69,1048.0,square4,r,0.672,3,S,1.0
S1,15.0,70.0,63.0,69.0,73.0,73,1121.0,square4,r,0.124,3,S,1.0
S1,16.0,69.0,61.0,69.0,69.0,69,1190.0,square4,r,0.354,3,S,1.0
S1,17.0,73.0,68.0,67.0,73.0,73,1263.0,square4,r,0.127,3,S,1.0
S1,18.0,70.0,58.0,73.0,66.0,66,1329.0,square4,r,0.07,3,S,1.0
S1,19.0,75.0,58.0,62.0,68.0,68,1397.0,square4,r,0.12,3,S,1.0
S1,20.0,76.0,58.0,72.0,67.0,67,1464.0,square4,r,0.037,3,S,1.0
S1,21.0,69.0,66.0,66.0,67.0,67,1531.0,square4,r,0.051,3,S,1.0
S1,22.0,70.0,68.0,65.0,65.0,65,1596.0,square4,r,0.768,3,S,1.0
S1,23.0,71.0,60.0,64.0,64.0,64,1660.0,square4,r,0.356,3,S,1.0
S1,24.0,70.0,72.0,62.0,67.0,62,1722.0,square3,i,0.186,2,S,1.0
S1,25.0,68.0,60.0,70.0,65.0,65,1787.0,square4,r,0.036,3,S,1.0
S1,26.0,76.0,64.0,72.0,69.0,69,1856.0,square4,r,0.445,3,S,1.0
S1,27.0,71.0,56.0,70.0,65.0,65,1921.0,square4,r,1.737,3,S,1.0
S1,28.0,67.0,67.0,71.0,76.0,99999,1921.0,invalid,,,-1,S,1.0
S1,29.0,78.0,64.0,64.0,74.0,99999,1921.0,invalid,,,-1,S,1.0
S1,30.0,74.0,63.0,65.0,71.0,71,1992.0,square4,r,0.283,3,S,1.0
S1,31.0,78.0,58.0,69.0,69.0,69,2061.0,square4,r,0.664,3,S,1.0
S1,32.0,71.0,67.0,68.0,60.0,99999,2061.0,invalid,,,-1,S,1.0
S1,33.0,68.0,63.0,65.0,73.0,73,2134.0,square4,r,0.859,3,S,1.0
S1,34.0,71.0,62.0,74.0,73.0,73,2207.0,square4,r,0.737,3,S,1.0
S1,35.0,75.0,59.0,67.0,77.0,77,2284.0,square4,r,0.454,3,S,1.0
S1,36.0,77.0,60.0,66.0,67.0,67,2351.0,square4,r,1.037,3,S,1.0
S1,37.0,69.0,60.0,69.0,75.0,75,2426.0,square4,r,0.737,3,S,1.0
S1,38.0,77.0,64.0,62.0,70.0,70,2496.0,square4,r,1.738,3,S,1.0
S1,39.0,72.0,66.0,69.0,65.0,65,2561.0,square4,r,0.671,3,S,1.0
S1,40.0,69.0,63.0,66.0,69.0,99999,2561.0,invalid,,,-1,S,1.0
S1,41.0,72.0,62.0,70.0,70.0,70,2631.0,square4,r,1.241,3,S,1.0
S1,42.0,78.0,60.0,63.0,62.0,62,2693.0,square4,r,0.239,3,S,1.0
S1,43.0,71.0,62.0,67.0,73.0,73,2766.0,square4,r,1.353,3,S,1.0
S1,44.0,75.0,63.0,69.0,73.0,73,2839.0,square4,r,0.271,3,S,1.0
S1,45.0,66.0,60.0,68.0,73.0,99999,2839.0,invalid,,,-1,S,1.0
S1,46.0,74.0,67.0,69.0,71.0,71,2910.0,square4,r,0.127,3,S,1.0
S1,47.0,71.0,66.0,68.0,70.0,70,2980.0,square4,r,0.087,3,S,1.0
S1,48.0,72.0,75.0,71.0,77.0,77,3057.0,square4,r,0.037,3,S,1.0
S1,49.0,65.0,57.0,66.0,75.0,75,3132.0,square4,r,0.303,3,S,1.0
S12,0.0,38.0,42.0,30.0,42.0,99999,0.0,invalid,,,-1,S,12.0
S12,1.0,30.0,42.0,28.0,37.0,28,28.0,square3,r,0.391,2,S,12.0
S12,2.0,34.0,41.0,38.0,43.0,41,69.0,square2,f,0.117,1,S,12.0
S12,3.0,38.0,51.0,38.0,38.0,38,107.0,square1,i,0.136,0,S,12.0
S12,4.0,32.0,37.0,33.0,45.0,45,152.0,square4,j,0.581,3,S,12.0
S12,5.0,38.0,52.0,36.0,35.0,52,204.0,square2,f,0.249,1,S,12.0
S12,6.0,30.0,43.0,30.0,38.0,43,247.0,square2,f,0.134,1,S,12.0
S12,7.0,38.0,39.0,30.0,39.0,39,286.0,square4,j,0.335,3,S,12.0
S12,8.0,37.0,49.0,35.0,38.0,49,335.0,square2,f,0.184,1,S,12.0
S12,9.0,37.0,44.0,29.0,38.0,44,379.0,square2,f,0.22,1,S,12.0
S12,10.0,35.0,42.0,30.0,45.0,42,421.0,square2,f,0.619,1,S,12.0
S12,11.0,34.0,45.0,36.0,32.0,45,466.0,square2,f,0.346,1,S,12.0
S12,12.0,33.0,45.0,35.0,42.0,45,511.0,square2,f,1.269,1,S,12.0
S12,13.0,36.0,36.0,29.0,40.0,36,547.0,square2,f,0.087,1,S,12.0
S12,14.0,36.0,49.0,32.0,42.0,49,596.0,square2,f,0.184,1,S,12.0
S12,15.0,35.0,43.0,35.0,46.0,43,639.0,square2,f,0.888,1,S,12.0
S12,16.0,39.0,48.0,41.0,43.0,48,687.0,square2,f,0.203,1,S,12.0
S12,17.0,35.0,47.0,27.0,38.0,47,734.0,square2,f,0.052,1,S,12.0
S12,18.0,37.0,51.0,33.0,33.0,51,785.0,square2,f,0.053,1,S,12.0
S12,19.0,41.0,42.0,33.0,36.0,42,827.0,square2,f,0.176,1,S,12.0
S12,20.0,34.0,44.0,26.0,41.0,44,871.0,square2,f,0.087,1,S,12.0
S12,21.0,35.0,37.0,29.0,35.0,37,908.0,square2,f,0.021,1,S,12.0
S12,22.0,37.0,48.0,31.0,41.0,48,956.0,square2,f,0.164,1,S,12.0
S12,23.0,36.0,43.0,27.0,45.0,43,999.0,square2,f,0.247,1,S,12.0
S12,24.0,39.0,48.0,38.0,38.0,48,1047.0,square2,f,0.154,1,S,12.0
S12,25.0,31.0,43.0,30.0,40.0,43,1090.0,square2,f,0.168,1,S,12.0
S12,26.0,35.0,48.0,34.0,33.0,48,1138.0,square2,f,0.501,1,S,12.0
S12,27.0,46.0,46.0,28.0,38.0,46,1184.0,square2,f,0.252,1,S,12.0
S12,28.0,32.0,37.0,32.0,40.0,37,1221.0,square2,f,0.268,1,S,12.0
S12,29.0,38.0,41.0,32.0,44.0,41,1262.0,square2,f,0.119,1,S,12.0
S12,30.0,32.0,48.0,29.0,42.0,48,1310.0,square2,f,0.002,1,S,12.0
S12,31.0,34.0,46.0,30.0,42.0,46,1356.0,square2,f,0.185,1,S,12.0
S12,32.0,39.0,43.0,41.0,40.0,43,1399.0,square2,f,0.334,1,S,12.0
S12,33.0,36.0,47.0,33.0,46.0,47,1446.0,square2,f,0.252,1,S,12.0
S12,34.0,36.0,41.0,34.0,41.0,41,1487.0,square2,f,0.569,1,S,12.0
S12,35.0,34.0,42.0,31.0,43.0,42,1529.0,square2,f,1.103,1,S,12.0
S12,36.0,39.0,43.0,26.0,33.0,43,1572.0,square2,f,0.218,1,S,12.0
S12,37.0,39.0,49.0,30.0,42.0,49,1621.0,square2,f,0.584,1,S,12.0
S12,38.0,33.0,47.0,36.0,41.0,47,1668.0,square2,f,0.087,1,S,12.0
S12,39.0,29.0,46.0,35.0,36.0,46,1714.0,square2,f,0.019,1,S,12.0
S12,40.0,39.0,39.0,29.0,36.0,39,1753.0,square2,f,0.174,1,S,12.0
S12,41.0,33.0,44.0,31.0,40.0,44,1797.0,square2,f,0.17,1,S,12.0
S12,42.0,34.0,46.0,25.0,37.0,46,1843.0,square2,f,0.071,1,S,12.0
S12,43.0,37.0,42.0,30.0,42.0,42,1885.0,square2,f,0.073,1,S,12.0
S12,44.0,33.0,49.0,36.0,39.0,49,1934.0,square2,f,0.684,1,S,12.0
S12,45.0,35.0,40.0,30.0,47.0,40,1974.0,square2,f,0.603,1,S,12.0
S12,46.0,40.0,41.0,29.0,35.0,41,2015.0,square2,f,0.036,1,S,12.0
S12,47.0,32.0,42.0,28.0,43.0,42,2057.0,square2,f,1.127,1,S,12.0
S12,48.0,43.0,47.0,31.0,38.0,47,2104.0,square2,f,0.123,1,S,12.0
S12,49.0,37.0,41.0,35.0,40.0,41,2145.0,square2,f,0.252,1,S,12.0
S6,0.0,40.0,29.0,39.0,26.0,99999,0.0,invalid,,,-1,S,6.0
S6,1.0,34.0,40.0,31.0,25.0,25,25.0,square4,f,1.342,3,S,6.0
S6,2.0,37.0,31.0,25.0,30.0,37,62.0,square1,r,0.033,0,S,6.0
S6,3.0,39.0,37.0,30.0,27.0,37,99.0,square2,i,0.087,1,S,6.0
S6,4.0,42.0,40.0,28.0,32.0,28,127.0,square3,j,0.002,2,S,6.0
S6,5.0,35.0,35.0,39.0,29.0,35,162.0,square2,i,0.07,1,S,6.0
S6,6.0,48.0,30.0,37.0,33.0,48,210.0,square1,r,0.229,0,S,6.0
S6,7.0,47.0,34.0,31.0,29.0,47,257.0,square1,r,0.069,0,S,6.0
S6,8.0,43.0,35.0,30.0,25.0,35,292.0,square2,i,0.404,1,S,6.0
S6,9.0,36.0,38.0,35.0,35.0,36,328.0,square1,r,0.123,0,S,6.0
S6,10.0,38.0,35.0,31.0,21.0,38,366.0,square1,r,0.317,0,S,6.0
S6,11.0,30.0,36.0,31.0,20.0,30,396.0,square1,r,0.14,0,S,6.0
S6,12.0,37.0,40.0,33.0,22.0,37,433.0,square1,r,0.089,0,S,6.0
S6,13.0,32.0,41.0,35.0,29.0,32,465.0,square1,r,0.123,0,S,6.0
S6,14.0,41.0,29.0,30.0,32.0,41,506.0,square1,r,0.121,0,S,6.0
S6,15.0,43.0,37.0,31.0,27.0,43,549.0,square1,r,0.104,0,S,6.0
S6,16.0,34.0,34.0,35.0,31.0,34,583.0,square1,r,0.104,0,S,6.0
S6,17.0,47.0,40.0,29.0,28.0,47,630.0,square1,r,0.106,0,S,6.0
S6,18.0,37.0,38.0,34.0,35.0,37,667.0,square1,r,0.192,0,S,6.0
S6,19.0,36.0,39.0,31.0,26.0,36,703.0,square1,r,0.135,0,S,6.0
S6,20.0,44.0,40.0,31.0,25.0,44,747.0,square1,r,0.267,0,S,6.0
S6,21.0,39.0,41.0,35.0,24.0,39,786.0,square1,r,0.221,0,S,6.0
S6,22.0,41.0,38.0,41.0,31.0,41,827.0,square1,r,0.067,0,S,6.0
S6,23.0,37.0,31.0,30.0,32.0,37,864.0,square1,r,0.052,0,S,6.0
S6,24.0,48.0,34.0,34.0,21.0,48,912.0,square1,r,0.169,0,S,6.0
S6,25.0,42.0,45.0,26.0,29.0,42,954.0,square1,r,1.161,0,S,6.0
S6,26.0,40.0,39.0,36.0,28.0,40,994.0,square1,r,0.705,0,S,6.0
S6,27.0,42.0,33.0,29.0,29.0,42,1036.0,square1,r,0.421,0,S,6.0
S6,28.0,41.0,30.0,29.0,29.0,41,1077.0,square1,r,0.754,0,S,6.0
S6,29.0,42.0,40.0,32.0,27.0,42,1119.0,square1,r,0.737,0,S,6.0
S6,30.0,42.0,36.0,30.0,26.0,42,1161.0,square1,r,1.005,0,S,6.0
S6,31.0,42.0,34.0,35.0,29.0,42,1203.0,square1,r,0.636,0,S,6.0
S6,32.0,35.0,36.0,31.0,23.0,35,1238.0,square1,r,1.833,0,S,6.0
S6,33.0,35.0,31.0,35.0,30.0,35,1273.0,square1,r,0.972,0,S,6.0
S6,34.0,40.0,38.0,31.0,27.0,40,1313.0,square1,r,0.016,0,S,6.0
S6,35.0,42.0,37.0,34.0,34.0,42,1355.0,square1,r,0.053,0,S,6.0
S6,36.0,37.0,46.0,31.0,34.0,37,1392.0,square1,r,0.234,0,S,6.0
S6,37.0,38.0,40.0,30.0,26.0,38,1430.0,square1,r,0.655,0,S,6.0
S6,38.0,36.0,34.0,31.0,33.0,36,1466.0,square1,r,0.001,0,S,6.0
S6,39.0,44.0,37.0,33.0,31.0,44,1510.0,square1,r,0.787,0,S,6.0
S6,40.0,40.0,38.0,31.0,25.0,40,1550.0,square1,r,1.417,0,S,6.0
S6,41.0,49.0,35.0,35.0,28.0,49,1599.0,square1,r,1.019,0,S,6.0
S6,42.0,44.0,40.0,32.0,28.0,44,1643.0,square1,r,0.187,0,S,6.0
S6,43.0,43.0,36.0,33.0,26.0,43,1686.0,square1,r,0.293,0,S,6.0
S6,44.0,38.0,33.0,34.0,26.0,38,1724.0,square1,r,0.675,0,S,6.0
S6,45.0,32.0,35.0,30.0,28.0,32,1756.0,square1,r,0.068,0,S,6.0
S6,46.0,38.0,36.0,34.0,30.0,38,1794.0,square1,r,0.167,0,S,6.0
S6,47.0,44.0,35.0,32.0,31.0,44,1838.0,square1,r,0.172,0,S,6.0
S6,48.0,40.0,40.0,31.0,33.0,40,1878.0,square1,r,0.252,0,S,6.0
S6,49.0,41.0,29.0,29.0,29.0,41,1919.0,square1,r,0.284,0,S,6.0
S9,0.0,36.0,36.0,32.0,32.0,32,32.0,square4,r,0.814,3,S,9.0
S9,1.0,40.0,29.0,36.0,24.0,99999,32.0,invalid,,,-1,S,9.0
S9,2.0,31.0,43.0,22.0,29.0,43,75.0,square2,f,0.44,1,S,9.0
S9,3.0,41.0,33.0,28.0,27.0,28,103.0,square3,i,0.185,2,S,9.0
S9,4.0,34.0,29.0,32.0,31.0,34,137.0,square1,j,0.536,0,S,9.0
S9,5.0,41.0,32.0,22.0,29.0,32,169.0,square2,f,0.319,1,S,9.0
S9,6.0,44.0,30.0,21.0,28.0,28,197.0,square4,r,0.536,3,S,9.0
S9,7.0,39.0,37.0,26.0,24.0,37,234.0,square2,f,0.085,1,S,9.0
S9,8.0,41.0,33.0,23.0,20.0,23,257.0,square3,i,0.71,2,S,9.0
S9,9.0,30.0,35.0,24.0,27.0,35,292.0,square2,f,0.171,1,S,9.0
S9,10.0,41.0,29.0,23.0,28.0,29,321.0,square2,f,0.258,1,S,9.0
S9,11.0,37.0,38.0,22.0,33.0,38,359.0,square2,f,0.376,1,S,9.0
S9,12.0,35.0,31.0,27.0,32.0,99999,359.0,invalid,,,-1,S,9.0
S9,13.0,38.0,37.0,30.0,29.0,37,396.0,square2,f,1.374,1,S,9.0
S9,14.0,36.0,38.0,30.0,37.0,38,434.0,square2,f,0.533,1,S,9.0
S9,15.0,40.0,29.0,27.0,24.0,29,463.0,square2,f,0.352,1,S,9.0
S9,16.0,33.0,37.0,29.0,28.0,37,500.0,square2,f,0.451,1,S,9.0
S9,17.0,41.0,32.0,36.0,31.0,32,532.0,square2,f,0.184,1,S,9.0
S9,18.0,39.0,26.0,16.0,35.0,26,558.0,square2,f,0.035,1,S,9.0
S9,19.0,35.0,30.0,23.0,27.0,30,588.0,square2,f,0.187,1,S,9.0
S9,20.0,39.0,34.0,23.0,29.0,34,622.0,square2,f,0.288,1,S,9.0
S9,21.0,35.0,37.0,28.0,31.0,37,659.0,square2,f,0.001,1,S,9.0
S9,22.0,37.0,30.0,23.0,38.0,30,689.0,square2,f,0.035,1,S,9.0
S9,23.0,37.0,34.0,27.0,34.0,34,723.0,square2,f,0.572,1,S,9.0
S9,24.0,31.0,34.0,26.0,27.0,34,757.0,square2,f,0.571,1,S,9.0
S9,25.0,38.0,40.0,29.0,24.0,40,797.0,square2,f,0.086,1,S,9.0
S9,26.0,43.0,31.0,21.0,24.0,31,828.0,square2,f,1.044,1,S,9.0
S9,27.0,30.0,31.0,23.0,28.0,99999,828.0,invalid,,,-1,S,9.0
S9,28.0,44.0,32.0,31.0,32.0,32,860.0,square2,f,1.107,1,S,9.0
S9,29.0,36.0,38.0,22.0,22.0,38,898.0,square2,f,0.267,1,S,9.0
S9,30.0,41.0,30.0,26.0,29.0,30,928.0,square2,f,1.934,1,S,9.0
S9,31.0,39.0,37.0,30.0,32.0,37,965.0,square2,f,1.302,1,S,9.0
S9,32.0,35.0,39.0,28.0,31.0,39,1004.0,square2,f,1.302,1,S,9.0
S9,33.0,37.0,39.0,29.0,32.0,39,1043.0,square2,f,0.721,1,S,9.0
S9,34.0,46.0,33.0,21.0,25.0,33,1076.0,square2,f,0.385,1,S,9.0
S9,35.0,38.0,33.0,28.0,28.0,33,1109.0,square2,f,1.52,1,S,9.0
S9,36.0,40.0,37.0,21.0,32.0,37,1146.0,square2,f,0.069,1,S,9.0
S9,37.0,38.0,43.0,23.0,37.0,43,1189.0,square2,f,0.069,1,S,9.0
S9,38.0,36.0,31.0,29.0,29.0,31,1220.0,square2,f,0.253,1,S,9.0
S9,39.0,41.0,29.0,26.0,28.0,29,1249.0,square2,f,0.036,1,S,9.0
S9,40.0,32.0,36.0,26.0,28.0,36,1285.0,square2,f,0.621,1,S,9.0
S9,41.0,40.0,37.0,35.0,28.0,37,1322.0,square2,f,0.42,1,S,9.0
S9,42.0,43.0,32.0,26.0,37.0,32,1354.0,square2,f,0.993,1,S,9.0
S9,43.0,40.0,31.0,23.0,31.0,31,1385.0,square2,f,0.032,1,S,9.0
S9,44.0,42.0,38.0,24.0,40.0,38,1423.0,square2,f,0.352,1,S,9.0
S9,45.0,36.0,35.0,30.0,33.0,35,1458.0,square2,f,1.686,1,S,9.0
S9,46.0,38.0,30.0,33.0,26.0,30,1488.0,square2,f,0.886,1,S,9.0
S9,47.0,39.0,37.0,25.0,26.0,37,1525.0,square2,f,0.985,1,S,9.0
S9,48.0,36.0,35.0,26.0,27.0,35,1560.0,square2,f,0.104,1,S,9.0
S9,49.0,40.0,32.0,24.0,28.0,32,1592.0,square2,f,0.187,1,S,9.0
S8,0.0,58.0,60.0,52.0,45.0,99999,0.0,invalid,,,-1,S,8.0
S8,1.0,55.0,57.0,56.0,52.0,57,57.0,square2,r,0.391,1,S,8.0
S8,2.0,54.0,58.0,58.0,49.0,58,115.0,square3,f,0.389,2,S,8.0
S8,3.0,55.0,62.0,52.0,53.0,55,170.0,square1,i,0.21,0,S,8.0
S8,4.0,55.0,60.0,49.0,51.0,51,221.0,square4,j,0.124,3,S,8.0
S8,5.0,48.0,63.0,61.0,49.0,63,284.0,square2,r,0.104,1,S,8.0
S8,6.0,58.0,63.0,59.0,55.0,59,343.0,square3,f,0.019,2,S,8.0
S8,7.0,56.0,53.0,49.0,51.0,53,396.0,square2,r,0.104,1,S,8.0
S8,8.0,61.0,63.0,66.0,49.0,63,459.0,square2,r,0.254,1,S,8.0
S8,9.0,60.0,59.0,53.0,47.0,59,518.0,square2,r,0.371,1,S,8.0
S8,10.0,55.0,63.0,52.0,55.0,63,581.0,square2,r,0.035,1,S,8.0
S8,11.0,62.0,60.0,54.0,50.0,62,643.0,square1,i,0.737,0,S,8.0
S8,12.0,58.0,64.0,51.0,52.0,58,701.0,square1,i,0.488,0,S,8.0
S8,13.0,62.0,59.0,53.0,53.0,62,763.0,square1,i,0.922,0,S,8.0
S8,14.0,51.0,62.0,61.0,54.0,61,824.0,square3,f,0.771,2,S,8.0
S8,15.0,56.0,68.0,56.0,50.0,50,874.0,square4,j,0.194,3,S,8.0
S8,16.0,58.0,64.0,56.0,50.0,56,930.0,square3,f,0.122,2,S,8.0
S8,17.0,64.0,63.0,60.0,42.0,63,993.0,square2,r,0.15,1,S,8.0
S8,18.0,54.0,64.0,57.0,55.0,54,1047.0,square1,i,0.145,0,S,8.0
S8,19.0,56.0,53.0,57.0,53.0,53,1100.0,square2,r,0.016,1,S,8.0
S8,20.0,59.0,64.0,56.0,49.0,64,1164.0,square2,r,0.129,1,S,8.0
S8,21.0,54.0,59.0,55.0,48.0,59,1223.0,square2,r,0.439,1,S,8.0
S8,22.0,63.0,63.0,59.0,49.0,63,1286.0,square2,r,0.15,1,S,8.0
S8,23.0,59.0,60.0,48.0,52.0,48,1334.0,square3,f,0.137,2,S,8.0
S8,24.0,55.0,53.0,60.0,50.0,53,1387.0,square2,r,0.62,1,S,8.0
S8,25.0,57.0,60.0,55.0,54.0,60,1447.0,square2,r,0.287,1,S,8.0
S8,26.0,62.0,66.0,57.0,58.0,62,1509.0,square1,i,0.201,0,S,8.0
S8,27.0,58.0,55.0,52.0,48.0,58,1567.0,square1,i,0.021,0,S,8.0
S8,28.0,53.0,59.0,53.0,55.0,53,1620.0,square1,i,0.197,0,S,8.0
S8,29.0,60.0,58.0,57.0,53.0,60,1680.0,square1,i,0.158,0,S,8.0
S8,30.0,57.0,67.0,52.0,56.0,57,1737.0,square1,i,0.181,0,S,8.0
S8,31.0,60.0,58.0,52.0,50.0,60,1797.0,square1,i,0.002,0,S,8.0
S8,32.0,54.0,61.0,56.0,57.0,54,1851.0,square1,i,0.19,0,S,8.0
S8,33.0,66.0,64.0,63.0,52.0,66,1917.0,square1,i,0.123,0,S,8.0
S8,34.0,54.0,65.0,66.0,56.0,54,1971.0,square1,i,0.038,0,S,8.0
S8,35.0,54.0,62.0,61.0,48.0,54,2025.0,square1,i,0.173,0,S,8.0
S8,36.0,53.0,63.0,54.0,55.0,53,2078.0,square1,i,0.141,0,S,8.0
S8,37.0,64.0,58.0,57.0,51.0,64,2142.0,square1,i,0.12,0,S,8.0
S8,38.0,68.0,65.0,59.0,57.0,68,2210.0,square1,i,0.358,0,S,8.0
S8,39.0,64.0,65.0,51.0,55.0,64,2274.0,square1,i,0.153,0,S,8.0
S8,40.0,63.0,61.0,57.0,47.0,63,2337.0,square1,i,0.123,0,S,8.0
S8,41.0,65.0,58.0,55.0,49.0,65,2402.0,square1,i,0.14,0,S,8.0
S8,42.0,52.0,60.0,51.0,56.0,52,2454.0,square1,i,0.471,0,S,8.0
S8,43.0,63.0,57.0,48.0,50.0,63,2517.0,square1,i,0.087,0,S,8.0
S8,44.0,59.0,63.0,53.0,53.0,59,2576.0,square1,i,0.02,0,S,8.0
S8,45.0,62.0,62.0,60.0,53.0,62,2638.0,square1,i,0.072,0,S,8.0
S8,46.0,56.0,62.0,57.0,60.0,56,2694.0,square1,i,0.033,0,S,8.0
S8,47.0,60.0,63.0,58.0,56.0,60,2754.0,square1,i,0.001,0,S,8.0
S8,48.0,59.0,63.0,49.0,53.0,59,2813.0,square1,i,0.124,0,S,8.0
S8,49.0,67.0,67.0,59.0,55.0,67,2880.0,square1,i,0.018,0,S,8.0
S5,0.0,90.0,70.0,79.0,84.0,84,84.0,square4,r,1.006,3,S,5.0
S5,1.0,92.0,77.0,83.0,81.0,92,176.0,square1,f,0.339,0,S,5.0
S5,2.0,83.0,72.0,81.0,76.0,81,257.0,square3,j,0.17,2,S,5.0
S5,3.0,87.0,72.0,79.0,81.0,72,329.0,square2,i,0.292,1,S,5.0
S5,4.0,86.0,81.0,78.0,72.0,86,415.0,square1,f,0.19,0,S,5.0
S5,5.0,89.0,70.0,79.0,83.0,83,498.0,square4,r,0.17,3,S,5.0
S5,6.0,86.0,69.0,81.0,81.0,86,584.0,square1,f,0.537,0,S,5.0
S5,7.0,82.0,72.0,86.0,80.0,86,670.0,square3,j,0.103,2,S,5.0
S5,8.0,84.0,67.0,80.0,77.0,67,737.0,square2,i,0.237,1,S,5.0
S5,9.0,92.0,80.0,86.0,84.0,92,829.0,square1,f,0.036,0,S,5.0
S5,10.0,82.0,71.0,80.0,80.0,82,911.0,square1,f,0.154,0,S,5.0
S5,11.0,80.0,75.0,79.0,75.0,80,991.0,square1,f,0.138,0,S,5.0
S5,12.0,84.0,75.0,80.0,82.0,84,1075.0,square1,f,0.087,0,S,5.0
S5,13.0,85.0,74.0,74.0,81.0,85,1160.0,square1,f,0.088,0,S,5.0
S5,14.0,81.0,79.0,85.0,81.0,81,1241.0,square1,f,0.854,0,S,5.0
S5,15.0,81.0,75.0,76.0,77.0,81,1322.0,square1,f,0.235,0,S,5.0
S5,16.0,86.0,74.0,78.0,74.0,86,1408.0,square1,f,0.436,0,S,5.0
S5,17.0,81.0,77.0,81.0,77.0,81,1489.0,square1,f,0.221,0,S,5.0
S5,18.0,87.0,70.0,84.0,82.0,87,1576.0,square1,f,0.053,0,S,5.0
S5,19.0,84.0,76.0,83.0,76.0,84,1660.0,square1,f,0.222,0,S,5.0
S5,20.0,79.0,78.0,82.0,76.0,79,1739.0,square1,f,0.503,0,S,5.0
S5,21.0,86.0,68.0,80.0,72.0,86,1825.0,square1,f,0.318,0,S,5.0
S5,22.0,93.0,80.0,85.0,84.0,93,1918.0,square1,f,0.27,0,S,5.0
S5,23.0,87.0,73.0,76.0,70.0,87,2005.0,square1,f,0.087,0,S,5.0
S5,24.0,85.0,69.0,81.0,78.0,85,2090.0,square1,f,0.654,0,S,5.0
S5,25.0,89.0,77.0,77.0,76.0,89,2179.0,square1,f,0.001,0,S,5.0
S5,26.0,84.0,71.0,81.0,75.0,84,2263.0,square1,f,0.017,0,S,5.0
S5,27.0,84.0,75.0,82.0,71.0,84,2347.0,square1,f,0.071,0,S,5.0
S5,28.0,83.0,72.0,82.0,78.0,83,2430.0,square1,f,0.864,0,S,5.0
S5,29.0,91.0,67.0,79.0,74.0,91,2521.0,square1,f,0.537,0,S,5.0
S5,30.0,82.0,69.0,81.0,77.0,82,2603.0,square1,f,0.361,0,S,5.0
S5,31.0,82.0,72.0,80.0,78.0,82,2685.0,square1,f,0.638,0,S,5.0
S5,32.0,83.0,73.0,91.0,80.0,83,2768.0,square1,f,1.41,0,S,5.0
S5,33.0,83.0,68.0,85.0,78.0,83,2851.0,square1,f,0.62,0,S,5.0
S5,34.0,89.0,79.0,83.0,77.0,89,2940.0,square1,f,0.052,0,S,5.0
S5,35.0,88.0,72.0,79.0,80.0,88,3028.0,square1,f,0.805,0,S,5.0
S5,36.0,90.0,74.0,84.0,76.0,90,3118.0,square1,f,0.156,0,S,5.0
S5,37.0,85.0,75.0,80.0,82.0,85,3203.0,square1,f,0.153,0,S,5.0
S5,38.0,78.0,74.0,85.0,79.0,78,3281.0,square1,f,0.187,0,S,5.0
S5,39.0,87.0,73.0,87.0,85.0,87,3368.0,square1,f,0.213,0,S,5.0
S5,40.0,83.0,67.0,81.0,80.0,83,3451.0,square1,f,0.269,0,S,5.0
S5,41.0,82.0,69.0,88.0,80.0,82,3533.0,square1,f,0.353,0,S,5.0
S5,42.0,85.0,78.0,91.0,80.0,85,3618.0,square1,f,1.604,0,S,5.0
S5,43.0,89.0,74.0,78.0,74.0,89,3707.0,square1,f,1.437,0,S,5.0
S5,44.0,90.0,74.0,77.0,85.0,90,3797.0,square1,f,0.137,0,S,5.0
S5,45.0,89.0,68.0,81.0,78.0,89,3886.0,square1,f,0.187,0,S,5.0
S5,46.0,86.0,70.0,86.0,68.0,86,3972.0,square1,f,0.22,0,S,5.0
S5,47.0,90.0,77.0,85.0,84.0,90,4062.0,square1,f,0.121,0,S,5.0
S5,48.0,76.0,66.0,82.0,79.0,76,4138.0,square1,f,0.246,0,S,5.0
S5,49.0,84.0,73.0,82.0,75.0,84,4222.0,square1,f,0.753,0,S,5.0
V5,0.0,46.0,21.0,37.0,28.0,21,21.0,square2,r,0.946,1,V,5.0
V5,1.0,43.0,27.0,36.0,31.0,36,57.0,square3,f,0.018,2,V,5.0
V5,2.0,50.0,18.0,43.0,32.0,50,107.0,square1,i,0.038,0,V,5.0
V5,3.0,53.0,23.0,36.0,34.0,34,141.0,square4,j,0.407,3,V,5.0
V5,4.0,52.0,19.0,38.0,34.0,52,193.0,square1,i,0.019,0,V,5.0
V5,5.0,50.0,22.0,41.0,29.0,50,243.0,square1,i,0.068,0,V,5.0
V5,6.0,52.0,19.0,40.0,33.0,52,295.0,square1,i,0.106,0,V,5.0
V5,7.0,48.0,24.0,36.0,27.0,48,343.0,square1,i,0.28,0,V,5.0
V5,8.0,50.0,24.0,35.0,33.0,50,393.0,square1,i,0.102,0,V,5.0
V5,9.0,48.0,25.0,39.0,34.0,48,441.0,square1,i,0.12,0,V,5.0
V5,10.0,52.0,19.0,32.0,34.0,52,493.0,square1,i,0.288,0,V,5.0
V5,11.0,48.0,22.0,32.0,32.0,48,541.0,square1,i,0.272,0,V,5.0
V5,12.0,47.0,17.0,43.0,29.0,47,588.0,square1,i,0.053,0,V,5.0
V5,13.0,46.0,21.0,42.0,29.0,46,634.0,square1,i,0.069,0,V,5.0
V5,14.0,47.0,28.0,42.0,28.0,47,681.0,square1,i,0.237,0,V,5.0
V5,15.0,50.0,29.0,38.0,36.0,50,731.0,square1,i,0.001,0,V,5.0
V5,16.0,49.0,24.0,36.0,34.0,49,780.0,square1,i,0.137,0,V,5.0
V5,17.0,50.0,20.0,38.0,35.0,50,830.0,square1,i,0.19,0,V,5.0
V5,18.0,49.0,22.0,46.0,29.0,49,879.0,square1,i,0.104,0,V,5.0
V5,19.0,46.0,23.0,40.0,31.0,46,925.0,square1,i,0.236,0,V,5.0
V5,20.0,51.0,22.0,41.0,28.0,51,976.0,square1,i,0.187,0,V,5.0
V5,21.0,51.0,26.0,36.0,31.0,51,1027.0,square1,i,0.169,0,V,5.0
V5,22.0,47.0,18.0,41.0,28.0,47,1074.0,square1,i,0.17,0,V,5.0
V5,23.0,52.0,20.0,36.0,29.0,52,1126.0,square1,i,0.118,0,V,5.0
V5,24.0,51.0,21.0,41.0,34.0,51,1177.0,square1,i,0.325,0,V,5.0
V5,25.0,50.0,20.0,41.0,27.0,50,1227.0,square1,i,0.137,0,V,5.0
V5,26.0,49.0,29.0,37.0,28.0,49,1276.0,square1,i,0.205,0,V,5.0
V5,27.0,10.0,13.0,42.0,32.0,10,1286.0,square1,i,0.537,0,V,5.0
V5,28.0,9.0,19.0,40.0,27.0,27,1313.0,square4,j,0.27,3,V,5.0
V5,29.0,17.0,17.0,38.0,29.0,38,1351.0,square3,f,0.789,2,V,5.0
V5,30.0,8.0,18.0,36.0,29.0,18,1369.0,square2,r,0.053,1,V,5.0
V5,31.0,16.0,24.0,34.0,29.0,34,1403.0,square3,f,0.033,2,V,5.0
V5,32.0,9.0,17.0,35.0,31.0,35,1438.0,square3,f,0.371,2,V,5.0
V5,33.0,11.0,19.0,36.0,28.0,36,1474.0,square3,f,0.018,2,V,5.0
V5,34.0,10.0,19.0,38.0,28.0,38,1512.0,square3,f,0.087,2,V,5.0
V5,35.0,5.0,23.0,40.0,34.0,40,1552.0,square3,f,0.487,2,V,5.0
V5,36.0,17.0,20.0,36.0,31.0,36,1588.0,square3,f,0.12,2,V,5.0
V5,37.0,12.0,13.0,36.0,30.0,36,1624.0,square3,f,0.272,2,V,5.0
V5,38.0,14.0,24.0,35.0,27.0,35,1659.0,square3,f,0.171,2,V,5.0
V5,39.0,13.0,20.0,39.0,32.0,39,1698.0,square3,f,0.104,2,V,5.0
V5,40.0,9.0,15.0,37.0,24.0,37,1735.0,square3,f,0.036,2,V,5.0
V5,41.0,9.0,14.0,38.0,31.0,38,1773.0,square3,f,0.12,2,V,5.0
V5,42.0,14.0,17.0,43.0,31.0,43,1816.0,square3,f,0.186,2,V,5.0
V5,43.0,10.0,18.0,39.0,23.0,39,1855.0,square3,f,0.221,2,V,5.0
V5,44.0,10.0,20.0,33.0,32.0,33,1888.0,square3,f,0.204,2,V,5.0
V5,45.0,16.0,17.0,37.0,29.0,37,1925.0,square3,f,0.086,2,V,5.0
V5,46.0,9.0,22.0,37.0,25.0,37,1962.0,square3,f,0.921,2,V,5.0
V5,47.0,10.0,22.0,35.0,26.0,35,1997.0,square3,f,1.482,2,V,5.0
V5,48.0,11.0,16.0,39.0,23.0,39,2036.0,square3,f,0.204,2,V,5.0
V5,49.0,13.0,16.0,33.0,27.0,33,2069.0,square3,f,0.053,2,V,5.0
V5,50.0,12.0,16.0,39.0,24.0,39,2108.0,square3,f,0.138,2,V,5.0
V5,51.0,10.0,21.0,43.0,28.0,43,2151.0,square3,f,0.087,2,V,5.0
V5,52.0,8.0,15.0,36.0,28.0,36,2187.0,square3,f,0.904,2,V,5.0
V5,53.0,38.0,20.0,31.0,54.0,31,2218.0,square3,f,0.34,2,V,5.0
V5,54.0,39.0,20.0,35.0,51.0,35,2253.0,square3,f,1.191,2,V,5.0
V5,55.0,41.0,21.0,27.0,50.0,27,2280.0,square3,f,1.72,2,V,5.0
V5,56.0,39.0,23.0,28.0,49.0,28,2308.0,square3,f,1.304,2,V,5.0
V5,57.0,36.0,28.0,29.0,59.0,29,2337.0,square3,f,0.036,2,V,5.0
V5,58.0,38.0,22.0,28.0,49.0,28,2365.0,square3,f,0.454,2,V,5.0
V5,59.0,44.0,23.0,30.0,51.0,30,2395.0,square3,f,0.001,2,V,5.0
V5,60.0,43.0,21.0,31.0,48.0,31,2426.0,square3,f,0.188,2,V,5.0
V5,61.0,39.0,24.0,35.0,50.0,35,2461.0,square3,f,0.173,2,V,5.0
V5,62.0,38.0,25.0,31.0,52.0,31,2492.0,square3,f,0.552,2,V,5.0
V5,63.0,41.0,14.0,31.0,52.0,52,2544.0,square4,j,0.085,3,V,5.0
V5,64.0,43.0,23.0,30.0,51.0,51,2595.0,square4,j,0.237,3,V,5.0
V5,65.0,41.0,23.0,35.0,52.0,52,2647.0,square4,j,0.121,3,V,5.0
V5,66.0,41.0,17.0,33.0,47.0,47,2694.0,square4,j,0.315,3,V,5.0
V5,67.0,44.0,23.0,32.0,49.0,49,2743.0,square4,j,0.054,3,V,5.0
V5,68.0,44.0,24.0,31.0,44.0,44,2787.0,square4,j,0.07,3,V,5.0
V5,69.0,43.0,28.0,27.0,48.0,48,2835.0,square4,j,0.354,3,V,5.0
V5,70.0,38.0,22.0,26.0,50.0,50,2885.0,square4,j,0.202,3,V,5.0
V5,71.0,41.0,29.0,26.0,53.0,53,2938.0,square4,j,0.172,3,V,5.0
V5,72.0,40.0,20.0,28.0,51.0,51,2989.0,square4,j,0.406,3,V,5.0
V5,73.0,59.0,44.0,51.0,35.0,35,3024.0,square4,j,0.537,3,V,5.0
V5,74.0,60.0,38.0,55.0,43.0,43,3067.0,square4,j,0.245,3,V,5.0
V5,75.0,63.0,45.0,50.0,37.0,37,3104.0,square4,j,1.27,3,V,5.0
V5,76.0,62.0,42.0,50.0,37.0,37,3141.0,square4,j,0.068,3,V,5.0
V5,77.0,57.0,37.0,52.0,35.0,35,3176.0,square4,j,1.07,3,V,5.0
V5,78.0,66.0,45.0,54.0,37.0,37,3213.0,square4,j,0.604,3,V,5.0
V5,79.0,64.0,37.0,48.0,35.0,35,3248.0,square4,j,1.103,3,V,5.0
V5,80.0,63.0,40.0,56.0,38.0,63,3311.0,square1,i,1.054,0,V,5.0
V5,81.0,62.0,41.0,54.0,32.0,62,3373.0,square1,i,0.105,0,V,5.0
V5,82.0,58.0,41.0,59.0,39.0,58,3431.0,square1,i,0.919,0,V,5.0
V5,83.0,66.0,46.0,54.0,35.0,66,3497.0,square1,i,0.086,0,V,5.0
V5,84.0,67.0,44.0,52.0,33.0,67,3564.0,square1,i,0.254,0,V,5.0
V5,85.0,67.0,45.0,46.0,36.0,67,3631.0,square1,i,0.22,0,V,5.0
V5,86.0,65.0,44.0,51.0,38.0,65,3696.0,square1,i,1.154,0,V,5.0
V5,87.0,64.0,49.0,48.0,35.0,64,3760.0,square1,i,1.62,0,V,5.0
V5,88.0,68.0,47.0,56.0,36.0,99999,3760.0,invalid,,,-1,V,5.0
V5,89.0,60.0,42.0,57.0,32.0,60,3820.0,square1,i,0.342,0,V,5.0
V5,90.0,59.0,43.0,53.0,34.0,59,3879.0,square1,i,0.282,0,V,5.0
V5,91.0,64.0,43.0,51.0,34.0,64,3943.0,square1,i,0.196,0,V,5.0
V5,92.0,65.0,41.0,57.0,38.0,65,4008.0,square1,i,0.14,0,V,5.0
V5,93.0,59.0,48.0,54.0,40.0,59,4067.0,square1,i,0.136,0,V,5.0
V5,94.0,66.0,44.0,53.0,43.0,66,4133.0,square1,i,0.155,0,V,5.0
V5,95.0,63.0,43.0,50.0,40.0,63,4196.0,square1,i,0.155,0,V,5.0
V5,96.0,62.0,44.0,50.0,33.0,62,4258.0,square1,i,0.589,0,V,5.0
V5,97.0,64.0,49.0,55.0,37.0,64,4322.0,square1,i,0.053,0,V,5.0
V5,98.0,65.0,44.0,53.0,36.0,65,4387.0,square1,i,0.243,0,V,5.0
V5,99.0,65.0,42.0,55.0,35.0,65,4452.0,square1,i,0.569,0,V,5.0
V2,0.0,33.0,24.0,43.0,18.0,43,43.0,square3,r,0.772,2,V,2.0
V2,1.0,33.0,29.0,42.0,21.0,21,64.0,square4,f,0.086,3,V,2.0
V2,2.0,37.0,26.0,45.0,22.0,26,90.0,square2,i,0.07,1,V,2.0
V2,3.0,39.0,26.0,41.0,20.0,39,129.0,square1,j,0.053,0,V,2.0
V2,4.0,29.0,32.0,45.0,19.0,45,174.0,square3,r,0.07,2,V,2.0
V2,5.0,33.0,28.0,44.0,17.0,44,218.0,square3,r,0.053,2,V,2.0
V2,6.0,32.0,24.0,49.0,20.0,49,267.0,square3,r,0.587,2,V,2.0
V2,7.0,32.0,21.0,42.0,13.0,42,309.0,square3,r,0.237,2,V,2.0
V2,8.0,35.0,23.0,45.0,19.0,45,354.0,square3,r,0.12,2,V,2.0
V2,9.0,33.0,28.0,46.0,17.0,46,400.0,square3,r,0.105,2,V,2.0
V2,10.0,39.0,27.0,45.0,21.0,45,445.0,square3,r,0.187,2,V,2.0
V2,11.0,30.0,23.0,44.0,22.0,44,489.0,square3,r,0.138,2,V,2.0
V2,12.0,31.0,26.0,43.0,16.0,43,532.0,square3,r,0.504,2,V,2.0
V2,13.0,35.0,26.0,43.0,22.0,43,575.0,square3,r,1.137,2,V,2.0
V2,14.0,35.0,29.0,46.0,19.0,46,621.0,square3,r,0.138,2,V,2.0
V2,15.0,36.0,22.0,44.0,20.0,44,665.0,square3,r,0.337,2,V,2.0
V2,16.0,33.0,27.0,45.0,19.0,27,692.0,square2,i,0.406,1,V,2.0
V2,17.0,35.0,25.0,41.0,15.0,41,733.0,square3,r,0.12,2,V,2.0
V2,18.0,37.0,27.0,51.0,21.0,51,784.0,square3,r,0.704,2,V,2.0
V2,19.0,33.0,25.0,43.0,18.0,43,827.0,square3,r,0.086,2,V,2.0
V2,20.0,39.0,25.0,43.0,20.0,43,870.0,square3,r,1.753,2,V,2.0
V2,21.0,27.0,32.0,43.0,24.0,43,913.0,square3,r,0.053,2,V,2.0
V2,22.0,35.0,27.0,50.0,13.0,50,963.0,square3,r,0.553,2,V,2.0
V2,23.0,36.0,25.0,39.0,17.0,39,1002.0,square3,r,0.018,2,V,2.0
V2,24.0,32.0,45.0,39.0,59.0,39,1041.0,square3,r,0.807,2,V,2.0
V2,25.0,26.0,43.0,37.0,55.0,99999,1041.0,invalid,,,-1,V,2.0
V2,26.0,23.0,45.0,39.0,58.0,39,1080.0,square3,r,0.365,2,V,2.0
V2,27.0,30.0,44.0,40.0,56.0,40,1120.0,square3,r,1.606,2,V,2.0
V2,28.0,34.0,48.0,41.0,54.0,41,1161.0,square3,r,0.456,2,V,2.0
V2,29.0,29.0,42.0,35.0,54.0,35,1196.0,square3,r,0.605,2,V,2.0
V2,30.0,22.0,39.0,39.0,55.0,39,1235.0,square3,r,0.153,2,V,2.0
V2,31.0,32.0,48.0,35.0,50.0,35,1270.0,square3,r,0.504,2,V,2.0
V2,32.0,27.0,47.0,40.0,58.0,40,1310.0,square3,r,0.07,2,V,2.0
V2,33.0,28.0,46.0,31.0,54.0,31,1341.0,square3,r,0.224,2,V,2.0
V2,34.0,28.0,44.0,41.0,49.0,41,1382.0,square3,r,0.607,2,V,2.0
V2,35.0,31.0,44.0,33.0,59.0,33,1415.0,square3,r,0.447,2,V,2.0
V2,36.0,29.0,48.0,30.0,55.0,30,1445.0,square3,r,0.486,2,V,2.0
V2,37.0,25.0,45.0,32.0,51.0,45,1490.0,square2,i,0.158,1,V,2.0
V2,38.0,29.0,48.0,33.0,54.0,29,1519.0,square1,j,0.122,0,V,2.0
V2,39.0,29.0,44.0,33.0,54.0,54,1573.0,square4,f,1.47,3,V,2.0
V2,40.0,33.0,42.0,37.0,61.0,42,1615.0,square2,i,0.674,1,V,2.0
V2,41.0,28.0,45.0,41.0,57.0,57,1672.0,square4,f,0.072,3,V,2.0
V2,42.0,33.0,46.0,36.0,54.0,36,1708.0,square3,r,0.052,2,V,2.0
V2,43.0,31.0,42.0,40.0,57.0,57,1765.0,square4,f,0.038,3,V,2.0
V2,44.0,27.0,45.0,38.0,56.0,56,1821.0,square4,f,0.019,3,V,2.0
V2,45.0,27.0,44.0,32.0,51.0,51,1872.0,square4,f,0.002,3,V,2.0
V2,46.0,28.0,44.0,39.0,57.0,57,1929.0,square4,f,0.465,3,V,2.0
V2,47.0,30.0,45.0,36.0,56.0,56,1985.0,square4,f,0.054,3,V,2.0
V2,48.0,31.0,47.0,41.0,59.0,59,2044.0,square4,f,0.92,3,V,2.0
V2,49.0,32.0,45.0,33.0,57.0,57,2101.0,square4,f,0.104,3,V,2.0
V2,50.0,24.0,38.0,36.0,52.0,52,2153.0,square4,f,0.214,3,V,2.0
V2,51.0,29.0,48.0,34.0,54.0,54,2207.0,square4,f,0.721,3,V,2.0
V2,52.0,30.0,50.0,38.0,56.0,56,2263.0,square4,f,1.623,3,V,2.0
V2,53.0,27.0,47.0,33.0,55.0,55,2318.0,square4,f,0.104,3,V,2.0
V2,54.0,34.0,21.0,45.0,25.0,25,2343.0,square4,f,0.871,3,V,2.0
V2,55.0,36.0,19.0,39.0,24.0,24,2367.0,square4,f,1.17,3,V,2.0
V2,56.0,29.0,19.0,45.0,18.0,18,2385.0,square4,f,0.772,3,V,2.0
V2,57.0,29.0,20.0,39.0,20.0,39,2424.0,square3,r,0.255,2,V,2.0
V2,58.0,40.0,18.0,42.0,21.0,18,2442.0,square2,i,0.122,1,V,2.0
V2,59.0,31.0,17.0,44.0,23.0,31,2473.0,square1,j,0.089,0,V,2.0
V2,60.0,31.0,19.0,42.0,20.0,42,2515.0,square3,r,0.165,2,V,2.0
V2,61.0,34.0,16.0,41.0,25.0,41,2556.0,square3,r,0.019,2,V,2.0
V2,62.0,28.0,12.0,41.0,22.0,41,2597.0,square3,r,0.035,2,V,2.0
V2,63.0,32.0,14.0,45.0,26.0,45,2642.0,square3,r,0.003,2,V,2.0
V2,64.0,36.0,21.0,41.0,25.0,41,2683.0,square3,r,0.386,2,V,2.0
V2,65.0,32.0,13.0,39.0,24.0,39,2722.0,square3,r,0.42,2,V,2.0
V2,66.0,35.0,15.0,42.0,20.0,42,2764.0,square3,r,0.421,2,V,2.0
V2,67.0,30.0,23.0,47.0,27.0,47,2811.0,square3,r,0.104,2,V,2.0
V2,68.0,31.0,17.0,43.0,24.0,43,2854.0,square3,r,0.152,2,V,2.0
V2,69.0,33.0,20.0,41.0,20.0,41,2895.0,square3,r,0.403,2,V,2.0
V2,70.0,37.0,17.0,43.0,21.0,43,2938.0,square3,r,0.248,2,V,2.0
V2,71.0,45.0,31.0,36.0,58.0,36,2974.0,square3,r,0.173,2,V,2.0
V2,72.0,47.0,31.0,31.0,54.0,31,3005.0,square3,r,0.019,2,V,2.0
V2,73.0,50.0,30.0,33.0,55.0,33,3038.0,square3,r,0.106,2,V,2.0
V2,74.0,45.0,31.0,36.0,51.0,36,3074.0,square3,r,0.621,2,V,2.0
V2,75.0,47.0,28.0,38.0,54.0,38,3112.0,square3,r,0.137,2,V,2.0
V2,76.0,52.0,33.0,35.0,60.0,35,3147.0,square3,r,0.001,2,V,2.0
V2,77.0,41.0,29.0,37.0,53.0,37,3184.0,square3,r,0.581,2,V,2.0
V2,78.0,51.0,24.0,34.0,56.0,34,3218.0,square3,r,0.138,2,V,2.0
V2,79.0,41.0,34.0,36.0,52.0,36,3254.0,square3,r,0.269,2,V,2.0
V2,80.0,48.0,31.0,37.0,51.0,37,3291.0,square3,r,0.137,2,V,2.0
V2,81.0,43.0,32.0,40.0,53.0,40,3331.0,square3,r,0.837,2,V,2.0
V2,82.0,48.0,25.0,37.0,58.0,37,3368.0,square3,r,0.207,2,V,2.0
V2,83.0,45.0,32.0,36.0,61.0,36,3404.0,square3,r,0.14,2,V,2.0
V2,84.0,47.0,29.0,39.0,60.0,39,3443.0,square3,r,0.035,2,V,2.0
V2,85.0,49.0,30.0,39.0,54.0,30,3473.0,square2,i,0.105,1,V,2.0
V2,86.0,46.0,28.0,33.0,51.0,46,3519.0,square1,j,0.237,0,V,2.0
V2,87.0,45.0,24.0,37.0,55.0,55,3574.0,square4,f,0.854,3,V,2.0
V2,88.0,48.0,29.0,42.0,54.0,54,3628.0,square4,f,0.055,3,V,2.0
V2,89.0,43.0,31.0,38.0,52.0,52,3680.0,square4,f,0.019,3,V,2.0
V2,90.0,51.0,33.0,36.0,56.0,56,3736.0,square4,f,0.002,3,V,2.0
V2,91.0,49.0,32.0,37.0,59.0,59,3795.0,square4,f,0.134,3,V,2.0
V2,92.0,47.0,29.0,37.0,56.0,56,3851.0,square4,f,0.137,3,V,2.0
V2,93.0,45.0,27.0,35.0,56.0,56,3907.0,square4,f,0.157,3,V,2.0
V2,94.0,45.0,31.0,31.0,49.0,49,3956.0,square4,f,0.14,3,V,2.0
V2,95.0,47.0,33.0,36.0,52.0,47,4003.0,square1,j,0.197,0,V,2.0
V2,96.0,44.0,28.0,37.0,59.0,59,4062.0,square4,f,0.182,3,V,2.0
V2,97.0,48.0,28.0,33.0,55.0,55,4117.0,square4,f,0.034,3,V,2.0
V2,98.0,49.0,29.0,39.0,60.0,60,4177.0,square4,f,0.033,3,V,2.0
V2,99.0,44.0,30.0,36.0,50.0,50,4227.0,square4,f,0.231,3,V,2.0
V9,0.0,20.0,29.0,37.0,45.0,20,20.0,square1,i,0.624,0,V,9.0
V9,1.0,21.0,32.0,39.0,45.0,39,59.0,square3,j,0.287,2,V,9.0
V9,2.0,16.0,27.0,41.0,48.0,27,86.0,square2,f,0.019,1,V,9.0
V9,3.0,20.0,30.0,42.0,50.0,50,136.0,square4,r,0.437,3,V,9.0
V9,4.0,22.0,34.0,37.0,47.0,47,183.0,square4,r,0.24,3,V,9.0
V9,5.0,17.0,32.0,38.0,49.0,49,232.0,square4,r,0.22,3,V,9.0
V9,6.0,17.0,25.0,39.0,47.0,47,279.0,square4,r,0.219,3,V,9.0
V9,7.0,22.0,28.0,33.0,48.0,48,327.0,square4,r,0.432,3,V,9.0
V9,8.0,20.0,24.0,34.0,41.0,41,368.0,square4,r,0.036,3,V,9.0
V9,9.0,20.0,33.0,30.0,51.0,51,419.0,square4,r,0.052,3,V,9.0
V9,10.0,21.0,35.0,38.0,50.0,50,469.0,square4,r,0.564,3,V,9.0
V9,11.0,19.0,29.0,44.0,45.0,45,514.0,square4,r,0.053,3,V,9.0
V9,12.0,27.0,24.0,38.0,54.0,54,568.0,square4,r,0.503,3,V,9.0
V9,13.0,15.0,26.0,37.0,50.0,50,618.0,square4,r,1.123,3,V,9.0
V9,14.0,24.0,26.0,39.0,42.0,42,660.0,square4,r,0.053,3,V,9.0
V9,15.0,26.0,27.0,43.0,49.0,49,709.0,square4,r,0.887,3,V,9.0
V9,16.0,19.0,30.0,42.0,49.0,49,758.0,square4,r,0.036,3,V,9.0
V9,17.0,21.0,30.0,34.0,49.0,49,807.0,square4,r,0.804,3,V,9.0
V9,18.0,25.0,33.0,41.0,51.0,51,858.0,square4,r,0.825,3,V,9.0
V9,19.0,17.0,31.0,41.0,45.0,45,903.0,square4,r,0.838,3,V,9.0
V9,20.0,19.0,31.0,34.0,49.0,49,952.0,square4,r,0.687,3,V,9.0
V9,21.0,23.0,29.0,37.0,48.0,48,1000.0,square4,r,0.856,3,V,9.0
V9,22.0,15.0,32.0,36.0,48.0,48,1048.0,square4,r,0.602,3,V,9.0
V9,23.0,25.0,33.0,39.0,47.0,47,1095.0,square4,r,0.803,3,V,9.0
V9,24.0,21.0,30.0,38.0,52.0,52,1147.0,square4,r,0.571,3,V,9.0
V9,25.0,25.0,29.0,42.0,48.0,48,1195.0,square4,r,0.654,3,V,9.0
V9,26.0,22.0,29.0,39.0,47.0,47,1242.0,square4,r,0.753,3,V,9.0
V9,27.0,17.0,31.0,45.0,41.0,41,1283.0,square4,r,0.002,3,V,9.0
V9,28.0,29.0,28.0,43.0,43.0,28,1311.0,square2,f,0.017,1,V,9.0
V9,29.0,20.0,31.0,43.0,49.0,20,1331.0,square1,i,0.67,0,V,9.0
V9,30.0,23.0,33.0,39.0,48.0,39,1370.0,square3,j,0.157,2,V,9.0
V9,31.0,20.0,27.0,38.0,53.0,53,1423.0,square4,r,0.135,3,V,9.0
V9,32.0,23.0,29.0,37.0,49.0,49,1472.0,square4,r,1.172,3,V,9.0
V9,33.0,24.0,33.0,37.0,49.0,49,1521.0,square4,r,0.069,3,V,9.0
V9,34.0,43.0,58.0,48.0,30.0,30,1551.0,square4,r,0.035,3,V,9.0
V9,35.0,48.0,59.0,45.0,34.0,34,1585.0,square4,r,0.052,3,V,9.0
V9,36.0,39.0,56.0,54.0,32.0,32,1617.0,square4,r,1.065,3,V,9.0
V9,37.0,40.0,57.0,50.0,35.0,35,1652.0,square4,r,0.188,3,V,9.0
V9,38.0,49.0,62.0,51.0,33.0,33,1685.0,square4,r,0.019,3,V,9.0
V9,39.0,45.0,61.0,48.0,34.0,34,1719.0,square4,r,0.12,3,V,9.0
V9,40.0,40.0,65.0,51.0,29.0,29,1748.0,square4,r,0.052,3,V,9.0
V9,41.0,44.0,57.0,50.0,38.0,38,1786.0,square4,r,1.136,3,V,9.0
V9,42.0,40.0,57.0,49.0,33.0,33,1819.0,square4,r,0.136,3,V,9.0
V9,43.0,42.0,64.0,54.0,35.0,64,1883.0,square2,f,0.203,1,V,9.0
V9,44.0,44.0,55.0,49.0,39.0,44,1927.0,square1,i,0.57,0,V,9.0
V9,45.0,37.0,66.0,51.0,35.0,51,1978.0,square3,j,0.337,2,V,9.0
V9,46.0,40.0,59.0,51.0,32.0,59,2037.0,square2,f,0.036,1,V,9.0
V9,47.0,38.0,62.0,57.0,31.0,62,2099.0,square2,f,0.018,1,V,9.0
V9,48.0,43.0,61.0,54.0,34.0,61,2160.0,square2,f,0.154,1,V,9.0
V9,49.0,43.0,61.0,49.0,40.0,61,2221.0,square2,f,0.22,1,V,9.0
V9,50.0,37.0,58.0,51.0,32.0,58,2279.0,square2,f,0.018,1,V,9.0
V9,51.0,44.0,63.0,48.0,39.0,63,2342.0,square2,f,0.169,1,V,9.0
V9,52.0,35.0,65.0,48.0,30.0,65,2407.0,square2,f,0.837,1,V,9.0
V9,53.0,43.0,59.0,48.0,39.0,59,2466.0,square2,f,0.323,1,V,9.0
V9,54.0,43.0,59.0,52.0,30.0,59,2525.0,square2,f,0.554,1,V,9.0
V9,55.0,41.0,58.0,51.0,34.0,58,2583.0,square2,f,1.13,1,V,9.0
V9,56.0,44.0,63.0,50.0,33.0,63,2646.0,square2,f,0.019,1,V,9.0
V9,57.0,42.0,60.0,49.0,32.0,60,2706.0,square2,f,0.805,1,V,9.0
V9,58.0,44.0,62.0,57.0,30.0,62,2768.0,square2,f,0.068,1,V,9.0
V9,59.0,45.0,61.0,45.0,31.0,61,2829.0,square2,f,0.17,1,V,9.0
V9,60.0,43.0,63.0,53.0,33.0,63,2892.0,square2,f,0.07,1,V,9.0
V9,61.0,39.0,56.0,55.0,31.0,56,2948.0,square2,f,1.088,1,V,9.0
V9,62.0,39.0,61.0,50.0,34.0,61,3009.0,square2,f,0.735,1,V,9.0
V9,63.0,44.0,57.0,48.0,36.0,57,3066.0,square2,f,0.454,1,V,9.0
V9,64.0,40.0,60.0,58.0,35.0,60,3126.0,square2,f,0.169,1,V,9.0
V9,65.0,42.0,60.0,54.0,38.0,60,3186.0,square2,f,0.47,1,V,9.0
V9,66.0,41.0,60.0,54.0,37.0,60,3246.0,square2,f,0.553,1,V,9.0
V9,67.0,43.0,61.0,54.0,40.0,61,3307.0,square2,f,0.138,1,V,9.0
V9,68.0,45.0,40.0,26.0,18.0,40,3347.0,square2,f,0.154,1,V,9.0
V9,69.0,50.0,41.0,29.0,20.0,50,3397.0,square1,i,0.154,0,V,9.0
V9,70.0,43.0,36.0,27.0,15.0,27,3424.0,square3,j,0.017,2,V,9.0
V9,71.0,44.0,40.0,28.0,18.0,18,3442.0,square4,r,0.153,3,V,9.0
V9,72.0,42.0,38.0,27.0,18.0,42,3484.0,square1,i,0.525,0,V,9.0
V9,73.0,46.0,33.0,25.0,19.0,46,3530.0,square1,i,0.084,0,V,9.0
V9,74.0,47.0,40.0,28.0,20.0,47,3577.0,square1,i,0.019,0,V,9.0
V9,75.0,39.0,39.0,27.0,25.0,39,3616.0,square1,i,0.188,0,V,9.0
V9,76.0,50.0,31.0,29.0,23.0,50,3666.0,square1,i,0.236,0,V,9.0
V9,77.0,44.0,37.0,28.0,13.0,44,3710.0,square1,i,0.24,0,V,9.0
V9,78.0,43.0,36.0,23.0,17.0,43,3753.0,square1,i,0.12,0,V,9.0
V9,79.0,42.0,36.0,28.0,24.0,42,3795.0,square1,i,0.237,0,V,9.0
V9,80.0,47.0,35.0,30.0,14.0,47,3842.0,square1,i,0.237,0,V,9.0
V9,81.0,46.0,33.0,29.0,18.0,46,3888.0,square1,i,0.571,0,V,9.0
V9,82.0,46.0,35.0,28.0,18.0,46,3934.0,square1,i,1.23,0,V,9.0
V9,83.0,47.0,41.0,32.0,15.0,47,3981.0,square1,i,1.031,0,V,9.0
V9,84.0,45.0,38.0,31.0,18.0,45,4026.0,square1,i,0.053,0,V,9.0
V9,85.0,42.0,35.0,30.0,21.0,42,4068.0,square1,i,0.22,0,V,9.0
V9,86.0,49.0,39.0,23.0,18.0,49,4117.0,square1,i,1.242,0,V,9.0
V9,87.0,49.0,39.0,27.0,16.0,49,4166.0,square1,i,1.155,0,V,9.0
V9,88.0,45.0,38.0,25.0,14.0,45,4211.0,square1,i,0.138,0,V,9.0
V9,89.0,45.0,32.0,28.0,19.0,45,4256.0,square1,i,0.22,0,V,9.0
V9,90.0,44.0,35.0,29.0,20.0,44,4300.0,square1,i,0.288,0,V,9.0
V9,91.0,42.0,38.0,32.0,16.0,42,4342.0,square1,i,0.236,0,V,9.0
V9,92.0,45.0,36.0,23.0,20.0,45,4387.0,square1,i,0.07,0,V,9.0
V9,93.0,45.0,35.0,26.0,18.0,45,4432.0,square1,i,0.454,0,V,9.0
V9,94.0,44.0,37.0,27.0,13.0,44,4476.0,square1,i,0.947,0,V,9.0
V9,95.0,46.0,36.0,25.0,20.0,46,4522.0,square1,i,1.373,0,V,9.0
V9,96.0,43.0,39.0,27.0,16.0,43,4565.0,square1,i,0.121,0,V,9.0
V9,97.0,48.0,39.0,30.0,16.0,48,4613.0,square1,i,1.253,0,V,9.0
V9,98.0,49.0,40.0,26.0,20.0,49,4662.0,square1,i,0.354,0,V,9.0
V9,99.0,49.0,41.0,27.0,18.0,49,4711.0,square1,i,0.287,0,V,9.0
