block,Trial,square1,square2,square3,square4,currPoints,totalPoints,square,choiceKey.keys,choiceKey.rt,armNum,blockType,blockNum
prac,0.0,100.0,0.0,0.0,0.0,99999,0.0,invalid,,,-1,p,0.0
prac,1.0,100.0,0.0,0.0,0.0,0,0.0,square4,,,3,p,0.0
prac,2.0,100.0,0.0,0.0,0.0,100,100.0,square1,,,0,p,0.0
prac,3.0,100.0,0.0,0.0,0.0,0,100.0,square2,,,1,p,0.0
prac,4.0,100.0,0.0,0.0,0.0,0,100.0,square3,,,2,p,0.0
prac,5.0,100.0,0.0,0.0,0.0,100,200.0,square1,,,0,p,0.0
prac,6.0,100.0,0.0,0.0,0.0,99999,200.0,invalid,,,-1,p,0.0
prac,7.0,100.0,0.0,0.0,0.0,99999,200.0,invalid,,,-1,p,0.0
prac,8.0,100.0,0.0,0.0,0.0,0,200.0,square2,,,1,p,0.0
prac,9.0,100.0,0.0,0.0,0.0,100,300.0,square1,,,0,p,0.0
V1,0.0,46.0,61.0,52.0,71.0,99999,0.0,invalid,,,-1,V,1.0
V1,1.0,45.0,63.0,54.0,78.0,45,45.0,square1,r,0.052,0,V,1.0
V1,2.0,51.0,58.0,59.0,77.0,58,103.0,square2,j,0.084,1,V,1.0
V1,3.0,53.0,65.0,56.0,75.0,75,178.0,square4,i,0.428,3,V,1.0
V1,4.0,49.0,68.0,53.0,72.0,53,231.0,square3,f,0.368,2,V,1.0
V1,5.0,47.0,70.0,59.0,76.0,76,307.0,square4,i,0.094,3,V,1.0
V1,6.0,55.0,63.0,54.0,76.0,55,362.0,square1,r,1.676,0,V,1.0
V1,7.0,47.0,67.0,55.0,74.0,67,429.0,square2,j,0.508,1,V,1.0
V1,8.0,47.0,65.0,46.0,76.0,46,475.0,square3,f,0.325,2,V,1.0
V1,9.0,46.0,68.0,59.0,78.0,78,553.0,square4,i,0.395,3,V,1.0
V1,10.0,58.0,67.0,58.0,79.0,79,632.0,square4,i,0.027,3,V,1.0
V1,11.0,44.0,61.0,54.0,72.0,72,704.0,square4,i,0.092,3,V,1.0
V1,12.0,44.0,65.0,56.0,75.0,44,748.0,square1,r,0.131,0,V,1.0
V1,13.0,47.0,63.0,53.0,73.0,53,801.0,square3,f,0.53,2,V,1.0
V1,14.0,49.0,66.0,56.0,75.0,66,867.0,square2,j,0.397,1,V,1.0
V1,15.0,49.0,66.0,52.0,79.0,79,946.0,square4,i,0.61,3,V,1.0
V1,16.0,51.0,61.0,48.0,72.0,72,1018.0,square4,i,0.577,3,V,1.0
V1,17.0,46.0,61.0,59.0,71.0,61,1079.0,square2,j,0.913,1,V,1.0
V1,18.0,45.0,61.0,53.0,72.0,53,1132.0,square3,f,0.575,2,V,1.0
V1,19.0,49.0,63.0,54.0,76.0,49,1181.0,square1,r,0.132,0,V,1.0
V1,20.0,46.0,66.0,52.0,72.0,72,1253.0,square4,i,0.426,3,V,1.0
V1,21.0,50.0,65.0,51.0,73.0,73,1326.0,square4,i,0.152,3,V,1.0
V1,22.0,56.0,62.0,56.0,77.0,62,1388.0,square2,j,0.585,1,V,1.0
V1,23.0,45.0,67.0,54.0,83.0,54,1442.0,square3,f,0.414,2,V,1.0
V1,24.0,46.0,69.0,57.0,71.0,46,1488.0,square1,r,0.176,0,V,1.0
V1,25.0,41.0,65.0,55.0,76.0,76,1564.0,square4,i,0.23,3,V,1.0
V1,26.0,51.0,60.0,55.0,74.0,74,1638.0,square4,i,0.761,3,V,1.0
V1,27.0,52.0,63.0,56.0,73.0,73,1711.0,square4,i,0.06,3,V,1.0
V1,28.0,50.0,68.0,50.0,76.0,76,1787.0,square4,i,0.018,3,V,1.0
V1,29.0,51.0,60.0,54.0,74.0,74,1861.0,square4,i,0.642,3,V,1.0
V1,30.0,35.0,67.0,57.0,40.0,67,1928.0,square2,j,0.425,1,V,1.0
V1,31.0,38.0,60.0,52.0,35.0,52,1980.0,square3,f,0.47,2,V,1.0
V1,32.0,37.0,67.0,52.0,41.0,37,2017.0,square1,r,0.445,0,V,1.0
V1,33.0,37.0,62.0,53.0,42.0,42,2059.0,square4,i,1.148,3,V,1.0
V1,34.0,35.0,58.0,54.0,43.0,58,2117.0,square2,j,0.668,1,V,1.0
V1,35.0,40.0,60.0,50.0,44.0,50,2167.0,square3,f,0.379,2,V,1.0
V1,36.0,39.0,66.0,50.0,39.0,39,2206.0,square1,r,0.284,0,V,1.0
V1,37.0,32.0,59.0,54.0,38.0,59,2265.0,square2,j,0.038,1,V,1.0
V1,38.0,32.0,64.0,50.0,39.0,64,2329.0,square2,j,0.048,1,V,1.0
V1,39.0,37.0,60.0,45.0,40.0,60,2389.0,square2,j,0.132,1,V,1.0
V1,40.0,35.0,61.0,54.0,43.0,61,2450.0,square2,j,0.067,1,V,1.0
V1,41.0,33.0,62.0,49.0,42.0,42,2492.0,square4,i,0.201,3,V,1.0
V1,42.0,31.0,70.0,52.0,42.0,31,2523.0,square1,r,0.481,0,V,1.0
V1,43.0,37.0,59.0,48.0,41.0,48,2571.0,square3,f,0.066,2,V,1.0
V1,44.0,39.0,63.0,53.0,44.0,44,2615.0,square4,i,0.562,3,V,1.0
V1,45.0,37.0,62.0,48.0,41.0,62,2677.0,square2,j,0.0,1,V,1.0
V1,46.0,34.0,65.0,52.0,39.0,65,2742.0,square2,j,0.001,1,V,1.0
V1,47.0,42.0,59.0,52.0,43.0,59,2801.0,square2,j,0.167,1,V,1.0
V1,48.0,39.0,62.0,50.0,38.0,62,2863.0,square2,j,0.014,1,V,1.0
V1,49.0,33.0,63.0,49.0,40.0,63,2926.0,square2,j,0.294,1,V,1.0
V1,50.0,38.0,66.0,54.0,37.0,66,2992.0,square2,j,0.059,1,V,1.0
V1,51.0,33.0,66.0,50.0,37.0,66,3058.0,square2,j,0.25,1,V,1.0
V1,52.0,41.0,65.0,55.0,44.0,65,3123.0,square2,j,0.179,1,V,1.0
V1,53.0,75.0,50.0,46.0,60.0,50,3173.0,square2,j,0.194,1,V,1.0
V1,54.0,74.0,53.0,45.0,61.0,53,3226.0,square2,j,0.235,1,V,1.0
V1,55.0,74.0,54.0,43.0,65.0,54,3280.0,square2,j,0.076,1,V,1.0
V1,56.0,73.0,54.0,44.0,56.0,54,3334.0,square2,j,0.01,1,V,1.0
V1,57.0,67.0,58.0,52.0,63.0,63,3397.0,square4,i,0.425,3,V,1.0
V1,58.0,72.0,51.0,43.0,62.0,72,3469.0,square1,r,0.477,0,V,1.0
V1,59.0,68.0,47.0,49.0,56.0,49,3518.0,square3,f,0.382,2,V,1.0
V1,60.0,72.0,55.0,46.0,65.0,72,3590.0,square1,r,0.292,0,V,1.0
V1,61.0,76.0,50.0,46.0,62.0,76,3666.0,square1,r,0.278,0,V,1.0
V1,62.0,77.0,58.0,46.0,66.0,66,3732.0,square4,i,0.59,3,V,1.0
V1,63.0,72.0,53.0,48.0,66.0,48,3780.0,square3,f,0.392,2,V,1.0
V1,64.0,70.0,49.0,49.0,60.0,70,3850.0,square1,r,0.162,0,V,1.0
V1,65.0,68.0,49.0,46.0,66.0,68,3918.0,square1,r,0.331,0,V,1.0
V1,66.0,77.0,52.0,41.0,64.0,64,3982.0,square4,i,0.395,3,V,1.0
V1,67.0,74.0,56.0,42.0,69.0,56,4038.0,square2,j,0.335,1,V,1.0
V1,68.0,77.0,50.0,46.0,68.0,77,4115.0,square1,r,0.192,0,V,1.0
V1,69.0,76.0,48.0,45.0,63.0,76,4191.0,square1,r,0.062,0,V,1.0
V1,70.0,71.0,53.0,50.0,65.0,71,4262.0,square1,r,0.01,0,V,1.0
V1,71.0,70.0,56.0,44.0,59.0,70,4332.0,square1,r,0.061,0,V,1.0
V1,72.0,74.0,54.0,55.0,61.0,74,4406.0,square1,r,0.261,0,V,1.0
V1,73.0,73.0,53.0,47.0,61.0,99999,4406.0,invalid,,,-1,V,1.0
V1,74.0,71.0,53.0,51.0,65.0,51,4457.0,square3,f,0.42,2,V,1.0
V1,75.0,72.0,51.0,48.0,64.0,51,4508.0,square2,j,0.928,1,V,1.0
V1,76.0,72.0,53.0,49.0,62.0,62,4570.0,square4,i,0.515,3,V,1.0
V1,77.0,62.0,76.0,64.0,86.0,62,4632.0,square1,r,0.111,0,V,1.0
V1,78.0,61.0,74.0,63.0,87.0,74,4706.0,square2,j,0.375,1,V,1.0
V1,79.0,56.0,78.0,67.0,89.0,78,4784.0,square2,j,0.357,1,V,1.0
V1,80.0,59.0,75.0,63.0,84.0,75,4859.0,square2,j,0.475,1,V,1.0
V1,81.0,63.0,74.0,68.0,82.0,74,4933.0,square2,j,0.51,1,V,1.0
V1,82.0,59.0,75.0,67.0,80.0,75,5008.0,square2,j,0.0,1,V,1.0
V1,83.0,58.0,77.0,63.0,82.0,77,5085.0,square2,j,0.46,1,V,1.0
V1,84.0,57.0,76.0,64.0,87.0,64,5149.0,square3,f,0.392,2,V,1.0
V1,85.0,61.0,73.0,66.0,83.0,61,5210.0,square1,r,0.396,0,V,1.0
V1,86.0,60.0,71.0,66.0,85.0,85,5295.0,square4,i,0.392,3,V,1.0
V1,87.0,61.0,80.0,73.0,84.0,84,5379.0,square4,i,0.199,3,V,1.0
V1,88.0,67.0,77.0,67.0,85.0,85,5464.0,square4,i,0.027,3,V,1.0
V1,89.0,60.0,79.0,63.0,86.0,99999,5464.0,invalid,,,-1,V,1.0
V1,90.0,60.0,74.0,66.0,88.0,88,5552.0,square4,i,0.529,3,V,1.0
V1,91.0,57.0,81.0,61.0,79.0,79,5631.0,square4,i,0.262,3,V,1.0
V1,92.0,61.0,78.0,61.0,84.0,84,5715.0,square4,i,0.202,3,V,1.0
V1,93.0,64.0,72.0,69.0,83.0,83,5798.0,square4,i,0.098,3,V,1.0
V1,94.0,64.0,73.0,68.0,83.0,83,5881.0,square4,i,0.126,3,V,1.0
V1,95.0,61.0,69.0,68.0,87.0,87,5968.0,square4,i,0.165,3,V,1.0
V1,96.0,55.0,77.0,65.0,88.0,88,6056.0,square4,i,0.159,3,V,1.0
V1,97.0,61.0,75.0,63.0,82.0,82,6138.0,square4,i,0.11,3,V,1.0
V1,98.0,59.0,71.0,66.0,82.0,82,6220.0,square4,i,0.184,3,V,1.0
V1,99.0,61.0,69.0,67.0,84.0,84,6304.0,square4,i,0.141,3,V,1.0
V3,0.0,62.0,45.0,70.0,53.0,99999,0.0,invalid,,,-1,V,3.0
V3,1.0,63.0,47.0,76.0,60.0,47,47.0,square2,f,0.428,1,V,3.0
V3,2.0,65.0,54.0,73.0,57.0,73,120.0,square3,r,0.32,2,V,3.0
V3,3.0,68.0,51.0,71.0,51.0,68,188.0,square1,i,0.002,0,V,3.0
V3,4.0,61.0,49.0,75.0,53.0,53,241.0,square4,j,0.411,3,V,3.0
V3,5.0,65.0,47.0,74.0,50.0,74,315.0,square3,r,0.085,2,V,3.0
V3,6.0,61.0,51.0,72.0,57.0,72,387.0,square3,r,0.229,2,V,3.0
V3,7.0,67.0,49.0,75.0,55.0,75,462.0,square3,r,0.199,2,V,3.0
V3,8.0,64.0,48.0,76.0,56.0,76,538.0,square3,r,0.384,2,V,3.0
V3,9.0,67.0,49.0,71.0,56.0,71,609.0,square3,r,0.403,2,V,3.0
V3,10.0,65.0,50.0,71.0,56.0,71,680.0,square3,r,0.345,2,V,3.0
V3,11.0,63.0,43.0,78.0,58.0,78,758.0,square3,r,0.242,2,V,3.0
V3,12.0,66.0,53.0,73.0,54.0,73,831.0,square3,r,0.246,2,V,3.0
V3,13.0,64.0,46.0,78.0,51.0,78,909.0,square3,r,0.366,2,V,3.0
V3,14.0,67.0,51.0,71.0,58.0,71,980.0,square3,r,0.312,2,V,3.0
V3,15.0,61.0,50.0,73.0,54.0,73,1053.0,square3,r,0.287,2,V,3.0
V3,16.0,64.0,52.0,74.0,54.0,74,1127.0,square3,r,0.294,2,V,3.0
V3,17.0,61.0,48.0,74.0,55.0,74,1201.0,square3,r,0.258,2,V,3.0
V3,18.0,65.0,50.0,70.0,59.0,70,1271.0,square3,r,0.148,2,V,3.0
V3,19.0,64.0,52.0,76.0,56.0,76,1347.0,square3,r,0.087,2,V,3.0
V3,20.0,64.0,50.0,69.0,58.0,69,1416.0,square3,r,0.045,2,V,3.0
V3,21.0,66.0,50.0,72.0,56.0,72,1488.0,square3,r,0.145,2,V,3.0
V3,22.0,43.0,48.0,40.0,62.0,40,1528.0,square3,r,0.261,2,V,3.0
V3,23.0,41.0,51.0,35.0,59.0,41,1569.0,square1,i,0.193,0,V,3.0
V3,24.0,51.0,51.0,37.0,60.0,60,1629.0,square4,j,0.094,3,V,3.0
V3,25.0,45.0,53.0,36.0,57.0,53,1682.0,square2,f,0.444,1,V,3.0
V3,26.0,44.0,51.0,38.0,59.0,38,1720.0,square3,r,0.312,2,V,3.0
V3,27.0,43.0,51.0,34.0,66.0,43,1763.0,square1,i,0.498,0,V,3.0
V3,28.0,47.0,51.0,40.0,67.0,67,1830.0,square4,j,0.267,3,V,3.0
V3,29.0,42.0,55.0,35.0,65.0,65,1895.0,square4,j,0.131,3,V,3.0
V3,30.0,49.0,54.0,36.0,62.0,62,1957.0,square4,j,0.003,3,V,3.0
V3,31.0,50.0,53.0,42.0,66.0,66,2023.0,square4,j,0.341,3,V,3.0
V3,32.0,47.0,53.0,34.0,58.0,58,2081.0,square4,j,0.118,3,V,3.0
V3,33.0,45.0,56.0,34.0,62.0,56,2137.0,square2,f,0.925,1,V,3.0
V3,34.0,48.0,54.0,38.0,64.0,38,2175.0,square3,r,0.359,2,V,3.0
V3,35.0,39.0,55.0,42.0,65.0,39,2214.0,square1,i,0.382,0,V,3.0
V3,36.0,46.0,57.0,41.0,63.0,63,2277.0,square4,j,0.3,3,V,3.0
V3,37.0,43.0,54.0,41.0,65.0,65,2342.0,square4,j,0.181,3,V,3.0
V3,38.0,47.0,52.0,37.0,63.0,63,2405.0,square4,j,0.181,3,V,3.0
V3,39.0,47.0,53.0,38.0,55.0,55,2460.0,square4,j,0.0,3,V,3.0
V3,40.0,41.0,54.0,39.0,64.0,54,2514.0,square2,f,0.363,1,V,3.0
V3,41.0,48.0,52.0,38.0,64.0,38,2552.0,square3,r,0.57,2,V,3.0
V3,42.0,45.0,50.0,34.0,63.0,45,2597.0,square1,i,0.324,0,V,3.0
V3,43.0,44.0,50.0,34.0,62.0,62,2659.0,square4,j,0.102,3,V,3.0
V3,44.0,47.0,55.0,39.0,65.0,65,2724.0,square4,j,0.034,3,V,3.0
V3,45.0,45.0,55.0,31.0,63.0,63,2787.0,square4,j,0.035,3,V,3.0
V3,46.0,42.0,52.0,38.0,64.0,64,2851.0,square4,j,0.066,3,V,3.0
V3,47.0,44.0,53.0,37.0,55.0,55,2906.0,square4,j,0.031,3,V,3.0
V3,48.0,44.0,49.0,37.0,58.0,58,2964.0,square4,j,0.203,3,V,3.0
V3,49.0,48.0,58.0,35.0,54.0,54,3018.0,square4,j,0.085,3,V,3.0
V3,50.0,42.0,28.0,30.0,52.0,28,3046.0,square2,f,0.096,1,V,3.0
V3,51.0,46.0,29.0,32.0,51.0,46,3092.0,square1,i,0.438,0,V,3.0
V3,52.0,37.0,20.0,36.0,50.0,36,3128.0,square3,r,0.302,2,V,3.0
V3,53.0,44.0,22.0,34.0,55.0,55,3183.0,square4,j,0.058,3,V,3.0
V3,54.0,37.0,27.0,26.0,50.0,50,3233.0,square4,j,0.05,3,V,3.0
V3,55.0,41.0,21.0,39.0,53.0,53,3286.0,square4,j,0.112,3,V,3.0
V3,56.0,40.0,20.0,38.0,51.0,51,3337.0,square4,j,0.227,3,V,3.0
V3,57.0,44.0,28.0,31.0,57.0,57,3394.0,square4,j,0.03,3,V,3.0
V3,58.0,46.0,20.0,28.0,49.0,49,3443.0,square4,j,0.001,3,V,3.0
V3,59.0,44.0,24.0,30.0,55.0,55,3498.0,square4,j,0.053,3,V,3.0
V3,60.0,42.0,29.0,29.0,51.0,29,3527.0,square3,r,0.46,2,V,3.0
V3,61.0,41.0,21.0,30.0,46.0,41,3568.0,square1,i,0.745,0,V,3.0
V3,62.0,41.0,27.0,31.0,49.0,27,3595.0,square2,f,0.044,1,V,3.0
V3,63.0,42.0,27.0,34.0,51.0,51,3646.0,square4,j,0.097,3,V,3.0
V3,64.0,41.0,24.0,30.0,47.0,47,3693.0,square4,j,0.159,3,V,3.0
V3,65.0,36.0,18.0,34.0,48.0,48,3741.0,square4,j,0.001,3,V,3.0
V3,66.0,39.0,28.0,35.0,45.0,45,3786.0,square4,j,0.102,3,V,3.0
V3,67.0,42.0,21.0,32.0,46.0,46,3832.0,square4,j,0.066,3,V,3.0
V3,68.0,40.0,24.0,35.0,53.0,40,3872.0,square1,i,0.295,0,V,3.0
V3,69.0,48.0,23.0,34.0,50.0,34,3906.0,square3,r,0.362,2,V,3.0
V3,70.0,40.0,27.0,31.0,49.0,27,3933.0,square2,f,0.111,1,V,3.0
V3,71.0,41.0,23.0,28.0,51.0,51,3984.0,square4,j,0.108,3,V,3.0
V3,72.0,42.0,25.0,33.0,55.0,55,4039.0,square4,j,0.075,3,V,3.0
V3,73.0,41.0,24.0,35.0,55.0,55,4094.0,square4,j,0.049,3,V,3.0
V3,74.0,38.0,26.0,28.0,53.0,53,4147.0,square4,j,0.267,3,V,3.0
V3,75.0,54.0,39.0,69.0,50.0,50,4197.0,square4,j,0.163,3,V,3.0
V3,76.0,55.0,42.0,64.0,53.0,53,4250.0,square4,j,0.18,3,V,3.0
V3,77.0,59.0,37.0,66.0,44.0,44,4294.0,square4,j,0.146,3,V,3.0
V3,78.0,58.0,38.0,60.0,46.0,46,4340.0,square4,j,0.164,3,V,3.0
V3,79.0,54.0,35.0,66.0,49.0,49,4389.0,square4,j,0.168,3,V,3.0
V3,80.0,60.0,36.0,68.0,44.0,36,4425.0,square2,f,0.561,1,V,3.0
V3,81.0,55.0,38.0,66.0,51.0,66,4491.0,square3,r,0.001,2,V,3.0
V3,82.0,57.0,47.0,64.0,50.0,57,4548.0,square1,i,0.345,0,V,3.0
V3,83.0,57.0,37.0,63.0,45.0,63,4611.0,square3,r,0.275,2,V,3.0
V3,84.0,54.0,40.0,65.0,53.0,65,4676.0,square3,r,0.076,2,V,3.0
V3,85.0,58.0,41.0,63.0,48.0,63,4739.0,square3,r,0.079,2,V,3.0
V3,86.0,53.0,38.0,57.0,49.0,57,4796.0,square3,r,0.063,2,V,3.0
V3,87.0,49.0,42.0,60.0,43.0,60,4856.0,square3,r,0.093,2,V,3.0
V3,88.0,56.0,35.0,70.0,46.0,70,4926.0,square3,r,0.097,2,V,3.0
V3,89.0,58.0,39.0,63.0,52.0,63,4989.0,square3,r,0.185,2,V,3.0
V3,90.0,59.0,43.0,63.0,45.0,63,5052.0,square3,r,0.11,2,V,3.0
V3,91.0,54.0,37.0,69.0,49.0,69,5121.0,square3,r,0.284,2,V,3.0
V3,92.0,56.0,41.0,61.0,47.0,61,5182.0,square3,r,0.158,2,V,3.0
V3,93.0,58.0,35.0,68.0,47.0,68,5250.0,square3,r,0.182,2,V,3.0
V3,94.0,61.0,37.0,67.0,51.0,67,5317.0,square3,r,0.26,2,V,3.0
V3,95.0,57.0,32.0,64.0,47.0,64,5381.0,square3,r,0.299,2,V,3.0
V3,96.0,53.0,38.0,63.0,48.0,63,5444.0,square3,r,0.197,2,V,3.0
V3,97.0,57.0,44.0,71.0,50.0,71,5515.0,square3,r,0.06,2,V,3.0
V3,98.0,56.0,39.0,70.0,47.0,70,5585.0,square3,r,0.064,2,V,3.0
V3,99.0,62.0,40.0,67.0,49.0,67,5652.0,square3,r,0.091,2,V,3.0
V10,0.0,28.0,21.0,37.0,46.0,28,28.0,square1,r,0.438,0,V,10.0
V10,1.0,26.0,19.0,41.0,49.0,41,69.0,square3,f,0.113,2,V,10.0
V10,2.0,29.0,20.0,43.0,48.0,48,117.0,square4,i,0.428,3,V,10.0
V10,3.0,27.0,27.0,37.0,44.0,44,161.0,square4,i,0.942,3,V,10.0
V10,4.0,28.0,16.0,36.0,47.0,16,177.0,square2,j,0.48,1,V,10.0
V10,5.0,33.0,25.0,42.0,54.0,99999,177.0,invalid,,,-1,V,10.0
V10,6.0,28.0,19.0,35.0,45.0,99999,177.0,invalid,,,-1,V,10.0
V10,7.0,30.0,24.0,35.0,49.0,30,207.0,square1,r,0.518,0,V,10.0
V10,8.0,37.0,29.0,41.0,47.0,41,248.0,square3,f,0.281,2,V,10.0
V10,9.0,28.0,21.0,41.0,48.0,21,269.0,square2,j,0.178,1,V,10.0
V10,10.0,27.0,22.0,39.0,42.0,42,311.0,square4,i,1.083,3,V,10.0
V10,11.0,32.0,16.0,41.0,48.0,48,359.0,square4,i,0.004,3,V,10.0
V10,12.0,34.0,15.0,33.0,49.0,15,374.0,square2,j,0.286,1,V,10.0
V10,13.0,36.0,19.0,41.0,45.0,41,415.0,square3,f,0.391,2,V,10.0
V10,14.0,28.0,23.0,35.0,53.0,28,443.0,square1,r,0.303,0,V,10.0
V10,15.0,26.0,28.0,40.0,50.0,50,493.0,square4,i,0.118,3,V,10.0
V10,16.0,30.0,25.0,42.0,47.0,47,540.0,square4,i,0.163,3,V,10.0
V10,17.0,31.0,19.0,38.0,50.0,50,590.0,square4,i,0.087,3,V,10.0
V10,18.0,34.0,21.0,35.0,48.0,48,638.0,square4,i,0.071,3,V,10.0
V10,19.0,31.0,24.0,39.0,46.0,46,684.0,square4,i,0.183,3,V,10.0
V10,20.0,28.0,22.0,42.0,47.0,47,731.0,square4,i,0.125,3,V,10.0
V10,21.0,24.0,20.0,41.0,47.0,47,778.0,square4,i,0.186,3,V,10.0
V10,22.0,32.0,22.0,34.0,44.0,44,822.0,square4,i,0.196,3,V,10.0
V10,23.0,29.0,23.0,37.0,47.0,47,869.0,square4,i,0.001,3,V,10.0
V10,24.0,25.0,25.0,38.0,46.0,46,915.0,square4,i,0.21,3,V,10.0
V10,25.0,30.0,24.0,41.0,45.0,45,960.0,square4,i,0.034,3,V,10.0
V10,26.0,32.0,17.0,38.0,49.0,49,1009.0,square4,i,0.178,3,V,10.0
V10,27.0,34.0,21.0,38.0,47.0,47,1056.0,square4,i,0.048,3,V,10.0
V10,28.0,29.0,21.0,37.0,45.0,45,1101.0,square4,i,0.063,3,V,10.0
V10,29.0,30.0,20.0,31.0,47.0,47,1148.0,square4,i,0.001,3,V,10.0
V10,30.0,28.0,21.0,35.0,44.0,35,1183.0,square3,f,0.213,2,V,10.0
V10,31.0,36.0,25.0,14.0,8.0,25,1208.0,square2,j,0.842,1,V,10.0
V10,32.0,38.0,27.0,19.0,11.0,38,1246.0,square1,r,0.312,0,V,10.0
V10,33.0,39.0,21.0,20.0,13.0,13,1259.0,square4,i,0.117,3,V,10.0
V10,34.0,34.0,24.0,20.0,10.0,20,1279.0,square3,f,0.075,2,V,10.0
V10,35.0,44.0,29.0,17.0,11.0,29,1308.0,square2,j,0.377,1,V,10.0
V10,36.0,33.0,30.0,17.0,9.0,33,1341.0,square1,r,0.159,0,V,10.0
V10,37.0,31.0,27.0,12.0,6.0,31,1372.0,square1,r,0.359,0,V,10.0
V10,38.0,34.0,29.0,15.0,10.0,34,1406.0,square1,r,0.01,0,V,10.0
V10,39.0,35.0,21.0,19.0,5.0,35,1441.0,square1,r,0.016,0,V,10.0
V10,40.0,32.0,26.0,18.0,6.0,32,1473.0,square1,r,0.193,0,V,10.0
V10,41.0,34.0,32.0,13.0,9.0,34,1507.0,square1,r,0.026,0,V,10.0
V10,42.0,35.0,30.0,16.0,8.0,35,1542.0,square1,r,0.015,0,V,10.0
V10,43.0,38.0,32.0,16.0,8.0,38,1580.0,square1,r,0.109,0,V,10.0
V10,44.0,34.0,20.0,18.0,3.0,3,1583.0,square4,i,0.168,3,V,10.0
V10,45.0,38.0,22.0,23.0,9.0,22,1605.0,square2,j,0.371,1,V,10.0
V10,46.0,36.0,28.0,16.0,10.0,16,1621.0,square3,f,0.345,2,V,10.0
V10,47.0,36.0,27.0,13.0,8.0,13,1634.0,square3,f,0.143,2,V,10.0
V10,48.0,35.0,27.0,14.0,12.0,35,1669.0,square1,r,0.026,0,V,10.0
V10,49.0,33.0,28.0,16.0,10.0,33,1702.0,square1,r,0.199,0,V,10.0
V10,50.0,31.0,29.0,19.0,8.0,31,1733.0,square1,r,0.259,0,V,10.0
V10,51.0,32.0,21.0,20.0,12.0,32,1765.0,square1,r,0.221,0,V,10.0
V10,52.0,29.0,25.0,21.0,10.0,29,1794.0,square1,r,0.188,0,V,10.0
V10,53.0,39.0,29.0,23.0,2.0,39,1833.0,square1,r,0.0,0,V,10.0
V10,54.0,33.0,28.0,19.0,7.0,33,1866.0,square1,r,0.144,0,V,10.0
V10,55.0,34.0,24.0,15.0,8.0,34,1900.0,square1,r,0.179,0,V,10.0
V10,56.0,35.0,20.0,21.0,9.0,35,1935.0,square1,r,0.062,0,V,10.0
V10,57.0,33.0,27.0,19.0,7.0,33,1968.0,square1,r,0.61,0,V,10.0
V10,58.0,38.0,24.0,16.0,7.0,38,2006.0,square1,r,0.116,0,V,10.0
V10,59.0,34.0,29.0,15.0,5.0,34,2040.0,square1,r,0.46,0,V,10.0
V10,60.0,34.0,22.0,19.0,9.0,34,2074.0,square1,r,0.035,0,V,10.0
V10,61.0,39.0,31.0,20.0,10.0,39,2113.0,square1,r,0.051,0,V,10.0
V10,62.0,35.0,24.0,18.0,6.0,35,2148.0,square1,r,0.021,0,V,10.0
V10,63.0,35.0,26.0,18.0,9.0,35,2183.0,square1,r,0.119,0,V,10.0
V10,64.0,31.0,55.0,23.0,23.0,31,2214.0,square1,r,0.293,0,V,10.0
V10,65.0,35.0,50.0,22.0,27.0,35,2249.0,square1,r,0.277,0,V,10.0
V10,66.0,35.0,53.0,25.0,29.0,35,2284.0,square1,r,0.039,0,V,10.0
V10,67.0,38.0,44.0,17.0,29.0,38,2322.0,square1,r,0.015,0,V,10.0
V10,68.0,36.0,48.0,22.0,27.0,36,2358.0,square1,r,0.11,0,V,10.0
V10,69.0,41.0,53.0,17.0,28.0,41,2399.0,square1,r,0.05,0,V,10.0
V10,70.0,40.0,48.0,23.0,28.0,40,2439.0,square1,r,0.254,0,V,10.0
V10,71.0,39.0,43.0,24.0,20.0,39,2478.0,square1,r,0.499,0,V,10.0
V10,72.0,36.0,49.0,19.0,25.0,36,2514.0,square1,r,0.208,0,V,10.0
V10,73.0,39.0,49.0,23.0,32.0,39,2553.0,square1,r,0.117,0,V,10.0
V10,74.0,36.0,44.0,17.0,29.0,36,2589.0,square1,r,0.159,0,V,10.0
V10,75.0,37.0,46.0,20.0,30.0,37,2626.0,square1,r,0.095,0,V,10.0
V10,76.0,38.0,47.0,23.0,30.0,38,2664.0,square1,r,0.017,0,V,10.0
V10,77.0,36.0,49.0,22.0,32.0,36,2700.0,square1,r,0.077,0,V,10.0
V10,78.0,41.0,44.0,19.0,27.0,41,2741.0,square1,r,0.009,0,V,10.0
V10,79.0,41.0,48.0,22.0,27.0,41,2782.0,square1,r,0.011,0,V,10.0
V10,80.0,34.0,44.0,26.0,29.0,34,2816.0,square1,r,0.178,0,V,10.0
V10,81.0,38.0,47.0,18.0,29.0,18,2834.0,square3,f,0.052,2,V,10.0
V10,82.0,43.0,43.0,23.0,28.0,23,2857.0,square3,f,0.19,2,V,10.0
V10,83.0,34.0,51.0,23.0,26.0,23,2880.0,square3,f,0.055,2,V,10.0
V10,84.0,36.0,46.0,18.0,25.0,18,2898.0,square3,f,0.263,2,V,10.0
V10,85.0,39.0,46.0,25.0,26.0,25,2923.0,square3,f,0.354,2,V,10.0
V10,86.0,39.0,50.0,27.0,27.0,27,2950.0,square3,f,0.115,2,V,10.0
V10,87.0,38.0,46.0,20.0,30.0,20,2970.0,square3,f,0.234,2,V,10.0
V10,88.0,37.0,49.0,22.0,28.0,22,2992.0,square3,f,0.177,2,V,10.0
V10,89.0,34.0,51.0,25.0,26.0,25,3017.0,square3,f,0.2,2,V,10.0
V10,90.0,41.0,49.0,22.0,29.0,22,3039.0,square3,f,0.003,2,V,10.0
V10,91.0,37.0,45.0,26.0,32.0,26,3065.0,square3,f,0.712,2,V,10.0
V10,92.0,42.0,42.0,27.0,28.0,27,3092.0,square3,f,0.502,2,V,10.0
V10,93.0,41.0,48.0,19.0,36.0,19,3111.0,square3,f,0.084,2,V,10.0
V10,94.0,43.0,49.0,23.0,31.0,23,3134.0,square3,f,0.21,2,V,10.0
V10,95.0,39.0,46.0,18.0,27.0,18,3152.0,square3,f,0.144,2,V,10.0
V10,96.0,37.0,48.0,24.0,27.0,24,3176.0,square3,f,0.044,2,V,10.0
V10,97.0,42.0,50.0,23.0,31.0,23,3199.0,square3,f,0.175,2,V,10.0
V10,98.0,33.0,47.0,25.0,32.0,25,3224.0,square3,f,0.257,2,V,10.0
V10,99.0,39.0,48.0,23.0,32.0,23,3247.0,square3,f,0.307,2,V,10.0
S12,0.0,38.0,42.0,30.0,42.0,99999,0.0,invalid,,,-1,S,12.0
S12,1.0,30.0,42.0,28.0,37.0,30,30.0,square1,j,0.452,0,S,12.0
S12,2.0,34.0,41.0,38.0,43.0,41,71.0,square2,i,0.475,1,S,12.0
S12,3.0,38.0,51.0,38.0,38.0,38,109.0,square4,f,1.253,3,S,12.0
S12,4.0,32.0,37.0,33.0,45.0,33,142.0,square3,r,0.041,2,S,12.0
S12,5.0,38.0,52.0,36.0,35.0,38,180.0,square1,j,0.051,0,S,12.0
S12,6.0,30.0,43.0,30.0,38.0,30,210.0,square3,r,0.117,2,S,12.0
S12,7.0,38.0,39.0,30.0,39.0,39,249.0,square2,i,0.325,1,S,12.0
S12,8.0,37.0,49.0,35.0,38.0,49,298.0,square2,i,0.127,1,S,12.0
S12,9.0,37.0,44.0,29.0,38.0,44,342.0,square2,i,0.0,1,S,12.0
S12,10.0,35.0,42.0,30.0,45.0,42,384.0,square2,i,0.078,1,S,12.0
S12,11.0,34.0,45.0,36.0,32.0,45,429.0,square2,i,0.042,1,S,12.0
S12,12.0,33.0,45.0,35.0,42.0,45,474.0,square2,i,0.043,1,S,12.0
S12,13.0,36.0,36.0,29.0,40.0,36,510.0,square2,i,0.111,1,S,12.0
S12,14.0,36.0,49.0,32.0,42.0,49,559.0,square2,i,0.107,1,S,12.0
S12,15.0,35.0,43.0,35.0,46.0,43,602.0,square2,i,0.158,1,S,12.0
S12,16.0,39.0,48.0,41.0,43.0,48,650.0,square2,i,0.111,1,S,12.0
S12,17.0,35.0,47.0,27.0,38.0,47,697.0,square2,i,0.15,1,S,12.0
S12,18.0,37.0,51.0,33.0,33.0,51,748.0,square2,i,0.127,1,S,12.0
S12,19.0,41.0,42.0,33.0,36.0,41,789.0,square1,j,0.379,0,S,12.0
S12,20.0,34.0,44.0,26.0,41.0,41,830.0,square4,f,0.37,3,S,12.0
S12,21.0,35.0,37.0,29.0,35.0,29,859.0,square3,r,0.308,2,S,12.0
S12,22.0,37.0,48.0,31.0,41.0,48,907.0,square2,i,0.001,1,S,12.0
S12,23.0,36.0,43.0,27.0,45.0,43,950.0,square2,i,0.127,1,S,12.0
S12,24.0,39.0,48.0,38.0,38.0,48,998.0,square2,i,0.2,1,S,12.0
S12,25.0,31.0,43.0,30.0,40.0,43,1041.0,square2,i,0.137,1,S,12.0
S12,26.0,35.0,48.0,34.0,33.0,48,1089.0,square2,i,0.005,1,S,12.0
S12,27.0,46.0,46.0,28.0,38.0,46,1135.0,square2,i,0.078,1,S,12.0
S12,28.0,32.0,37.0,32.0,40.0,37,1172.0,square2,i,0.077,1,S,12.0
S12,29.0,38.0,41.0,32.0,44.0,41,1213.0,square2,i,0.02,1,S,12.0
S12,30.0,32.0,48.0,29.0,42.0,48,1261.0,square2,i,0.117,1,S,12.0
S12,31.0,34.0,46.0,30.0,42.0,46,1307.0,square2,i,0.174,1,S,12.0
S12,32.0,39.0,43.0,41.0,40.0,43,1350.0,square2,i,0.299,1,S,12.0
S12,33.0,36.0,47.0,33.0,46.0,47,1397.0,square2,i,0.192,1,S,12.0
S12,34.0,36.0,41.0,34.0,41.0,41,1438.0,square2,i,0.042,1,S,12.0
S12,35.0,34.0,42.0,31.0,43.0,42,1480.0,square2,i,0.048,1,S,12.0
S12,36.0,39.0,43.0,26.0,33.0,43,1523.0,square2,i,0.041,1,S,12.0
S12,37.0,39.0,49.0,30.0,42.0,49,1572.0,square2,i,0.312,1,S,12.0
S12,38.0,33.0,47.0,36.0,41.0,47,1619.0,square2,i,1.441,1,S,12.0
S12,39.0,29.0,46.0,35.0,36.0,46,1665.0,square2,i,0.409,1,S,12.0
S12,40.0,39.0,39.0,29.0,36.0,39,1704.0,square2,i,0.096,1,S,12.0
S12,41.0,33.0,44.0,31.0,40.0,44,1748.0,square2,i,0.048,1,S,12.0
S12,42.0,34.0,46.0,25.0,37.0,46,1794.0,square2,i,0.001,1,S,12.0
S12,43.0,37.0,42.0,30.0,42.0,42,1836.0,square2,i,0.249,1,S,12.0
S12,44.0,33.0,49.0,36.0,39.0,49,1885.0,square2,i,0.523,1,S,12.0
S12,45.0,35.0,40.0,30.0,47.0,40,1925.0,square2,i,0.146,1,S,12.0
S12,46.0,40.0,41.0,29.0,35.0,41,1966.0,square2,i,0.293,1,S,12.0
S12,47.0,32.0,42.0,28.0,43.0,42,2008.0,square2,i,0.083,1,S,12.0
S12,48.0,43.0,47.0,31.0,38.0,47,2055.0,square2,i,0.175,1,S,12.0
S12,49.0,37.0,41.0,35.0,40.0,41,2096.0,square2,i,0.004,1,S,12.0
S8,0.0,58.0,60.0,52.0,45.0,60,60.0,square2,j,0.735,1,S,8.0
S8,1.0,55.0,57.0,56.0,52.0,57,117.0,square2,j,0.003,1,S,8.0
S8,2.0,54.0,58.0,58.0,49.0,58,175.0,square2,j,0.108,1,S,8.0
S8,3.0,55.0,62.0,52.0,53.0,53,228.0,square4,i,0.093,3,S,8.0
S8,4.0,55.0,60.0,49.0,51.0,55,283.0,square1,r,0.268,0,S,8.0
S8,5.0,48.0,63.0,61.0,49.0,61,344.0,square3,f,0.108,2,S,8.0
S8,6.0,58.0,63.0,59.0,55.0,63,407.0,square2,j,0.507,1,S,8.0
S8,7.0,56.0,53.0,49.0,51.0,53,460.0,square2,j,0.03,1,S,8.0
S8,8.0,61.0,63.0,66.0,49.0,63,523.0,square2,j,0.099,1,S,8.0
S8,9.0,60.0,59.0,53.0,47.0,59,582.0,square2,j,0.212,1,S,8.0
S8,10.0,55.0,63.0,52.0,55.0,63,645.0,square2,j,0.151,1,S,8.0
S8,11.0,62.0,60.0,54.0,50.0,60,705.0,square2,j,0.162,1,S,8.0
S8,12.0,58.0,64.0,51.0,52.0,64,769.0,square2,j,0.11,1,S,8.0
S8,13.0,62.0,59.0,53.0,53.0,59,828.0,square2,j,0.114,1,S,8.0
S8,14.0,51.0,62.0,61.0,54.0,62,890.0,square2,j,0.142,1,S,8.0
S8,15.0,56.0,68.0,56.0,50.0,68,958.0,square2,j,0.135,1,S,8.0
S8,16.0,58.0,64.0,56.0,50.0,64,1022.0,square2,j,0.125,1,S,8.0
S8,17.0,64.0,63.0,60.0,42.0,63,1085.0,square2,j,0.15,1,S,8.0
S8,18.0,54.0,64.0,57.0,55.0,64,1149.0,square2,j,0.179,1,S,8.0
S8,19.0,56.0,53.0,57.0,53.0,53,1202.0,square2,j,0.001,1,S,8.0
S8,20.0,59.0,64.0,56.0,49.0,64,1266.0,square2,j,0.172,1,S,8.0
S8,21.0,54.0,59.0,55.0,48.0,59,1325.0,square2,j,0.163,1,S,8.0
S8,22.0,63.0,63.0,59.0,49.0,63,1388.0,square2,j,0.162,1,S,8.0
S8,23.0,59.0,60.0,48.0,52.0,60,1448.0,square2,j,0.279,1,S,8.0
S8,24.0,55.0,53.0,60.0,50.0,53,1501.0,square2,j,0.058,1,S,8.0
S8,25.0,57.0,60.0,55.0,54.0,60,1561.0,square2,j,0.253,1,S,8.0
S8,26.0,62.0,66.0,57.0,58.0,66,1627.0,square2,j,0.162,1,S,8.0
S8,27.0,58.0,55.0,52.0,48.0,55,1682.0,square2,j,0.306,1,S,8.0
S8,28.0,53.0,59.0,53.0,55.0,59,1741.0,square2,j,0.214,1,S,8.0
S8,29.0,60.0,58.0,57.0,53.0,58,1799.0,square2,j,0.018,1,S,8.0
S8,30.0,57.0,67.0,52.0,56.0,67,1866.0,square2,j,0.148,1,S,8.0
S8,31.0,60.0,58.0,52.0,50.0,58,1924.0,square2,j,0.76,1,S,8.0
S8,32.0,54.0,61.0,56.0,57.0,61,1985.0,square2,j,0.109,1,S,8.0
S8,33.0,66.0,64.0,63.0,52.0,64,2049.0,square2,j,0.15,1,S,8.0
S8,34.0,54.0,65.0,66.0,56.0,65,2114.0,square2,j,0.027,1,S,8.0
S8,35.0,54.0,62.0,61.0,48.0,62,2176.0,square2,j,0.043,1,S,8.0
S8,36.0,53.0,63.0,54.0,55.0,63,2239.0,square2,j,0.0,1,S,8.0
S8,37.0,64.0,58.0,57.0,51.0,58,2297.0,square2,j,0.045,1,S,8.0
S8,38.0,68.0,65.0,59.0,57.0,65,2362.0,square2,j,0.01,1,S,8.0
S8,39.0,64.0,65.0,51.0,55.0,65,2427.0,square2,j,0.108,1,S,8.0
S8,40.0,63.0,61.0,57.0,47.0,61,2488.0,square2,j,0.09,1,S,8.0
S8,41.0,65.0,58.0,55.0,49.0,58,2546.0,square2,j,0.011,1,S,8.0
S8,42.0,52.0,60.0,51.0,56.0,60,2606.0,square2,j,0.09,1,S,8.0
S8,43.0,63.0,57.0,48.0,50.0,57,2663.0,square2,j,0.044,1,S,8.0
S8,44.0,59.0,63.0,53.0,53.0,63,2726.0,square2,j,0.165,1,S,8.0
S8,45.0,62.0,62.0,60.0,53.0,62,2788.0,square2,j,0.009,1,S,8.0
S8,46.0,56.0,62.0,57.0,60.0,62,2850.0,square2,j,0.12,1,S,8.0
S8,47.0,60.0,63.0,58.0,56.0,63,2913.0,square2,j,0.213,1,S,8.0
S8,48.0,59.0,63.0,49.0,53.0,63,2976.0,square2,j,0.044,1,S,8.0
S8,49.0,67.0,67.0,59.0,55.0,67,3043.0,square2,j,0.01,1,S,8.0
S6,0.0,40.0,29.0,39.0,26.0,39,39.0,square3,j,1.524,2,S,6.0
S6,1.0,34.0,40.0,31.0,25.0,34,73.0,square1,i,0.063,0,S,6.0
S6,2.0,37.0,31.0,25.0,30.0,31,104.0,square2,r,0.208,1,S,6.0
S6,3.0,39.0,37.0,30.0,27.0,27,131.0,square4,f,0.001,3,S,6.0
S6,4.0,42.0,40.0,28.0,32.0,28,159.0,square3,j,0.069,2,S,6.0
S6,5.0,35.0,35.0,39.0,29.0,39,198.0,square3,j,0.175,2,S,6.0
S6,6.0,48.0,30.0,37.0,33.0,37,235.0,square3,j,0.076,2,S,6.0
S6,7.0,47.0,34.0,31.0,29.0,31,266.0,square3,j,0.169,2,S,6.0
S6,8.0,43.0,35.0,30.0,25.0,30,296.0,square3,j,0.125,2,S,6.0
S6,9.0,36.0,38.0,35.0,35.0,35,331.0,square3,j,0.025,2,S,6.0
S6,10.0,38.0,35.0,31.0,21.0,31,362.0,square3,j,0.316,2,S,6.0
S6,11.0,30.0,36.0,31.0,20.0,31,393.0,square3,j,0.026,2,S,6.0
S6,12.0,37.0,40.0,33.0,22.0,33,426.0,square3,j,0.02,2,S,6.0
S6,13.0,32.0,41.0,35.0,29.0,35,461.0,square3,j,0.026,2,S,6.0
S6,14.0,41.0,29.0,30.0,32.0,30,491.0,square3,j,0.057,2,S,6.0
S6,15.0,43.0,37.0,31.0,27.0,31,522.0,square3,j,0.043,2,S,6.0
S6,16.0,34.0,34.0,35.0,31.0,35,557.0,square3,j,0.041,2,S,6.0
S6,17.0,47.0,40.0,29.0,28.0,29,586.0,square3,j,0.11,2,S,6.0
S6,18.0,37.0,38.0,34.0,35.0,34,620.0,square3,j,0.159,2,S,6.0
S6,19.0,36.0,39.0,31.0,26.0,31,651.0,square3,j,0.041,2,S,6.0
S6,20.0,44.0,40.0,31.0,25.0,31,682.0,square3,j,0.069,2,S,6.0
S6,21.0,39.0,41.0,35.0,24.0,35,717.0,square3,j,0.077,2,S,6.0
S6,22.0,41.0,38.0,41.0,31.0,41,758.0,square3,j,0.125,2,S,6.0
S6,23.0,37.0,31.0,30.0,32.0,30,788.0,square3,j,0.001,2,S,6.0
S6,24.0,48.0,34.0,34.0,21.0,34,822.0,square3,j,0.001,2,S,6.0
S6,25.0,42.0,45.0,26.0,29.0,26,848.0,square3,j,0.065,2,S,6.0
S6,26.0,40.0,39.0,36.0,28.0,36,884.0,square3,j,0.151,2,S,6.0
S6,27.0,42.0,33.0,29.0,29.0,29,913.0,square3,j,0.045,2,S,6.0
S6,28.0,41.0,30.0,29.0,29.0,29,942.0,square3,j,0.067,2,S,6.0
S6,29.0,42.0,40.0,32.0,27.0,32,974.0,square3,j,0.025,2,S,6.0
S6,30.0,42.0,36.0,30.0,26.0,30,1004.0,square3,j,0.031,2,S,6.0
S6,31.0,42.0,34.0,35.0,29.0,35,1039.0,square3,j,0.081,2,S,6.0
S6,32.0,35.0,36.0,31.0,23.0,31,1070.0,square3,j,0.073,2,S,6.0
S6,33.0,35.0,31.0,35.0,30.0,35,1105.0,square3,j,0.083,2,S,6.0
S6,34.0,40.0,38.0,31.0,27.0,31,1136.0,square3,j,0.292,2,S,6.0
S6,35.0,42.0,37.0,34.0,34.0,34,1170.0,square3,j,0.141,2,S,6.0
S6,36.0,37.0,46.0,31.0,34.0,31,1201.0,square3,j,0.045,2,S,6.0
S6,37.0,38.0,40.0,30.0,26.0,30,1231.0,square3,j,0.101,2,S,6.0
S6,38.0,36.0,34.0,31.0,33.0,31,1262.0,square3,j,0.001,2,S,6.0
S6,39.0,44.0,37.0,33.0,31.0,33,1295.0,square3,j,0.027,2,S,6.0
S6,40.0,40.0,38.0,31.0,25.0,31,1326.0,square3,j,0.027,2,S,6.0
S6,41.0,49.0,35.0,35.0,28.0,35,1361.0,square3,j,0.026,2,S,6.0
S6,42.0,44.0,40.0,32.0,28.0,32,1393.0,square3,j,0.18,2,S,6.0
S6,43.0,43.0,36.0,33.0,26.0,33,1426.0,square3,j,0.116,2,S,6.0
S6,44.0,38.0,33.0,34.0,26.0,34,1460.0,square3,j,0.048,2,S,6.0
S6,45.0,32.0,35.0,30.0,28.0,30,1490.0,square3,j,0.139,2,S,6.0
S6,46.0,38.0,36.0,34.0,30.0,34,1524.0,square3,j,0.165,2,S,6.0
S6,47.0,44.0,35.0,32.0,31.0,32,1556.0,square3,j,0.105,2,S,6.0
S6,48.0,40.0,40.0,31.0,33.0,31,1587.0,square3,j,0.001,2,S,6.0
S6,49.0,41.0,29.0,29.0,29.0,29,1616.0,square3,j,0.178,2,S,6.0
S10,0.0,72.0,76.0,80.0,64.0,80,80.0,square3,i,0.649,2,S,10.0
S10,1.0,76.0,75.0,74.0,65.0,74,154.0,square3,i,0.059,2,S,10.0
S10,2.0,70.0,72.0,79.0,74.0,79,233.0,square3,i,0.181,2,S,10.0
S10,3.0,69.0,77.0,76.0,68.0,76,309.0,square3,i,0.175,2,S,10.0
S10,4.0,72.0,79.0,77.0,70.0,77,386.0,square3,i,0.141,2,S,10.0
S10,5.0,68.0,74.0,72.0,64.0,72,458.0,square3,i,0.083,2,S,10.0
S10,6.0,70.0,77.0,72.0,62.0,77,535.0,square2,j,0.16,1,S,10.0
S10,7.0,78.0,81.0,80.0,74.0,78,613.0,square1,f,0.367,0,S,10.0
S10,8.0,78.0,78.0,82.0,66.0,66,679.0,square4,r,0.192,3,S,10.0
S10,9.0,69.0,76.0,77.0,65.0,69,748.0,square1,f,0.078,0,S,10.0
S10,10.0,72.0,78.0,72.0,75.0,72,820.0,square1,f,0.077,0,S,10.0
S10,11.0,71.0,76.0,78.0,66.0,71,891.0,square1,f,0.009,0,S,10.0
S10,12.0,73.0,83.0,79.0,69.0,73,964.0,square1,f,0.201,0,S,10.0
S10,13.0,68.0,77.0,65.0,65.0,68,1032.0,square1,f,0.375,0,S,10.0
S10,14.0,69.0,84.0,79.0,65.0,84,1116.0,square2,j,0.018,1,S,10.0
S10,15.0,72.0,84.0,70.0,71.0,84,1200.0,square2,j,0.087,1,S,10.0
S10,16.0,79.0,80.0,82.0,67.0,80,1280.0,square2,j,0.242,1,S,10.0
S10,17.0,69.0,83.0,75.0,70.0,83,1363.0,square2,j,0.235,1,S,10.0
S10,18.0,69.0,75.0,69.0,68.0,75,1438.0,square2,j,0.104,1,S,10.0
S10,19.0,70.0,83.0,73.0,66.0,83,1521.0,square2,j,0.06,1,S,10.0
S10,20.0,69.0,83.0,75.0,66.0,83,1604.0,square2,j,0.062,1,S,10.0
S10,21.0,77.0,70.0,75.0,70.0,70,1674.0,square2,j,0.063,1,S,10.0
S10,22.0,73.0,77.0,81.0,69.0,77,1751.0,square2,j,0.019,1,S,10.0
S10,23.0,73.0,78.0,70.0,65.0,78,1829.0,square2,j,0.065,1,S,10.0
S10,24.0,70.0,80.0,75.0,66.0,80,1909.0,square2,j,0.125,1,S,10.0
S10,25.0,70.0,80.0,73.0,72.0,80,1989.0,square2,j,0.129,1,S,10.0
S10,26.0,73.0,75.0,73.0,75.0,75,2064.0,square2,j,0.06,1,S,10.0
S10,27.0,77.0,81.0,83.0,66.0,81,2145.0,square2,j,0.05,1,S,10.0
S10,28.0,73.0,79.0,79.0,73.0,79,2224.0,square2,j,0.769,1,S,10.0
S10,29.0,73.0,79.0,72.0,69.0,79,2303.0,square2,j,0.043,1,S,10.0
S10,30.0,71.0,85.0,79.0,69.0,85,2388.0,square2,j,0.06,1,S,10.0
S10,31.0,71.0,85.0,83.0,66.0,85,2473.0,square2,j,0.211,1,S,10.0
S10,32.0,78.0,79.0,77.0,65.0,79,2552.0,square2,j,0.125,1,S,10.0
S10,33.0,83.0,79.0,72.0,68.0,79,2631.0,square2,j,0.015,1,S,10.0
S10,34.0,68.0,74.0,79.0,72.0,74,2705.0,square2,j,0.022,1,S,10.0
S10,35.0,70.0,83.0,79.0,67.0,83,2788.0,square2,j,0.109,1,S,10.0
S10,36.0,67.0,76.0,75.0,72.0,76,2864.0,square2,j,0.026,1,S,10.0
S10,37.0,76.0,82.0,79.0,60.0,82,2946.0,square2,j,0.207,1,S,10.0
S10,38.0,72.0,75.0,69.0,68.0,75,3021.0,square2,j,0.134,1,S,10.0
S10,39.0,73.0,78.0,76.0,70.0,78,3099.0,square2,j,0.134,1,S,10.0
S10,40.0,76.0,77.0,66.0,60.0,77,3176.0,square2,j,0.093,1,S,10.0
S10,41.0,74.0,83.0,73.0,67.0,83,3259.0,square2,j,0.002,1,S,10.0
S10,42.0,72.0,69.0,80.0,63.0,69,3328.0,square2,j,0.233,1,S,10.0
S10,43.0,69.0,74.0,72.0,68.0,74,3402.0,square2,j,0.101,1,S,10.0
S10,44.0,67.0,76.0,70.0,65.0,76,3478.0,square2,j,0.076,1,S,10.0
S10,45.0,76.0,81.0,74.0,72.0,81,3559.0,square2,j,0.258,1,S,10.0
S10,46.0,76.0,79.0,76.0,66.0,79,3638.0,square2,j,0.143,1,S,10.0
S10,47.0,67.0,81.0,84.0,60.0,81,3719.0,square2,j,0.08,1,S,10.0
S10,48.0,73.0,83.0,75.0,66.0,83,3802.0,square2,j,0.109,1,S,10.0
S10,49.0,66.0,77.0,74.0,71.0,77,3879.0,square2,j,0.014,1,S,10.0
S3,0.0,38.0,48.0,42.0,57.0,48,48.0,square2,r,1.021,1,S,3.0
S3,1.0,29.0,43.0,51.0,57.0,51,99.0,square3,f,0.507,2,S,3.0
S3,2.0,41.0,49.0,46.0,49.0,41,140.0,square1,j,0.176,0,S,3.0
S3,3.0,44.0,50.0,45.0,52.0,52,192.0,square4,i,0.044,3,S,3.0
S3,4.0,37.0,51.0,45.0,58.0,45,237.0,square3,f,0.033,2,S,3.0
S3,5.0,47.0,43.0,42.0,49.0,42,279.0,square3,f,0.159,2,S,3.0
S3,6.0,44.0,53.0,51.0,58.0,51,330.0,square3,f,0.042,2,S,3.0
S3,7.0,39.0,47.0,46.0,54.0,46,376.0,square3,f,0.117,2,S,3.0
S3,8.0,43.0,53.0,41.0,52.0,41,417.0,square3,f,0.14,2,S,3.0
S3,9.0,42.0,46.0,41.0,53.0,41,458.0,square3,f,0.158,2,S,3.0
S3,10.0,37.0,49.0,49.0,55.0,49,507.0,square3,f,0.127,2,S,3.0
S3,11.0,40.0,47.0,36.0,59.0,36,543.0,square3,f,0.128,2,S,3.0
S3,12.0,46.0,51.0,39.0,56.0,51,594.0,square2,r,0.325,1,S,3.0
S3,13.0,39.0,48.0,45.0,57.0,39,633.0,square1,j,0.129,0,S,3.0
S3,14.0,39.0,55.0,43.0,47.0,47,680.0,square4,i,0.02,3,S,3.0
S3,15.0,46.0,46.0,47.0,52.0,46,726.0,square2,r,0.176,1,S,3.0
S3,16.0,42.0,49.0,50.0,55.0,49,775.0,square2,r,0.09,1,S,3.0
S3,17.0,45.0,45.0,56.0,47.0,45,820.0,square2,r,0.13,1,S,3.0
S3,18.0,46.0,43.0,45.0,50.0,43,863.0,square2,r,0.008,1,S,3.0
S3,19.0,41.0,47.0,50.0,55.0,55,918.0,square4,i,0.064,3,S,3.0
S3,20.0,45.0,52.0,49.0,52.0,52,970.0,square4,i,0.061,3,S,3.0
S3,21.0,40.0,43.0,47.0,46.0,46,1016.0,square4,i,0.059,3,S,3.0
S3,22.0,45.0,46.0,44.0,47.0,47,1063.0,square4,i,0.159,3,S,3.0
S3,23.0,36.0,50.0,42.0,46.0,46,1109.0,square4,i,0.081,3,S,3.0
S3,24.0,42.0,54.0,49.0,55.0,42,1151.0,square1,j,0.113,0,S,3.0
S3,25.0,43.0,51.0,44.0,54.0,43,1194.0,square1,j,0.077,0,S,3.0
S3,26.0,49.0,50.0,52.0,52.0,52,1246.0,square3,f,0.06,2,S,3.0
S3,27.0,47.0,52.0,44.0,50.0,44,1290.0,square3,f,0.009,2,S,3.0
S3,28.0,37.0,48.0,40.0,47.0,40,1330.0,square3,f,0.157,2,S,3.0
S3,29.0,50.0,43.0,50.0,57.0,50,1380.0,square3,f,0.301,2,S,3.0
S3,30.0,50.0,50.0,46.0,47.0,47,1427.0,square4,i,0.136,3,S,3.0
S3,31.0,37.0,53.0,49.0,56.0,56,1483.0,square4,i,0.112,3,S,3.0
S3,32.0,42.0,50.0,43.0,58.0,58,1541.0,square4,i,0.127,3,S,3.0
S3,33.0,44.0,49.0,46.0,59.0,59,1600.0,square4,i,0.091,3,S,3.0
S3,34.0,42.0,50.0,50.0,58.0,58,1658.0,square4,i,0.093,3,S,3.0
S3,35.0,43.0,46.0,45.0,50.0,50,1708.0,square4,i,0.031,3,S,3.0
S3,36.0,46.0,52.0,50.0,48.0,48,1756.0,square4,i,0.027,3,S,3.0
S3,37.0,48.0,50.0,49.0,52.0,52,1808.0,square4,i,0.06,3,S,3.0
S3,38.0,39.0,43.0,50.0,55.0,50,1858.0,square3,f,0.026,2,S,3.0
S3,39.0,50.0,53.0,46.0,57.0,46,1904.0,square3,f,0.042,2,S,3.0
S3,40.0,41.0,46.0,48.0,55.0,46,1950.0,square2,r,0.182,1,S,3.0
S3,41.0,49.0,49.0,40.0,56.0,49,1999.0,square2,r,0.143,1,S,3.0
S3,42.0,47.0,49.0,43.0,48.0,49,2048.0,square2,r,0.192,1,S,3.0
S3,43.0,46.0,43.0,41.0,58.0,58,2106.0,square4,i,0.028,3,S,3.0
S3,44.0,46.0,52.0,51.0,55.0,55,2161.0,square4,i,0.119,3,S,3.0
S3,45.0,46.0,41.0,46.0,49.0,49,2210.0,square4,i,0.043,3,S,3.0
S3,46.0,32.0,56.0,40.0,50.0,50,2260.0,square4,i,0.174,3,S,3.0
S3,47.0,42.0,49.0,44.0,51.0,51,2311.0,square4,i,0.18,3,S,3.0
S3,48.0,36.0,45.0,38.0,50.0,50,2361.0,square4,i,0.02,3,S,3.0
S3,49.0,45.0,48.0,47.0,52.0,52,2413.0,square4,i,0.058,3,S,3.0
S11,0.0,49.0,53.0,49.0,45.0,49,49.0,square3,j,0.538,2,S,11.0
S11,1.0,54.0,56.0,42.0,50.0,42,91.0,square3,j,0.058,2,S,11.0
S11,2.0,39.0,51.0,39.0,43.0,43,134.0,square4,f,0.219,3,S,11.0
S11,3.0,53.0,50.0,38.0,43.0,53,187.0,square1,r,0.028,0,S,11.0
S11,4.0,47.0,54.0,39.0,48.0,54,241.0,square2,i,0.109,1,S,11.0
S11,5.0,47.0,52.0,40.0,46.0,47,288.0,square1,r,0.048,0,S,11.0
S11,6.0,47.0,46.0,44.0,54.0,47,335.0,square1,r,0.026,0,S,11.0
S11,7.0,48.0,51.0,35.0,51.0,48,383.0,square1,r,0.057,0,S,11.0
S11,8.0,52.0,49.0,36.0,43.0,49,432.0,square2,i,0.114,1,S,11.0
S11,9.0,47.0,53.0,41.0,55.0,53,485.0,square2,i,0.027,1,S,11.0
S11,10.0,44.0,48.0,41.0,43.0,48,533.0,square2,i,0.183,1,S,11.0
S11,11.0,41.0,54.0,38.0,43.0,54,587.0,square2,i,0.142,1,S,11.0
S11,12.0,45.0,54.0,44.0,45.0,54,641.0,square2,i,0.077,1,S,11.0
S11,13.0,54.0,52.0,44.0,50.0,44,685.0,square3,j,0.123,2,S,11.0
S11,14.0,57.0,58.0,36.0,45.0,36,721.0,square3,j,0.076,2,S,11.0
S11,15.0,48.0,54.0,43.0,49.0,49,770.0,square4,f,0.096,3,S,11.0
S11,16.0,58.0,47.0,42.0,46.0,58,828.0,square1,r,0.142,0,S,11.0
S11,17.0,41.0,61.0,42.0,53.0,41,869.0,square1,r,0.161,0,S,11.0
S11,18.0,51.0,58.0,33.0,39.0,51,920.0,square1,r,0.147,0,S,11.0
S11,19.0,48.0,49.0,37.0,42.0,48,968.0,square1,r,0.093,0,S,11.0
S11,20.0,52.0,52.0,45.0,46.0,52,1020.0,square1,r,0.152,0,S,11.0
S11,21.0,47.0,53.0,44.0,51.0,47,1067.0,square1,r,0.185,0,S,11.0
S11,22.0,49.0,54.0,37.0,41.0,49,1116.0,square1,r,0.019,0,S,11.0
S11,23.0,52.0,54.0,41.0,45.0,52,1168.0,square1,r,0.165,0,S,11.0
S11,24.0,42.0,56.0,41.0,45.0,42,1210.0,square1,r,0.208,0,S,11.0
S11,25.0,52.0,56.0,42.0,44.0,52,1262.0,square1,r,0.001,0,S,11.0
S11,26.0,43.0,56.0,41.0,45.0,43,1305.0,square1,r,0.16,0,S,11.0
S11,27.0,48.0,50.0,40.0,43.0,48,1353.0,square1,r,0.228,0,S,11.0
S11,28.0,46.0,49.0,38.0,48.0,46,1399.0,square1,r,0.085,0,S,11.0
S11,29.0,46.0,55.0,40.0,42.0,46,1445.0,square1,r,0.082,0,S,11.0
S11,30.0,46.0,56.0,43.0,37.0,56,1501.0,square2,i,0.001,1,S,11.0
S11,31.0,42.0,49.0,44.0,42.0,49,1550.0,square2,i,0.124,1,S,11.0
S11,32.0,51.0,52.0,36.0,40.0,52,1602.0,square2,i,0.109,1,S,11.0
S11,33.0,44.0,53.0,39.0,43.0,53,1655.0,square2,i,0.092,1,S,11.0
S11,34.0,52.0,52.0,43.0,49.0,52,1707.0,square2,i,0.165,1,S,11.0
S11,35.0,53.0,51.0,38.0,45.0,51,1758.0,square2,i,0.207,1,S,11.0
S11,36.0,50.0,44.0,42.0,48.0,44,1802.0,square2,i,0.079,1,S,11.0
S11,37.0,49.0,51.0,40.0,48.0,51,1853.0,square2,i,0.114,1,S,11.0
S11,38.0,47.0,47.0,39.0,38.0,47,1900.0,square2,i,0.213,1,S,11.0
S11,39.0,51.0,55.0,40.0,42.0,55,1955.0,square2,i,0.115,1,S,11.0
S11,40.0,50.0,52.0,41.0,44.0,52,2007.0,square2,i,0.191,1,S,11.0
S11,41.0,47.0,50.0,46.0,50.0,50,2057.0,square2,i,0.167,1,S,11.0
S11,42.0,52.0,48.0,41.0,47.0,41,2098.0,square3,j,0.174,2,S,11.0
S11,43.0,50.0,56.0,34.0,42.0,34,2132.0,square3,j,0.001,2,S,11.0
S11,44.0,42.0,48.0,37.0,49.0,49,2181.0,square4,f,0.277,3,S,11.0
S11,45.0,47.0,47.0,41.0,40.0,47,2228.0,square1,r,0.192,0,S,11.0
S11,46.0,50.0,56.0,40.0,44.0,56,2284.0,square2,i,0.041,1,S,11.0
S11,47.0,46.0,48.0,38.0,47.0,48,2332.0,square2,i,0.091,1,S,11.0
S11,48.0,45.0,54.0,44.0,41.0,54,2386.0,square2,i,0.11,1,S,11.0
S11,49.0,44.0,53.0,41.0,41.0,53,2439.0,square2,i,0.0,1,S,11.0
