block,Trial,square1,square2,square3,square4,currPoints,totalPoints,square,choiceKey.keys,choiceKey.rt,armNum,blockType,blockNum
prac,0.0,100.0,0.0,0.0,0.0,0.0,0.0,square4,,,3,p,0.0
prac,1.0,100.0,0.0,0.0,0.0,100.0,100.0,square1,,,0,p,0.0
prac,2.0,100.0,0.0,0.0,0.0,100.0,200.0,square1,,,0,p,0.0
prac,3.0,100.0,0.0,0.0,0.0,100.0,300.0,square1,,,0,p,0.0
prac,4.0,100.0,0.0,0.0,0.0,100.0,400.0,square1,,,0,p,0.0
prac,5.0,100.0,0.0,0.0,0.0,100.0,500.0,square1,,,0,p,0.0
prac,6.0,100.0,0.0,0.0,0.0,100.0,600.0,square1,,,0,p,0.0
prac,7.0,100.0,0.0,0.0,0.0,100.0,700.0,square1,,,0,p,0.0
prac,8.0,100.0,0.0,0.0,0.0,100.0,800.0,square1,,,0,p,0.0
prac,9.0,100.0,0.0,0.0,0.0,100.0,900.0,square1,,,0,p,0.0
S3,0.0,38.0,48.0,42.0,57.0,42.0,42.0,square3,f,0.622,2,S,3.0
S3,1.0,29.0,43.0,51.0,57.0,43.0,85.0,square2,r,0.382,1,S,3.0
S3,2.0,41.0,49.0,46.0,49.0,41.0,126.0,square1,i,0.256,0,S,3.0
S3,3.0,44.0,50.0,45.0,52.0,52.0,178.0,square4,j,0.377,3,S,3.0
S3,4.0,37.0,51.0,45.0,58.0,58.0,236.0,square4,j,0.235,3,S,3.0
S3,5.0,47.0,43.0,42.0,49.0,49.0,285.0,square4,j,0.249,3,S,3.0
S3,6.0,44.0,53.0,51.0,58.0,58.0,343.0,square4,j,0.28,3,S,3.0
S3,7.0,39.0,47.0,46.0,54.0,54.0,397.0,square4,j,0.27,3,S,3.0
S3,8.0,43.0,53.0,41.0,52.0,52.0,449.0,square4,j,0.223,3,S,3.0
S3,9.0,42.0,46.0,41.0,53.0,53.0,502.0,square4,j,0.188,3,S,3.0
S3,10.0,37.0,49.0,49.0,55.0,55.0,557.0,square4,j,0.169,3,S,3.0
S3,11.0,40.0,47.0,36.0,59.0,59.0,616.0,square4,j,0.251,3,S,3.0
S3,12.0,46.0,51.0,39.0,56.0,56.0,672.0,square4,j,0.245,3,S,3.0
S3,13.0,39.0,48.0,45.0,57.0,57.0,729.0,square4,j,0.218,3,S,3.0
S3,14.0,39.0,55.0,43.0,47.0,47.0,776.0,square4,j,0.198,3,S,3.0
S3,15.0,46.0,46.0,47.0,52.0,52.0,828.0,square4,j,0.254,3,S,3.0
S3,16.0,42.0,49.0,50.0,55.0,55.0,883.0,square4,j,0.323,3,S,3.0
S3,17.0,45.0,45.0,56.0,47.0,47.0,930.0,square4,j,0.289,3,S,3.0
S3,18.0,46.0,43.0,45.0,50.0,50.0,980.0,square4,j,0.26,3,S,3.0
S3,19.0,41.0,47.0,50.0,55.0,55.0,1035.0,square4,j,0.116,3,S,3.0
S3,20.0,45.0,52.0,49.0,52.0,52.0,1087.0,square4,j,0.25,3,S,3.0
S3,21.0,40.0,43.0,47.0,46.0,46.0,1133.0,square4,j,0.092,3,S,3.0
S3,22.0,45.0,46.0,44.0,47.0,47.0,1180.0,square4,j,0.174,3,S,3.0
S3,23.0,36.0,50.0,42.0,46.0,46.0,1226.0,square4,j,0.146,3,S,3.0
S3,24.0,42.0,54.0,49.0,55.0,55.0,1281.0,square4,j,0.007,3,S,3.0
S3,25.0,43.0,51.0,44.0,54.0,54.0,1335.0,square4,j,0.257,3,S,3.0
S3,26.0,49.0,50.0,52.0,52.0,52.0,1387.0,square4,j,0.007,3,S,3.0
S3,27.0,47.0,52.0,44.0,50.0,50.0,1437.0,square4,j,0.172,3,S,3.0
S3,28.0,37.0,48.0,40.0,47.0,47.0,1484.0,square4,j,0.015,3,S,3.0
S3,29.0,50.0,43.0,50.0,57.0,57.0,1541.0,square4,j,0.204,3,S,3.0
S3,30.0,50.0,50.0,46.0,47.0,47.0,1588.0,square4,j,0.1,3,S,3.0
S3,31.0,37.0,53.0,49.0,56.0,56.0,1644.0,square4,j,0.228,3,S,3.0
S3,32.0,42.0,50.0,43.0,58.0,58.0,1702.0,square4,j,0.069,3,S,3.0
S3,33.0,44.0,49.0,46.0,59.0,59.0,1761.0,square4,j,0.075,3,S,3.0
S3,34.0,42.0,50.0,50.0,58.0,58.0,1819.0,square4,j,0.181,3,S,3.0
S3,35.0,43.0,46.0,45.0,50.0,50.0,1869.0,square4,j,0.032,3,S,3.0
S3,36.0,46.0,52.0,50.0,48.0,48.0,1917.0,square4,j,0.277,3,S,3.0
S3,37.0,48.0,50.0,49.0,52.0,52.0,1969.0,square4,j,0.264,3,S,3.0
S3,38.0,39.0,43.0,50.0,55.0,55.0,2024.0,square4,j,0.183,3,S,3.0
S3,39.0,50.0,53.0,46.0,57.0,57.0,2081.0,square4,j,0.117,3,S,3.0
S3,40.0,41.0,46.0,48.0,55.0,55.0,2136.0,square4,j,0.291,3,S,3.0
S3,41.0,49.0,49.0,40.0,56.0,56.0,2192.0,square4,j,0.047,3,S,3.0
S3,42.0,47.0,49.0,43.0,48.0,48.0,2240.0,square4,j,0.265,3,S,3.0
S3,43.0,46.0,43.0,41.0,58.0,58.0,2298.0,square4,j,0.256,3,S,3.0
S3,44.0,46.0,52.0,51.0,55.0,55.0,2353.0,square4,j,0.766,3,S,3.0
S3,45.0,46.0,41.0,46.0,49.0,49.0,2402.0,square4,j,0.287,3,S,3.0
S3,46.0,32.0,56.0,40.0,50.0,50.0,2452.0,square4,j,0.27,3,S,3.0
S3,47.0,42.0,49.0,44.0,51.0,51.0,2503.0,square4,j,0.148,3,S,3.0
S3,48.0,36.0,45.0,38.0,50.0,50.0,2553.0,square4,j,0.277,3,S,3.0
S3,49.0,45.0,48.0,47.0,52.0,52.0,2605.0,square4,j,0.159,3,S,3.0
S5,0.0,90.0,70.0,79.0,84.0,90.0,90.0,square1,f,0.807,0,S,5.0
S5,1.0,92.0,77.0,83.0,81.0,83.0,173.0,square3,r,0.286,2,S,5.0
S5,2.0,83.0,72.0,81.0,76.0,76.0,249.0,square4,i,0.369,3,S,5.0
S5,3.0,87.0,72.0,79.0,81.0,72.0,321.0,square2,j,0.238,1,S,5.0
S5,4.0,86.0,81.0,78.0,72.0,86.0,407.0,square1,f,0.24,0,S,5.0
S5,5.0,89.0,70.0,79.0,83.0,89.0,496.0,square1,f,0.179,0,S,5.0
S5,6.0,86.0,69.0,81.0,81.0,86.0,582.0,square1,f,0.23,0,S,5.0
S5,7.0,82.0,72.0,86.0,80.0,86.0,668.0,square3,r,0.194,2,S,5.0
S5,8.0,84.0,67.0,80.0,77.0,77.0,745.0,square4,i,0.226,3,S,5.0
S5,9.0,92.0,80.0,86.0,84.0,86.0,831.0,square3,r,0.182,2,S,5.0
S5,10.0,82.0,71.0,80.0,80.0,82.0,913.0,square1,f,0.168,0,S,5.0
S5,11.0,80.0,75.0,79.0,75.0,80.0,993.0,square1,f,0.278,0,S,5.0
S5,12.0,84.0,75.0,80.0,82.0,80.0,1073.0,square3,r,0.369,2,S,5.0
S5,13.0,85.0,74.0,74.0,81.0,85.0,1158.0,square1,f,0.1,0,S,5.0
S5,14.0,81.0,79.0,85.0,81.0,85.0,1243.0,square3,r,0.106,2,S,5.0
S5,15.0,81.0,75.0,76.0,77.0,81.0,1324.0,square1,f,0.112,0,S,5.0
S5,16.0,86.0,74.0,78.0,74.0,78.0,1402.0,square3,r,0.225,2,S,5.0
S5,17.0,81.0,77.0,81.0,77.0,81.0,1483.0,square1,f,0.189,0,S,5.0
S5,18.0,87.0,70.0,84.0,82.0,87.0,1570.0,square1,f,0.011,0,S,5.0
S5,19.0,84.0,76.0,83.0,76.0,84.0,1654.0,square1,f,0.001,0,S,5.0
S5,20.0,79.0,78.0,82.0,76.0,79.0,1733.0,square1,f,0.239,0,S,5.0
S5,21.0,86.0,68.0,80.0,72.0,80.0,1813.0,square3,r,0.665,2,S,5.0
S5,22.0,93.0,80.0,85.0,84.0,93.0,1906.0,square1,f,0.214,0,S,5.0
S5,23.0,87.0,73.0,76.0,70.0,87.0,1993.0,square1,f,0.256,0,S,5.0
S5,24.0,85.0,69.0,81.0,78.0,85.0,2078.0,square1,f,0.189,0,S,5.0
S5,25.0,89.0,77.0,77.0,76.0,89.0,2167.0,square1,f,0.159,0,S,5.0
S5,26.0,84.0,71.0,81.0,75.0,84.0,2251.0,square1,f,0.001,0,S,5.0
S5,27.0,84.0,75.0,82.0,71.0,84.0,2335.0,square1,f,0.199,0,S,5.0
S5,28.0,83.0,72.0,82.0,78.0,83.0,2418.0,square1,f,0.248,0,S,5.0
S5,29.0,91.0,67.0,79.0,74.0,91.0,2509.0,square1,f,0.008,0,S,5.0
S5,30.0,82.0,69.0,81.0,77.0,82.0,2591.0,square1,f,0.019,0,S,5.0
S5,31.0,82.0,72.0,80.0,78.0,82.0,2673.0,square1,f,0.33,0,S,5.0
S5,32.0,83.0,73.0,91.0,80.0,83.0,2756.0,square1,f,0.169,0,S,5.0
S5,33.0,83.0,68.0,85.0,78.0,83.0,2839.0,square1,f,0.008,0,S,5.0
S5,34.0,89.0,79.0,83.0,77.0,89.0,2928.0,square1,f,0.007,0,S,5.0
S5,35.0,88.0,72.0,79.0,80.0,88.0,3016.0,square1,f,0.232,0,S,5.0
S5,36.0,90.0,74.0,84.0,76.0,90.0,3106.0,square1,f,0.255,0,S,5.0
S5,37.0,85.0,75.0,80.0,82.0,85.0,3191.0,square1,f,0.021,0,S,5.0
S5,38.0,78.0,74.0,85.0,79.0,78.0,3269.0,square1,f,0.262,0,S,5.0
S5,39.0,87.0,73.0,87.0,85.0,87.0,3356.0,square1,f,0.242,0,S,5.0
S5,40.0,83.0,67.0,81.0,80.0,83.0,3439.0,square1,f,0.333,0,S,5.0
S5,41.0,82.0,69.0,88.0,80.0,82.0,3521.0,square1,f,0.184,0,S,5.0
S5,42.0,85.0,78.0,91.0,80.0,85.0,3606.0,square1,f,0.0,0,S,5.0
S5,43.0,89.0,74.0,78.0,74.0,89.0,3695.0,square1,f,0.265,0,S,5.0
S5,44.0,90.0,74.0,77.0,85.0,90.0,3785.0,square1,f,0.083,0,S,5.0
S5,45.0,89.0,68.0,81.0,78.0,89.0,3874.0,square1,f,0.255,0,S,5.0
S5,46.0,86.0,70.0,86.0,68.0,86.0,3960.0,square1,f,0.083,0,S,5.0
S5,47.0,90.0,77.0,85.0,84.0,90.0,4050.0,square1,f,0.206,0,S,5.0
S5,48.0,76.0,66.0,82.0,79.0,76.0,4126.0,square1,f,0.235,0,S,5.0
S5,49.0,84.0,73.0,82.0,75.0,84.0,4210.0,square1,f,0.866,0,S,5.0
S1,0.0,72.0,58.0,70.0,66.0,70.0,70.0,square3,f,0.641,2,S,1.0
S1,1.0,75.0,64.0,66.0,69.0,69.0,139.0,square4,j,0.141,3,S,1.0
S1,2.0,75.0,62.0,62.0,79.0,62.0,201.0,square2,r,0.006,1,S,1.0
S1,3.0,68.0,62.0,63.0,69.0,68.0,269.0,square1,i,0.18,0,S,1.0
S1,4.0,82.0,63.0,64.0,73.0,64.0,333.0,square3,f,0.231,2,S,1.0
S1,5.0,66.0,70.0,65.0,73.0,73.0,406.0,square4,j,0.073,3,S,1.0
S1,6.0,73.0,65.0,62.0,65.0,73.0,479.0,square1,i,0.247,0,S,1.0
S1,7.0,70.0,61.0,65.0,66.0,66.0,545.0,square4,j,0.516,3,S,1.0
S1,8.0,78.0,63.0,67.0,68.0,78.0,623.0,square1,i,0.001,0,S,1.0
S1,9.0,74.0,67.0,66.0,68.0,67.0,690.0,square2,r,0.245,1,S,1.0
S1,10.0,73.0,59.0,68.0,68.0,73.0,763.0,square1,i,0.202,0,S,1.0
S1,11.0,76.0,65.0,62.0,81.0,76.0,839.0,square1,i,0.192,0,S,1.0
S1,12.0,77.0,66.0,69.0,63.0,77.0,916.0,square1,i,0.119,0,S,1.0
S1,13.0,75.0,63.0,68.0,73.0,75.0,991.0,square1,i,0.013,0,S,1.0
S1,14.0,67.0,60.0,67.0,69.0,67.0,1058.0,square1,i,0.036,0,S,1.0
S1,15.0,70.0,63.0,69.0,73.0,70.0,1128.0,square1,i,0.053,0,S,1.0
S1,16.0,69.0,61.0,69.0,69.0,69.0,1197.0,square1,i,0.059,0,S,1.0
S1,17.0,73.0,68.0,67.0,73.0,73.0,1270.0,square1,i,0.04,0,S,1.0
S1,18.0,70.0,58.0,73.0,66.0,70.0,1340.0,square1,i,0.116,0,S,1.0
S1,19.0,75.0,58.0,62.0,68.0,75.0,1415.0,square1,i,0.023,0,S,1.0
S1,20.0,76.0,58.0,72.0,67.0,76.0,1491.0,square1,i,0.02,0,S,1.0
S1,21.0,69.0,66.0,66.0,67.0,69.0,1560.0,square1,i,0.066,0,S,1.0
S1,22.0,70.0,68.0,65.0,65.0,70.0,1630.0,square1,i,0.07,0,S,1.0
S1,23.0,71.0,60.0,64.0,64.0,71.0,1701.0,square1,i,0.065,0,S,1.0
S1,24.0,70.0,72.0,62.0,67.0,62.0,1763.0,square3,f,0.248,2,S,1.0
S1,25.0,68.0,60.0,70.0,65.0,68.0,1831.0,square1,i,0.083,0,S,1.0
S1,26.0,76.0,64.0,72.0,69.0,76.0,1907.0,square1,i,0.063,0,S,1.0
S1,27.0,71.0,56.0,70.0,65.0,71.0,1978.0,square1,i,0.166,0,S,1.0
S1,28.0,67.0,67.0,71.0,76.0,67.0,2045.0,square1,i,0.007,0,S,1.0
S1,29.0,78.0,64.0,64.0,74.0,78.0,2123.0,square1,i,0.129,0,S,1.0
S1,30.0,74.0,63.0,65.0,71.0,74.0,2197.0,square1,i,0.061,0,S,1.0
S1,31.0,78.0,58.0,69.0,69.0,78.0,2275.0,square1,i,0.018,0,S,1.0
S1,32.0,71.0,67.0,68.0,60.0,71.0,2346.0,square1,i,0.036,0,S,1.0
S1,33.0,68.0,63.0,65.0,73.0,68.0,2414.0,square1,i,0.061,0,S,1.0
S1,34.0,71.0,62.0,74.0,73.0,71.0,2485.0,square1,i,0.11,0,S,1.0
S1,35.0,75.0,59.0,67.0,77.0,75.0,2560.0,square1,i,0.04,0,S,1.0
S1,36.0,77.0,60.0,66.0,67.0,77.0,2637.0,square1,i,0.065,0,S,1.0
S1,37.0,69.0,60.0,69.0,75.0,69.0,2706.0,square1,i,0.12,0,S,1.0
S1,38.0,77.0,64.0,62.0,70.0,77.0,2783.0,square1,i,0.086,0,S,1.0
S1,39.0,72.0,66.0,69.0,65.0,72.0,2855.0,square1,i,0.109,0,S,1.0
S1,40.0,69.0,63.0,66.0,69.0,69.0,2924.0,square1,i,0.097,0,S,1.0
S1,41.0,72.0,62.0,70.0,70.0,72.0,2996.0,square1,i,0.057,0,S,1.0
S1,42.0,78.0,60.0,63.0,62.0,78.0,3074.0,square1,i,0.147,0,S,1.0
S1,43.0,71.0,62.0,67.0,73.0,71.0,3145.0,square1,i,0.114,0,S,1.0
S1,44.0,75.0,63.0,69.0,73.0,75.0,3220.0,square1,i,0.173,0,S,1.0
S1,45.0,66.0,60.0,68.0,73.0,66.0,3286.0,square1,i,0.163,0,S,1.0
S1,46.0,74.0,67.0,69.0,71.0,74.0,3360.0,square1,i,0.234,0,S,1.0
S1,47.0,71.0,66.0,68.0,70.0,71.0,3431.0,square1,i,0.007,0,S,1.0
S1,48.0,72.0,75.0,71.0,77.0,72.0,3503.0,square1,i,0.197,0,S,1.0
S1,49.0,65.0,57.0,66.0,75.0,65.0,3568.0,square1,i,0.08,0,S,1.0
S6,0.0,40.0,29.0,39.0,26.0,29.0,29.0,square2,f,0.378,1,S,6.0
S6,1.0,34.0,40.0,31.0,25.0,25.0,54.0,square4,r,0.387,3,S,6.0
S6,2.0,37.0,31.0,25.0,30.0,25.0,79.0,square3,i,0.387,2,S,6.0
S6,3.0,39.0,37.0,30.0,27.0,39.0,118.0,square1,j,0.239,0,S,6.0
S6,4.0,42.0,40.0,28.0,32.0,40.0,158.0,square2,f,0.244,1,S,6.0
S6,5.0,35.0,35.0,39.0,29.0,35.0,193.0,square1,j,0.079,0,S,6.0
S6,6.0,48.0,30.0,37.0,33.0,30.0,223.0,square2,f,0.197,1,S,6.0
S6,7.0,47.0,34.0,31.0,29.0,47.0,270.0,square1,j,0.016,0,S,6.0
S6,8.0,43.0,35.0,30.0,25.0,43.0,313.0,square1,j,0.038,0,S,6.0
S6,9.0,36.0,38.0,35.0,35.0,36.0,349.0,square1,j,0.148,0,S,6.0
S6,10.0,38.0,35.0,31.0,21.0,38.0,387.0,square1,j,0.125,0,S,6.0
S6,11.0,30.0,36.0,31.0,20.0,30.0,417.0,square1,j,0.181,0,S,6.0
S6,12.0,37.0,40.0,33.0,22.0,37.0,454.0,square1,j,0.019,0,S,6.0
S6,13.0,32.0,41.0,35.0,29.0,29.0,483.0,square4,r,0.196,3,S,6.0
S6,14.0,41.0,29.0,30.0,32.0,30.0,513.0,square3,i,0.017,2,S,6.0
S6,15.0,43.0,37.0,31.0,27.0,43.0,556.0,square1,j,0.111,0,S,6.0
S6,16.0,34.0,34.0,35.0,31.0,34.0,590.0,square1,j,0.118,0,S,6.0
S6,17.0,47.0,40.0,29.0,28.0,47.0,637.0,square1,j,0.001,0,S,6.0
S6,18.0,37.0,38.0,34.0,35.0,37.0,674.0,square1,j,0.097,0,S,6.0
S6,19.0,36.0,39.0,31.0,26.0,36.0,710.0,square1,j,0.098,0,S,6.0
S6,20.0,44.0,40.0,31.0,25.0,44.0,754.0,square1,j,0.349,0,S,6.0
S6,21.0,39.0,41.0,35.0,24.0,39.0,793.0,square1,j,0.163,0,S,6.0
S6,22.0,41.0,38.0,41.0,31.0,41.0,834.0,square1,j,0.157,0,S,6.0
S6,23.0,37.0,31.0,30.0,32.0,37.0,871.0,square1,j,0.138,0,S,6.0
S6,24.0,48.0,34.0,34.0,21.0,48.0,919.0,square1,j,0.001,0,S,6.0
S6,25.0,42.0,45.0,26.0,29.0,42.0,961.0,square1,j,0.188,0,S,6.0
S6,26.0,40.0,39.0,36.0,28.0,40.0,1001.0,square1,j,0.334,0,S,6.0
S6,27.0,42.0,33.0,29.0,29.0,42.0,1043.0,square1,j,0.102,0,S,6.0
S6,28.0,41.0,30.0,29.0,29.0,41.0,1084.0,square1,j,0.229,0,S,6.0
S6,29.0,42.0,40.0,32.0,27.0,42.0,1126.0,square1,j,0.195,0,S,6.0
S6,30.0,42.0,36.0,30.0,26.0,42.0,1168.0,square1,j,0.173,0,S,6.0
S6,31.0,42.0,34.0,35.0,29.0,42.0,1210.0,square1,j,0.178,0,S,6.0
S6,32.0,35.0,36.0,31.0,23.0,35.0,1245.0,square1,j,0.156,0,S,6.0
S6,33.0,35.0,31.0,35.0,30.0,35.0,1280.0,square1,j,0.13,0,S,6.0
S6,34.0,40.0,38.0,31.0,27.0,40.0,1320.0,square1,j,0.239,0,S,6.0
S6,35.0,42.0,37.0,34.0,34.0,42.0,1362.0,square1,j,0.018,0,S,6.0
S6,36.0,37.0,46.0,31.0,34.0,37.0,1399.0,square1,j,0.052,0,S,6.0
S6,37.0,38.0,40.0,30.0,26.0,38.0,1437.0,square1,j,0.167,0,S,6.0
S6,38.0,36.0,34.0,31.0,33.0,36.0,1473.0,square1,j,0.557,0,S,6.0
S6,39.0,44.0,37.0,33.0,31.0,44.0,1517.0,square1,j,0.001,0,S,6.0
S6,40.0,40.0,38.0,31.0,25.0,40.0,1557.0,square1,j,0.104,0,S,6.0
S6,41.0,49.0,35.0,35.0,28.0,49.0,1606.0,square1,j,0.106,0,S,6.0
S6,42.0,44.0,40.0,32.0,28.0,44.0,1650.0,square1,j,0.112,0,S,6.0
S6,43.0,43.0,36.0,33.0,26.0,43.0,1693.0,square1,j,0.03,0,S,6.0
S6,44.0,38.0,33.0,34.0,26.0,38.0,1731.0,square1,j,0.005,0,S,6.0
S6,45.0,32.0,35.0,30.0,28.0,32.0,1763.0,square1,j,0.172,0,S,6.0
S6,46.0,38.0,36.0,34.0,30.0,38.0,1801.0,square1,j,0.195,0,S,6.0
S6,47.0,44.0,35.0,32.0,31.0,44.0,1845.0,square1,j,0.455,0,S,6.0
S6,48.0,40.0,40.0,31.0,33.0,40.0,1885.0,square1,j,0.218,0,S,6.0
S6,49.0,41.0,29.0,29.0,29.0,41.0,1926.0,square1,j,0.129,0,S,6.0
S7,0.0,68.0,73.0,62.0,57.0,62.0,62.0,square3,r,0.494,2,S,7.0
S7,1.0,74.0,67.0,66.0,59.0,59.0,121.0,square4,f,0.226,3,S,7.0
S7,2.0,68.0,69.0,65.0,60.0,68.0,189.0,square1,i,0.14,0,S,7.0
S7,3.0,74.0,68.0,65.0,63.0,68.0,257.0,square2,j,0.26,1,S,7.0
S7,4.0,68.0,74.0,67.0,63.0,68.0,325.0,square1,i,0.083,0,S,7.0
S7,5.0,68.0,67.0,61.0,57.0,67.0,392.0,square2,j,0.029,1,S,7.0
S7,6.0,72.0,64.0,65.0,51.0,72.0,464.0,square1,i,0.007,0,S,7.0
S7,7.0,69.0,63.0,69.0,63.0,63.0,527.0,square2,j,0.008,1,S,7.0
S7,8.0,71.0,68.0,63.0,54.0,71.0,598.0,square1,i,0.001,0,S,7.0
S7,9.0,81.0,66.0,68.0,62.0,68.0,666.0,square3,r,0.071,2,S,7.0
S7,10.0,72.0,73.0,68.0,61.0,61.0,727.0,square4,f,0.173,3,S,7.0
S7,11.0,72.0,72.0,62.0,58.0,62.0,789.0,square3,r,0.109,2,S,7.0
S7,12.0,66.0,66.0,62.0,61.0,66.0,855.0,square1,i,0.07,0,S,7.0
S7,13.0,73.0,75.0,75.0,68.0,73.0,928.0,square1,i,0.112,0,S,7.0
S7,14.0,71.0,73.0,72.0,66.0,71.0,999.0,square1,i,0.11,0,S,7.0
S7,15.0,75.0,68.0,68.0,65.0,75.0,1074.0,square1,i,0.001,0,S,7.0
S7,16.0,67.0,65.0,62.0,56.0,67.0,1141.0,square1,i,0.083,0,S,7.0
S7,17.0,72.0,67.0,63.0,64.0,72.0,1213.0,square1,i,0.063,0,S,7.0
S7,18.0,73.0,69.0,66.0,65.0,73.0,1286.0,square1,i,0.104,0,S,7.0
S7,19.0,75.0,70.0,62.0,58.0,75.0,1361.0,square1,i,0.155,0,S,7.0
S7,20.0,76.0,63.0,67.0,62.0,76.0,1437.0,square1,i,0.001,0,S,7.0
S7,21.0,79.0,76.0,63.0,64.0,79.0,1516.0,square1,i,0.066,0,S,7.0
S7,22.0,67.0,72.0,63.0,62.0,67.0,1583.0,square1,i,0.001,0,S,7.0
S7,23.0,69.0,71.0,70.0,62.0,69.0,1652.0,square1,i,0.008,0,S,7.0
S7,24.0,74.0,67.0,70.0,62.0,74.0,1726.0,square1,i,0.002,0,S,7.0
S7,25.0,70.0,67.0,72.0,62.0,70.0,1796.0,square1,i,0.026,0,S,7.0
S7,26.0,72.0,62.0,74.0,65.0,72.0,1868.0,square1,i,0.001,0,S,7.0
S7,27.0,69.0,70.0,68.0,62.0,69.0,1937.0,square1,i,0.083,0,S,7.0
S7,28.0,65.0,66.0,60.0,62.0,65.0,2002.0,square1,i,0.051,0,S,7.0
S7,29.0,70.0,64.0,60.0,68.0,70.0,2072.0,square1,i,0.068,0,S,7.0
S7,30.0,69.0,69.0,64.0,57.0,69.0,2141.0,square1,i,0.072,0,S,7.0
S7,31.0,77.0,67.0,65.0,60.0,77.0,2218.0,square1,i,0.053,0,S,7.0
S7,32.0,67.0,75.0,65.0,58.0,67.0,2285.0,square1,i,0.087,0,S,7.0
S7,33.0,74.0,66.0,66.0,60.0,74.0,2359.0,square1,i,0.031,0,S,7.0
S7,34.0,72.0,72.0,66.0,61.0,72.0,2431.0,square1,i,0.008,0,S,7.0
S7,35.0,67.0,68.0,64.0,62.0,67.0,2498.0,square1,i,0.008,0,S,7.0
S7,36.0,64.0,63.0,70.0,58.0,64.0,2562.0,square1,i,0.065,0,S,7.0
S7,37.0,80.0,72.0,64.0,53.0,80.0,2642.0,square1,i,0.055,0,S,7.0
S7,38.0,78.0,69.0,76.0,67.0,78.0,2720.0,square1,i,0.071,0,S,7.0
S7,39.0,69.0,66.0,60.0,67.0,69.0,2789.0,square1,i,0.055,0,S,7.0
S7,40.0,72.0,71.0,63.0,66.0,72.0,2861.0,square1,i,0.051,0,S,7.0
S7,41.0,80.0,73.0,65.0,63.0,80.0,2941.0,square1,i,0.055,0,S,7.0
S7,42.0,77.0,60.0,65.0,59.0,77.0,3018.0,square1,i,0.033,0,S,7.0
S7,43.0,70.0,72.0,70.0,63.0,70.0,3088.0,square1,i,0.05,0,S,7.0
S7,44.0,77.0,70.0,66.0,58.0,77.0,3165.0,square1,i,0.035,0,S,7.0
S7,45.0,75.0,69.0,73.0,58.0,75.0,3240.0,square1,i,0.049,0,S,7.0
S7,46.0,74.0,71.0,63.0,63.0,74.0,3314.0,square1,i,0.001,0,S,7.0
S7,47.0,73.0,75.0,71.0,64.0,73.0,3387.0,square1,i,0.001,0,S,7.0
S7,48.0,78.0,79.0,64.0,58.0,78.0,3465.0,square1,i,0.001,0,S,7.0
S7,49.0,75.0,72.0,66.0,72.0,75.0,3540.0,square1,i,0.038,0,S,7.0
S11,0.0,49.0,53.0,49.0,45.0,49.0,49.0,square3,j,1.936,2,S,11.0
S11,1.0,54.0,56.0,42.0,50.0,56.0,105.0,square2,i,0.084,1,S,11.0
S11,2.0,39.0,51.0,39.0,43.0,43.0,148.0,square4,r,0.278,3,S,11.0
S11,3.0,53.0,50.0,38.0,43.0,53.0,201.0,square1,f,0.175,0,S,11.0
S11,4.0,47.0,54.0,39.0,48.0,54.0,255.0,square2,i,0.043,1,S,11.0
S11,5.0,47.0,52.0,40.0,46.0,47.0,302.0,square1,f,0.145,0,S,11.0
S11,6.0,47.0,46.0,44.0,54.0,46.0,348.0,square2,i,0.022,1,S,11.0
S11,7.0,48.0,51.0,35.0,51.0,48.0,396.0,square1,f,0.182,0,S,11.0
S11,8.0,52.0,49.0,36.0,43.0,49.0,445.0,square2,i,0.079,1,S,11.0
S11,9.0,47.0,53.0,41.0,55.0,47.0,492.0,square1,f,0.118,0,S,11.0
S11,10.0,44.0,48.0,41.0,43.0,48.0,540.0,square2,i,0.073,1,S,11.0
S11,11.0,41.0,54.0,38.0,43.0,38.0,578.0,square3,j,0.056,2,S,11.0
S11,12.0,45.0,54.0,44.0,45.0,45.0,623.0,square4,r,0.112,3,S,11.0
S11,13.0,54.0,52.0,44.0,50.0,52.0,675.0,square2,i,0.071,1,S,11.0
S11,14.0,57.0,58.0,36.0,45.0,57.0,732.0,square1,f,0.105,0,S,11.0
S11,15.0,48.0,54.0,43.0,49.0,49.0,781.0,square4,r,0.049,3,S,11.0
S11,16.0,58.0,47.0,42.0,46.0,47.0,828.0,square2,i,0.037,1,S,11.0
S11,17.0,41.0,61.0,42.0,53.0,41.0,869.0,square1,f,0.011,0,S,11.0
S11,18.0,51.0,58.0,33.0,39.0,39.0,908.0,square4,r,0.064,3,S,11.0
S11,19.0,48.0,49.0,37.0,42.0,49.0,957.0,square2,i,0.142,1,S,11.0
S11,20.0,52.0,52.0,45.0,46.0,52.0,1009.0,square1,f,0.196,0,S,11.0
S11,21.0,47.0,53.0,44.0,51.0,53.0,1062.0,square2,i,0.007,1,S,11.0
S11,22.0,49.0,54.0,37.0,41.0,49.0,1111.0,square1,f,0.032,0,S,11.0
S11,23.0,52.0,54.0,41.0,45.0,54.0,1165.0,square2,i,0.098,1,S,11.0
S11,24.0,42.0,56.0,41.0,45.0,56.0,1221.0,square2,i,0.097,1,S,11.0
S11,25.0,52.0,56.0,42.0,44.0,56.0,1277.0,square2,i,0.02,1,S,11.0
S11,26.0,43.0,56.0,41.0,45.0,56.0,1333.0,square2,i,0.062,1,S,11.0
S11,27.0,48.0,50.0,40.0,43.0,50.0,1383.0,square2,i,0.144,1,S,11.0
S11,28.0,46.0,49.0,38.0,48.0,49.0,1432.0,square2,i,0.129,1,S,11.0
S11,29.0,46.0,55.0,40.0,42.0,55.0,1487.0,square2,i,0.116,1,S,11.0
S11,30.0,46.0,56.0,43.0,37.0,56.0,1543.0,square2,i,0.217,1,S,11.0
S11,31.0,42.0,49.0,44.0,42.0,42.0,1585.0,square1,f,0.001,0,S,11.0
S11,32.0,51.0,52.0,36.0,40.0,52.0,1637.0,square2,i,0.105,1,S,11.0
S11,33.0,44.0,53.0,39.0,43.0,53.0,1690.0,square2,i,0.026,1,S,11.0
S11,34.0,52.0,52.0,43.0,49.0,52.0,1742.0,square2,i,0.056,1,S,11.0
S11,35.0,53.0,51.0,38.0,45.0,51.0,1793.0,square2,i,0.084,1,S,11.0
S11,36.0,50.0,44.0,42.0,48.0,44.0,1837.0,square2,i,0.124,1,S,11.0
S11,37.0,49.0,51.0,40.0,48.0,51.0,1888.0,square2,i,0.045,1,S,11.0
S11,38.0,47.0,47.0,39.0,38.0,47.0,1935.0,square2,i,0.086,1,S,11.0
S11,39.0,51.0,55.0,40.0,42.0,55.0,1990.0,square2,i,0.138,1,S,11.0
S11,40.0,50.0,52.0,41.0,44.0,52.0,2042.0,square2,i,0.185,1,S,11.0
S11,41.0,47.0,50.0,46.0,50.0,50.0,2092.0,square2,i,0.005,1,S,11.0
S11,42.0,52.0,48.0,41.0,47.0,48.0,2140.0,square2,i,0.022,1,S,11.0
S11,43.0,50.0,56.0,34.0,42.0,56.0,2196.0,square2,i,0.049,1,S,11.0
S11,44.0,42.0,48.0,37.0,49.0,48.0,2244.0,square2,i,0.113,1,S,11.0
S11,45.0,47.0,47.0,41.0,40.0,47.0,2291.0,square2,i,0.078,1,S,11.0
S11,46.0,50.0,56.0,40.0,44.0,56.0,2347.0,square2,i,0.001,1,S,11.0
S11,47.0,46.0,48.0,38.0,47.0,48.0,2395.0,square2,i,0.007,1,S,11.0
S11,48.0,45.0,54.0,44.0,41.0,44.0,2439.0,square3,j,0.112,2,S,11.0
S11,49.0,44.0,53.0,41.0,41.0,44.0,2483.0,square1,f,0.176,0,S,11.0
V5,0.0,46.0,21.0,37.0,28.0,28.0,28.0,square4,j,0.757,3,V,5.0
V5,1.0,43.0,27.0,36.0,31.0,36.0,64.0,square3,f,0.138,2,V,5.0
V5,2.0,50.0,18.0,43.0,32.0,18.0,82.0,square2,r,0.132,1,V,5.0
V5,3.0,53.0,23.0,36.0,34.0,53.0,135.0,square1,i,0.179,0,V,5.0
V5,4.0,52.0,19.0,38.0,34.0,38.0,173.0,square3,f,0.158,2,V,5.0
V5,5.0,50.0,22.0,41.0,29.0,50.0,223.0,square1,i,0.001,0,V,5.0
V5,6.0,52.0,19.0,40.0,33.0,52.0,275.0,square1,i,0.118,0,V,5.0
V5,7.0,48.0,24.0,36.0,27.0,48.0,323.0,square1,i,0.09,0,V,5.0
V5,8.0,50.0,24.0,35.0,33.0,50.0,373.0,square1,i,0.167,0,V,5.0
V5,9.0,48.0,25.0,39.0,34.0,48.0,421.0,square1,i,0.0,0,V,5.0
V5,10.0,52.0,19.0,32.0,34.0,52.0,473.0,square1,i,0.094,0,V,5.0
V5,11.0,48.0,22.0,32.0,32.0,48.0,521.0,square1,i,0.112,0,V,5.0
V5,12.0,47.0,17.0,43.0,29.0,47.0,568.0,square1,i,0.115,0,V,5.0
V5,13.0,46.0,21.0,42.0,29.0,29.0,597.0,square4,j,0.114,3,V,5.0
V5,14.0,47.0,28.0,42.0,28.0,28.0,625.0,square2,r,0.054,1,V,5.0
V5,15.0,50.0,29.0,38.0,36.0,38.0,663.0,square3,f,0.019,2,V,5.0
V5,16.0,49.0,24.0,36.0,34.0,49.0,712.0,square1,i,0.142,0,V,5.0
V5,17.0,50.0,20.0,38.0,35.0,50.0,762.0,square1,i,0.137,0,V,5.0
V5,18.0,49.0,22.0,46.0,29.0,49.0,811.0,square1,i,0.075,0,V,5.0
V5,19.0,46.0,23.0,40.0,31.0,46.0,857.0,square1,i,0.09,0,V,5.0
V5,20.0,51.0,22.0,41.0,28.0,51.0,908.0,square1,i,0.154,0,V,5.0
V5,21.0,51.0,26.0,36.0,31.0,51.0,959.0,square1,i,0.119,0,V,5.0
V5,22.0,47.0,18.0,41.0,28.0,41.0,1000.0,square3,f,0.215,2,V,5.0
V5,23.0,52.0,20.0,36.0,29.0,52.0,1052.0,square1,i,0.097,0,V,5.0
V5,24.0,51.0,21.0,41.0,34.0,51.0,1103.0,square1,i,0.173,0,V,5.0
V5,25.0,50.0,20.0,41.0,27.0,50.0,1153.0,square1,i,0.108,0,V,5.0
V5,26.0,49.0,29.0,37.0,28.0,49.0,1202.0,square1,i,0.007,0,V,5.0
V5,27.0,10.0,13.0,42.0,32.0,10.0,1212.0,square1,i,0.047,0,V,5.0
V5,28.0,9.0,19.0,40.0,27.0,40.0,1252.0,square3,f,0.157,2,V,5.0
V5,29.0,17.0,17.0,38.0,29.0,17.0,1269.0,square2,r,0.089,1,V,5.0
V5,30.0,8.0,18.0,36.0,29.0,29.0,1298.0,square4,j,0.083,3,V,5.0
V5,31.0,16.0,24.0,34.0,29.0,34.0,1332.0,square3,f,0.019,2,V,5.0
V5,32.0,9.0,17.0,35.0,31.0,35.0,1367.0,square3,f,0.056,2,V,5.0
V5,33.0,11.0,19.0,36.0,28.0,36.0,1403.0,square3,f,0.008,2,V,5.0
V5,34.0,10.0,19.0,38.0,28.0,10.0,1413.0,square1,i,0.033,0,V,5.0
V5,35.0,5.0,23.0,40.0,34.0,40.0,1453.0,square3,f,0.029,2,V,5.0
V5,36.0,17.0,20.0,36.0,31.0,36.0,1489.0,square3,f,0.101,2,V,5.0
V5,37.0,12.0,13.0,36.0,30.0,36.0,1525.0,square3,f,0.098,2,V,5.0
V5,38.0,14.0,24.0,35.0,27.0,35.0,1560.0,square3,f,0.141,2,V,5.0
V5,39.0,13.0,20.0,39.0,32.0,39.0,1599.0,square3,f,0.158,2,V,5.0
V5,40.0,9.0,15.0,37.0,24.0,37.0,1636.0,square3,f,0.21,2,V,5.0
V5,41.0,9.0,14.0,38.0,31.0,38.0,1674.0,square3,f,0.162,2,V,5.0
V5,42.0,14.0,17.0,43.0,31.0,43.0,1717.0,square3,f,0.228,2,V,5.0
V5,43.0,10.0,18.0,39.0,23.0,39.0,1756.0,square3,f,0.098,2,V,5.0
V5,44.0,10.0,20.0,33.0,32.0,32.0,1788.0,square4,j,0.035,3,V,5.0
V5,45.0,16.0,17.0,37.0,29.0,17.0,1805.0,square2,r,0.166,1,V,5.0
V5,46.0,9.0,22.0,37.0,25.0,37.0,1842.0,square3,f,0.026,2,V,5.0
V5,47.0,10.0,22.0,35.0,26.0,35.0,1877.0,square3,f,0.055,2,V,5.0
V5,48.0,11.0,16.0,39.0,23.0,39.0,1916.0,square3,f,0.024,2,V,5.0
V5,49.0,13.0,16.0,33.0,27.0,27.0,1943.0,square4,j,0.198,3,V,5.0
V5,50.0,12.0,16.0,39.0,24.0,39.0,1982.0,square3,f,0.084,2,V,5.0
V5,51.0,10.0,21.0,43.0,28.0,43.0,2025.0,square3,f,0.173,2,V,5.0
V5,52.0,8.0,15.0,36.0,28.0,36.0,2061.0,square3,f,0.172,2,V,5.0
V5,53.0,38.0,20.0,31.0,54.0,31.0,2092.0,square3,f,0.027,2,V,5.0
V5,54.0,39.0,20.0,35.0,51.0,35.0,2127.0,square3,f,0.135,2,V,5.0
V5,55.0,41.0,21.0,27.0,50.0,27.0,2154.0,square3,f,0.206,2,V,5.0
V5,56.0,39.0,23.0,28.0,49.0,28.0,2182.0,square3,f,0.828,2,V,5.0
V5,57.0,36.0,28.0,29.0,59.0,59.0,2241.0,square4,j,0.208,3,V,5.0
V5,58.0,38.0,22.0,28.0,49.0,49.0,2290.0,square4,j,0.183,3,V,5.0
V5,59.0,44.0,23.0,30.0,51.0,51.0,2341.0,square4,j,0.001,3,V,5.0
V5,60.0,43.0,21.0,31.0,48.0,48.0,2389.0,square4,j,0.028,3,V,5.0
V5,61.0,39.0,24.0,35.0,50.0,50.0,2439.0,square4,j,0.025,3,V,5.0
V5,62.0,38.0,25.0,31.0,52.0,52.0,2491.0,square4,j,0.02,3,V,5.0
V5,63.0,41.0,14.0,31.0,52.0,52.0,2543.0,square4,j,0.059,3,V,5.0
V5,64.0,43.0,23.0,30.0,51.0,51.0,2594.0,square4,j,0.054,3,V,5.0
V5,65.0,41.0,23.0,35.0,52.0,52.0,2646.0,square4,j,0.006,3,V,5.0
V5,66.0,41.0,17.0,33.0,47.0,47.0,2693.0,square4,j,0.001,3,V,5.0
V5,67.0,44.0,23.0,32.0,49.0,49.0,2742.0,square4,j,0.052,3,V,5.0
V5,68.0,44.0,24.0,31.0,44.0,44.0,2786.0,square1,i,0.05,0,V,5.0
V5,69.0,43.0,28.0,27.0,48.0,48.0,2834.0,square4,j,0.001,3,V,5.0
V5,70.0,38.0,22.0,26.0,50.0,26.0,2860.0,square3,f,0.008,2,V,5.0
V5,71.0,41.0,29.0,26.0,53.0,29.0,2889.0,square2,r,0.195,1,V,5.0
V5,72.0,40.0,20.0,28.0,51.0,51.0,2940.0,square4,j,0.086,3,V,5.0
V5,73.0,59.0,44.0,51.0,35.0,59.0,2999.0,square1,i,0.165,0,V,5.0
V5,74.0,60.0,38.0,55.0,43.0,43.0,3042.0,square4,j,0.154,3,V,5.0
V5,75.0,63.0,45.0,50.0,37.0,63.0,3105.0,square1,i,0.137,0,V,5.0
V5,76.0,62.0,42.0,50.0,37.0,62.0,3167.0,square1,i,0.183,0,V,5.0
V5,77.0,57.0,37.0,52.0,35.0,57.0,3224.0,square1,i,0.129,0,V,5.0
V5,78.0,66.0,45.0,54.0,37.0,66.0,3290.0,square1,i,0.15,0,V,5.0
V5,79.0,64.0,37.0,48.0,35.0,64.0,3354.0,square1,i,0.135,0,V,5.0
V5,80.0,63.0,40.0,56.0,38.0,63.0,3417.0,square1,i,0.305,0,V,5.0
V5,81.0,62.0,41.0,54.0,32.0,62.0,3479.0,square1,i,0.137,0,V,5.0
V5,82.0,58.0,41.0,59.0,39.0,58.0,3537.0,square1,i,0.138,0,V,5.0
V5,83.0,66.0,46.0,54.0,35.0,66.0,3603.0,square1,i,0.152,0,V,5.0
V5,84.0,67.0,44.0,52.0,33.0,67.0,3670.0,square1,i,0.18,0,V,5.0
V5,85.0,67.0,45.0,46.0,36.0,67.0,3737.0,square1,i,0.17,0,V,5.0
V5,86.0,65.0,44.0,51.0,38.0,38.0,3775.0,square4,j,0.039,3,V,5.0
V5,87.0,64.0,49.0,48.0,35.0,48.0,3823.0,square3,f,0.001,2,V,5.0
V5,88.0,68.0,47.0,56.0,36.0,47.0,3870.0,square2,r,0.294,1,V,5.0
V5,89.0,60.0,42.0,57.0,32.0,60.0,3930.0,square1,i,0.099,0,V,5.0
V5,90.0,59.0,43.0,53.0,34.0,59.0,3989.0,square1,i,0.13,0,V,5.0
V5,91.0,64.0,43.0,51.0,34.0,64.0,4053.0,square1,i,0.15,0,V,5.0
V5,92.0,65.0,41.0,57.0,38.0,65.0,4118.0,square1,i,0.133,0,V,5.0
V5,93.0,59.0,48.0,54.0,40.0,59.0,4177.0,square1,i,0.152,0,V,5.0
V5,94.0,66.0,44.0,53.0,43.0,66.0,4243.0,square1,i,0.182,0,V,5.0
V5,95.0,63.0,43.0,50.0,40.0,63.0,4306.0,square1,i,0.155,0,V,5.0
V5,96.0,62.0,44.0,50.0,33.0,62.0,4368.0,square1,i,0.02,0,V,5.0
V5,97.0,64.0,49.0,55.0,37.0,64.0,4432.0,square1,i,0.006,0,V,5.0
V5,98.0,65.0,44.0,53.0,36.0,65.0,4497.0,square1,i,0.154,0,V,5.0
V5,99.0,65.0,42.0,55.0,35.0,65.0,4562.0,square1,i,0.088,0,V,5.0
V11,0.0,42.0,67.0,57.0,49.0,49.0,49.0,square4,i,0.383,3,V,11.0
V11,1.0,42.0,71.0,60.0,53.0,42.0,91.0,square1,r,0.099,0,V,11.0
V11,2.0,45.0,76.0,58.0,51.0,58.0,149.0,square3,j,0.008,2,V,11.0
V11,3.0,44.0,65.0,60.0,49.0,65.0,214.0,square2,f,0.03,1,V,11.0
V11,4.0,46.0,73.0,64.0,51.0,51.0,265.0,square4,i,0.026,3,V,11.0
V11,5.0,47.0,67.0,58.0,54.0,58.0,323.0,square3,j,0.002,2,V,11.0
V11,6.0,43.0,68.0,58.0,50.0,68.0,391.0,square2,f,0.01,1,V,11.0
V11,7.0,42.0,67.0,60.0,58.0,67.0,458.0,square2,f,0.08,1,V,11.0
V11,8.0,44.0,67.0,60.0,53.0,67.0,525.0,square2,f,0.01,1,V,11.0
V11,9.0,44.0,67.0,59.0,54.0,67.0,592.0,square2,f,0.084,1,V,11.0
V11,10.0,49.0,76.0,57.0,52.0,76.0,668.0,square2,f,0.01,1,V,11.0
V11,11.0,45.0,71.0,58.0,51.0,71.0,739.0,square2,f,0.073,1,V,11.0
V11,12.0,45.0,72.0,58.0,56.0,72.0,811.0,square2,f,0.065,1,V,11.0
V11,13.0,49.0,67.0,63.0,54.0,67.0,878.0,square2,f,0.112,1,V,11.0
V11,14.0,50.0,75.0,57.0,48.0,75.0,953.0,square2,f,0.163,1,V,11.0
V11,15.0,40.0,71.0,61.0,51.0,71.0,1024.0,square2,f,0.121,1,V,11.0
V11,16.0,47.0,72.0,56.0,54.0,72.0,1096.0,square2,f,0.144,1,V,11.0
V11,17.0,40.0,71.0,61.0,46.0,71.0,1167.0,square2,f,0.18,1,V,11.0
V11,18.0,44.0,69.0,59.0,51.0,69.0,1236.0,square2,f,0.185,1,V,11.0
V11,19.0,44.0,73.0,59.0,47.0,73.0,1309.0,square2,f,0.028,1,V,11.0
V11,20.0,47.0,69.0,64.0,54.0,54.0,1363.0,square4,i,0.01,3,V,11.0
V11,21.0,78.0,49.0,70.0,65.0,70.0,1433.0,square3,j,0.134,2,V,11.0
V11,22.0,78.0,56.0,73.0,62.0,78.0,1511.0,square1,r,0.212,0,V,11.0
V11,23.0,84.0,54.0,71.0,65.0,84.0,1595.0,square1,r,0.073,0,V,11.0
V11,24.0,80.0,55.0,72.0,67.0,80.0,1675.0,square1,r,0.13,0,V,11.0
V11,25.0,80.0,55.0,75.0,63.0,80.0,1755.0,square1,r,0.079,0,V,11.0
V11,26.0,80.0,56.0,67.0,62.0,56.0,1811.0,square2,f,0.121,1,V,11.0
V11,27.0,80.0,51.0,68.0,62.0,80.0,1891.0,square1,r,0.119,0,V,11.0
V11,28.0,79.0,57.0,67.0,57.0,79.0,1970.0,square1,r,0.149,0,V,11.0
V11,29.0,79.0,50.0,67.0,62.0,79.0,2049.0,square1,r,0.12,0,V,11.0
V11,30.0,88.0,54.0,74.0,61.0,74.0,2123.0,square3,j,0.037,2,V,11.0
V11,31.0,81.0,51.0,75.0,63.0,81.0,2204.0,square1,r,0.184,0,V,11.0
V11,32.0,76.0,51.0,69.0,65.0,69.0,2273.0,square3,j,0.056,2,V,11.0
V11,33.0,78.0,54.0,72.0,64.0,78.0,2351.0,square1,r,0.044,0,V,11.0
V11,34.0,77.0,53.0,71.0,62.0,77.0,2428.0,square1,r,0.094,0,V,11.0
V11,35.0,74.0,59.0,75.0,62.0,74.0,2502.0,square1,r,0.2,0,V,11.0
V11,36.0,79.0,50.0,72.0,62.0,79.0,2581.0,square1,r,0.17,0,V,11.0
V11,37.0,74.0,54.0,68.0,62.0,74.0,2655.0,square1,r,0.2,0,V,11.0
V11,38.0,80.0,57.0,65.0,58.0,80.0,2735.0,square1,r,0.15,0,V,11.0
V11,39.0,73.0,52.0,75.0,66.0,73.0,2808.0,square1,r,0.237,0,V,11.0
V11,40.0,82.0,57.0,71.0,57.0,82.0,2890.0,square1,r,0.0,0,V,11.0
V11,41.0,78.0,53.0,73.0,64.0,64.0,2954.0,square4,i,0.166,3,V,11.0
V11,42.0,72.0,56.0,67.0,59.0,67.0,3021.0,square3,j,0.01,2,V,11.0
V11,43.0,81.0,54.0,73.0,63.0,54.0,3075.0,square2,f,0.12,1,V,11.0
V11,44.0,76.0,54.0,75.0,59.0,76.0,3151.0,square1,r,0.117,0,V,11.0
V11,45.0,79.0,59.0,71.0,64.0,79.0,3230.0,square1,r,0.104,0,V,11.0
V11,46.0,80.0,55.0,67.0,57.0,80.0,3310.0,square1,r,0.084,0,V,11.0
V11,47.0,84.0,53.0,75.0,56.0,84.0,3394.0,square1,r,0.185,0,V,11.0
V11,48.0,83.0,57.0,71.0,60.0,83.0,3477.0,square1,r,0.008,0,V,11.0
V11,49.0,79.0,52.0,71.0,60.0,79.0,3556.0,square1,r,0.194,0,V,11.0
V11,50.0,76.0,50.0,69.0,60.0,76.0,3632.0,square1,r,0.0,0,V,11.0
V11,51.0,79.0,54.0,72.0,57.0,79.0,3711.0,square1,r,0.2,0,V,11.0
V11,52.0,80.0,54.0,72.0,64.0,80.0,3791.0,square1,r,0.01,0,V,11.0
V11,53.0,35.0,50.0,55.0,69.0,35.0,3826.0,square1,r,0.001,0,V,11.0
V11,54.0,45.0,48.0,55.0,73.0,73.0,3899.0,square4,i,0.067,3,V,11.0
V11,55.0,43.0,53.0,58.0,70.0,58.0,3957.0,square3,j,0.139,2,V,11.0
V11,56.0,40.0,46.0,60.0,62.0,46.0,4003.0,square2,f,0.01,1,V,11.0
V11,57.0,44.0,46.0,53.0,71.0,71.0,4074.0,square4,i,0.009,3,V,11.0
V11,58.0,44.0,52.0,55.0,68.0,68.0,4142.0,square4,i,0.12,3,V,11.0
V11,59.0,44.0,44.0,57.0,66.0,66.0,4208.0,square4,i,0.019,3,V,11.0
V11,60.0,40.0,46.0,57.0,62.0,62.0,4270.0,square4,i,0.045,3,V,11.0
V11,61.0,42.0,52.0,58.0,62.0,62.0,4332.0,square4,i,0.0,3,V,11.0
V11,62.0,40.0,49.0,56.0,71.0,71.0,4403.0,square4,i,0.841,3,V,11.0
V11,63.0,40.0,54.0,60.0,66.0,66.0,4469.0,square4,i,0.043,3,V,11.0
V11,64.0,41.0,43.0,51.0,66.0,66.0,4535.0,square4,i,0.001,3,V,11.0
V11,65.0,39.0,48.0,59.0,66.0,66.0,4601.0,square4,i,1.443,3,V,11.0
V11,66.0,40.0,48.0,59.0,69.0,69.0,4670.0,square4,i,0.037,3,V,11.0
V11,67.0,46.0,45.0,58.0,69.0,69.0,4739.0,square4,i,0.12,3,V,11.0
V11,68.0,41.0,50.0,56.0,69.0,69.0,4808.0,square4,i,0.148,3,V,11.0
V11,69.0,48.0,49.0,57.0,71.0,71.0,4879.0,square4,i,0.001,3,V,11.0
V11,70.0,41.0,47.0,58.0,65.0,65.0,4944.0,square4,i,0.001,3,V,11.0
V11,71.0,37.0,46.0,58.0,60.0,58.0,5002.0,square3,j,0.12,2,V,11.0
V11,72.0,41.0,47.0,54.0,65.0,47.0,5049.0,square2,f,0.026,1,V,11.0
V11,73.0,42.0,47.0,60.0,67.0,42.0,5091.0,square1,r,0.13,0,V,11.0
V11,74.0,43.0,49.0,57.0,64.0,64.0,5155.0,square4,i,0.036,3,V,11.0
V11,75.0,38.0,46.0,57.0,66.0,66.0,5221.0,square4,i,0.181,3,V,11.0
V11,76.0,42.0,50.0,58.0,68.0,68.0,5289.0,square4,i,0.046,3,V,11.0
V11,77.0,36.0,49.0,58.0,64.0,58.0,5347.0,square3,j,0.088,2,V,11.0
V11,78.0,40.0,50.0,56.0,67.0,50.0,5397.0,square2,f,0.071,1,V,11.0
V11,79.0,39.0,48.0,56.0,67.0,39.0,5436.0,square1,r,0.096,0,V,11.0
V11,80.0,51.0,33.0,30.0,45.0,45.0,5481.0,square4,i,0.09,3,V,11.0
V11,81.0,49.0,31.0,23.0,48.0,48.0,5529.0,square4,i,0.146,3,V,11.0
V11,82.0,55.0,30.0,25.0,42.0,25.0,5554.0,square3,j,0.025,2,V,11.0
V11,83.0,50.0,33.0,27.0,48.0,33.0,5587.0,square2,f,0.046,1,V,11.0
V11,84.0,52.0,34.0,25.0,43.0,52.0,5639.0,square1,r,0.002,0,V,11.0
V11,85.0,49.0,28.0,28.0,44.0,28.0,5667.0,square3,j,0.055,2,V,11.0
V11,86.0,57.0,29.0,27.0,48.0,57.0,5724.0,square1,r,0.118,0,V,11.0
V11,87.0,49.0,29.0,21.0,38.0,38.0,5762.0,square4,i,0.14,3,V,11.0
V11,88.0,55.0,32.0,29.0,46.0,55.0,5817.0,square1,r,0.167,0,V,11.0
V11,89.0,50.0,28.0,23.0,43.0,50.0,5867.0,square1,r,0.123,0,V,11.0
V11,90.0,54.0,34.0,32.0,41.0,54.0,5921.0,square1,r,0.32,0,V,11.0
V11,91.0,50.0,34.0,26.0,44.0,50.0,5971.0,square1,r,0.098,0,V,11.0
V11,92.0,51.0,31.0,27.0,50.0,51.0,6022.0,square1,r,0.138,0,V,11.0
V11,93.0,49.0,38.0,28.0,42.0,42.0,6064.0,square4,i,0.035,3,V,11.0
V11,94.0,50.0,29.0,25.0,46.0,29.0,6093.0,square2,f,0.047,1,V,11.0
V11,95.0,51.0,36.0,22.0,40.0,51.0,6144.0,square1,r,0.001,0,V,11.0
V11,96.0,52.0,34.0,32.0,45.0,52.0,6196.0,square1,r,0.057,0,V,11.0
V11,97.0,53.0,27.0,32.0,44.0,53.0,6249.0,square1,r,0.052,0,V,11.0
V11,98.0,60.0,31.0,25.0,48.0,60.0,6309.0,square1,r,0.047,0,V,11.0
V11,99.0,53.0,33.0,23.0,42.0,53.0,6362.0,square1,r,0.117,0,V,11.0
V12,0.0,47.0,30.0,38.0,55.0,38.0,38.0,square3,i,0.376,2,V,12.0
V12,1.0,46.0,33.0,39.0,57.0,46.0,84.0,square1,j,0.036,0,V,12.0
V12,2.0,51.0,29.0,42.0,52.0,52.0,136.0,square4,f,0.146,3,V,12.0
V12,3.0,52.0,30.0,38.0,62.0,30.0,166.0,square2,r,0.113,1,V,12.0
V12,4.0,48.0,30.0,39.0,62.0,62.0,228.0,square4,f,0.205,3,V,12.0
V12,5.0,55.0,34.0,43.0,61.0,61.0,289.0,square4,f,0.068,3,V,12.0
V12,6.0,45.0,35.0,42.0,56.0,56.0,345.0,square4,f,0.178,3,V,12.0
V12,7.0,48.0,29.0,35.0,57.0,57.0,402.0,square4,f,0.2,3,V,12.0
V12,8.0,46.0,33.0,38.0,59.0,59.0,461.0,square4,f,0.135,3,V,12.0
V12,9.0,44.0,31.0,42.0,56.0,56.0,517.0,square4,f,0.126,3,V,12.0
V12,10.0,48.0,34.0,45.0,55.0,55.0,572.0,square4,f,0.001,3,V,12.0
V12,11.0,45.0,32.0,41.0,55.0,45.0,617.0,square1,j,0.185,0,V,12.0
V12,12.0,52.0,26.0,42.0,57.0,42.0,659.0,square3,i,0.012,2,V,12.0
V12,13.0,56.0,31.0,41.0,54.0,31.0,690.0,square2,r,0.132,1,V,12.0
V12,14.0,44.0,34.0,40.0,64.0,64.0,754.0,square4,f,0.066,3,V,12.0
V12,15.0,48.0,32.0,39.0,61.0,61.0,815.0,square4,f,0.061,3,V,12.0
V12,16.0,49.0,33.0,37.0,58.0,49.0,864.0,square1,j,0.192,0,V,12.0
V12,17.0,45.0,33.0,43.0,57.0,57.0,921.0,square4,f,0.085,3,V,12.0
V12,18.0,45.0,28.0,40.0,58.0,58.0,979.0,square4,f,0.142,3,V,12.0
V12,19.0,42.0,33.0,43.0,59.0,59.0,1038.0,square4,f,0.174,3,V,12.0
V12,20.0,46.0,30.0,38.0,62.0,30.0,1068.0,square2,r,0.178,1,V,12.0
V12,21.0,46.0,35.0,40.0,55.0,40.0,1108.0,square3,i,0.148,2,V,12.0
V12,22.0,46.0,34.0,36.0,63.0,46.0,1154.0,square1,j,0.042,0,V,12.0
V12,23.0,54.0,34.0,42.0,56.0,56.0,1210.0,square4,f,0.076,3,V,12.0
V12,24.0,44.0,30.0,41.0,59.0,59.0,1269.0,square4,f,0.047,3,V,12.0
V12,25.0,49.0,33.0,37.0,64.0,64.0,1333.0,square4,f,0.067,3,V,12.0
V12,26.0,52.0,34.0,39.0,57.0,57.0,1390.0,square4,f,0.001,3,V,12.0
V12,27.0,50.0,26.0,37.0,55.0,55.0,1445.0,square4,f,0.11,3,V,12.0
V12,28.0,41.0,29.0,46.0,21.0,21.0,1466.0,square4,f,0.152,3,V,12.0
V12,29.0,41.0,28.0,51.0,20.0,20.0,1486.0,square4,f,0.076,3,V,12.0
V12,30.0,32.0,31.0,46.0,22.0,31.0,1517.0,square2,r,0.114,1,V,12.0
V12,31.0,38.0,28.0,45.0,22.0,45.0,1562.0,square3,i,0.012,2,V,12.0
V12,32.0,35.0,27.0,44.0,16.0,35.0,1597.0,square1,j,0.001,0,V,12.0
V12,33.0,39.0,29.0,49.0,21.0,49.0,1646.0,square3,i,0.061,2,V,12.0
V12,34.0,39.0,28.0,49.0,15.0,39.0,1685.0,square1,j,0.002,0,V,12.0
V12,35.0,36.0,29.0,50.0,17.0,50.0,1735.0,square3,i,0.117,2,V,12.0
V12,36.0,41.0,28.0,48.0,12.0,48.0,1783.0,square3,i,0.076,2,V,12.0
V12,37.0,34.0,29.0,46.0,25.0,46.0,1829.0,square3,i,0.009,2,V,12.0
V12,38.0,38.0,28.0,51.0,19.0,51.0,1880.0,square3,i,0.001,2,V,12.0
V12,39.0,39.0,31.0,45.0,13.0,13.0,1893.0,square4,f,0.01,3,V,12.0
V12,40.0,35.0,28.0,46.0,26.0,46.0,1939.0,square3,i,0.064,2,V,12.0
V12,41.0,38.0,27.0,46.0,20.0,46.0,1985.0,square3,i,0.077,2,V,12.0
V12,42.0,40.0,26.0,50.0,23.0,50.0,2035.0,square3,i,0.146,2,V,12.0
V12,43.0,33.0,30.0,45.0,18.0,45.0,2080.0,square3,i,0.151,2,V,12.0
V12,44.0,39.0,31.0,46.0,22.0,46.0,2126.0,square3,i,0.001,2,V,12.0
V12,45.0,32.0,26.0,42.0,20.0,42.0,2168.0,square3,i,0.169,2,V,12.0
V12,46.0,36.0,29.0,43.0,24.0,43.0,2211.0,square3,i,0.012,2,V,12.0
V12,47.0,37.0,30.0,46.0,21.0,37.0,2248.0,square1,j,0.04,0,V,12.0
V12,48.0,37.0,27.0,44.0,19.0,44.0,2292.0,square3,i,0.061,2,V,12.0
V12,49.0,36.0,33.0,55.0,16.0,33.0,2325.0,square2,r,0.117,1,V,12.0
V12,50.0,45.0,28.0,44.0,18.0,45.0,2370.0,square1,j,0.151,0,V,12.0
V12,51.0,35.0,32.0,49.0,19.0,49.0,2419.0,square3,i,0.002,2,V,12.0
V12,52.0,36.0,56.0,31.0,52.0,36.0,2455.0,square1,j,0.041,0,V,12.0
V12,53.0,36.0,57.0,29.0,45.0,29.0,2484.0,square3,i,0.129,2,V,12.0
V12,54.0,38.0,61.0,28.0,51.0,28.0,2512.0,square3,i,0.082,2,V,12.0
V12,55.0,35.0,60.0,29.0,47.0,47.0,2559.0,square4,f,0.001,3,V,12.0
V12,56.0,34.0,62.0,29.0,46.0,46.0,2605.0,square4,f,0.036,3,V,12.0
V12,57.0,43.0,57.0,32.0,46.0,46.0,2651.0,square4,f,0.012,3,V,12.0
V12,58.0,40.0,59.0,32.0,50.0,40.0,2691.0,square1,j,0.012,0,V,12.0
V12,59.0,41.0,62.0,33.0,48.0,62.0,2753.0,square2,r,0.002,1,V,12.0
V12,60.0,36.0,61.0,32.0,49.0,61.0,2814.0,square2,r,0.049,1,V,12.0
V12,61.0,39.0,56.0,32.0,44.0,56.0,2870.0,square2,r,0.092,1,V,12.0
V12,62.0,39.0,57.0,30.0,46.0,57.0,2927.0,square2,r,0.135,1,V,12.0
V12,63.0,42.0,53.0,29.0,46.0,53.0,2980.0,square2,r,0.195,1,V,12.0
V12,64.0,35.0,57.0,32.0,50.0,57.0,3037.0,square2,r,0.253,1,V,12.0
V12,65.0,44.0,58.0,32.0,49.0,58.0,3095.0,square2,r,0.169,1,V,12.0
V12,66.0,44.0,56.0,29.0,52.0,29.0,3124.0,square3,i,0.061,2,V,12.0
V12,67.0,41.0,60.0,30.0,49.0,49.0,3173.0,square4,f,0.061,3,V,12.0
V12,68.0,42.0,58.0,32.0,45.0,42.0,3215.0,square1,j,0.115,0,V,12.0
V12,69.0,36.0,60.0,33.0,50.0,60.0,3275.0,square2,r,0.176,1,V,12.0
V12,70.0,36.0,57.0,27.0,46.0,57.0,3332.0,square2,r,0.13,1,V,12.0
V12,71.0,41.0,59.0,32.0,48.0,59.0,3391.0,square2,r,0.1,1,V,12.0
V12,72.0,34.0,59.0,31.0,49.0,59.0,3450.0,square2,r,0.1,1,V,12.0
V12,73.0,71.0,53.0,65.0,49.0,53.0,3503.0,square2,r,0.056,1,V,12.0
V12,74.0,69.0,49.0,63.0,45.0,49.0,3552.0,square2,r,0.002,1,V,12.0
V12,75.0,72.0,51.0,56.0,46.0,51.0,3603.0,square2,r,0.217,1,V,12.0
V12,76.0,72.0,48.0,58.0,43.0,48.0,3651.0,square2,r,0.031,1,V,12.0
V12,77.0,74.0,57.0,59.0,44.0,57.0,3708.0,square2,r,0.044,1,V,12.0
V12,78.0,69.0,55.0,63.0,50.0,50.0,3758.0,square4,f,0.084,3,V,12.0
V12,79.0,73.0,53.0,58.0,43.0,53.0,3811.0,square2,r,0.011,1,V,12.0
V12,80.0,71.0,47.0,65.0,40.0,47.0,3858.0,square2,r,0.175,1,V,12.0
V12,81.0,66.0,49.0,57.0,40.0,40.0,3898.0,square4,f,0.001,3,V,12.0
V12,82.0,71.0,53.0,57.0,48.0,53.0,3951.0,square2,r,0.218,1,V,12.0
V12,83.0,70.0,50.0,56.0,49.0,50.0,4001.0,square2,r,0.127,1,V,12.0
V12,84.0,69.0,45.0,64.0,43.0,45.0,4046.0,square2,r,0.047,1,V,12.0
V12,85.0,64.0,48.0,54.0,42.0,64.0,4110.0,square1,j,0.012,0,V,12.0
V12,86.0,71.0,49.0,63.0,44.0,63.0,4173.0,square3,i,0.102,2,V,12.0
V12,87.0,72.0,52.0,55.0,42.0,72.0,4245.0,square1,j,0.115,0,V,12.0
V12,88.0,64.0,48.0,59.0,44.0,59.0,4304.0,square3,i,0.115,2,V,12.0
V12,89.0,69.0,48.0,62.0,45.0,69.0,4373.0,square1,j,0.002,0,V,12.0
V12,90.0,68.0,56.0,60.0,42.0,68.0,4441.0,square1,j,0.031,0,V,12.0
V12,91.0,69.0,52.0,62.0,45.0,69.0,4510.0,square1,j,0.119,0,V,12.0
V12,92.0,65.0,50.0,64.0,47.0,65.0,4575.0,square1,j,0.185,0,V,12.0
V12,93.0,68.0,51.0,62.0,43.0,43.0,4618.0,square4,f,0.575,3,V,12.0
V12,94.0,68.0,52.0,60.0,38.0,68.0,4686.0,square1,j,0.042,0,V,12.0
V12,95.0,71.0,52.0,58.0,47.0,71.0,4757.0,square1,j,0.031,0,V,12.0
V12,96.0,66.0,49.0,59.0,44.0,66.0,4823.0,square1,j,0.031,0,V,12.0
V12,97.0,74.0,47.0,54.0,47.0,74.0,4897.0,square1,j,0.099,0,V,12.0
V12,98.0,68.0,43.0,64.0,41.0,68.0,4965.0,square1,j,0.084,0,V,12.0
V12,99.0,71.0,53.0,62.0,44.0,71.0,5036.0,square1,j,0.012,0,V,12.0
