block,Trial,square1,square2,square3,square4,currPoints,totalPoints,square,choiceKey.keys,choiceKey.rt,armNum,blockType,blockNum
prac,0.0,100.0,0.0,0.0,0.0,99999,0.0,invalid,,,-1,p,0.0
prac,1.0,100.0,0.0,0.0,0.0,0,0.0,square3,,,2,p,0.0
prac,2.0,100.0,0.0,0.0,0.0,99999,0.0,invalid,,,-1,p,0.0
prac,3.0,100.0,0.0,0.0,0.0,0,0.0,square2,,,1,p,0.0
prac,4.0,100.0,0.0,0.0,0.0,100,100.0,square1,,,0,p,0.0
prac,5.0,100.0,0.0,0.0,0.0,100,200.0,square1,,,0,p,0.0
prac,6.0,100.0,0.0,0.0,0.0,100,300.0,square1,,,0,p,0.0
prac,7.0,100.0,0.0,0.0,0.0,100,400.0,square1,,,0,p,0.0
prac,8.0,100.0,0.0,0.0,0.0,100,500.0,square1,,,0,p,0.0
prac,9.0,100.0,0.0,0.0,0.0,100,600.0,square1,,,0,p,0.0
S3,0.0,38.0,48.0,42.0,57.0,48,48.0,square2,f,1.2787,1,S,3.0
S3,1.0,29.0,43.0,51.0,57.0,29,77.0,square1,r,0.2033,0,S,3.0
S3,2.0,41.0,49.0,46.0,49.0,46,123.0,square3,i,0.5796,2,S,3.0
S3,3.0,44.0,50.0,45.0,52.0,52,175.0,square4,j,0.4467,3,S,3.0
S3,4.0,37.0,51.0,45.0,58.0,58,233.0,square4,j,0.1106,3,S,3.0
S3,5.0,47.0,43.0,42.0,49.0,49,282.0,square4,j,0.3556,3,S,3.0
S3,6.0,44.0,53.0,51.0,58.0,58,340.0,square4,j,0.2967,3,S,3.0
S3,7.0,39.0,47.0,46.0,54.0,54,394.0,square4,j,0.2459,3,S,3.0
S3,8.0,43.0,53.0,41.0,52.0,52,446.0,square4,j,0.4057,3,S,3.0
S3,9.0,42.0,46.0,41.0,53.0,53,499.0,square4,j,0.905,3,S,3.0
S3,10.0,37.0,49.0,49.0,55.0,55,554.0,square4,j,0.7666,3,S,3.0
S3,11.0,40.0,47.0,36.0,59.0,59,613.0,square4,j,0.0828,3,S,3.0
S3,12.0,46.0,51.0,39.0,56.0,56,669.0,square4,j,0.0843,3,S,3.0
S3,13.0,39.0,48.0,45.0,57.0,57,726.0,square4,j,0.0342,3,S,3.0
S3,14.0,39.0,55.0,43.0,47.0,47,773.0,square4,j,0.6841,3,S,3.0
S3,15.0,46.0,46.0,47.0,52.0,52,825.0,square4,j,0.0015,3,S,3.0
S3,16.0,42.0,49.0,50.0,55.0,49,874.0,square2,f,1.8167,1,S,3.0
S3,17.0,45.0,45.0,56.0,47.0,45,919.0,square2,f,0.2175,1,S,3.0
S3,18.0,46.0,43.0,45.0,50.0,43,962.0,square2,f,0.225,1,S,3.0
S3,19.0,41.0,47.0,50.0,55.0,55,1017.0,square4,j,0.3833,3,S,3.0
S3,20.0,45.0,52.0,49.0,52.0,52,1069.0,square4,j,0.1029,3,S,3.0
S3,21.0,40.0,43.0,47.0,46.0,46,1115.0,square4,j,0.3277,3,S,3.0
S3,22.0,45.0,46.0,44.0,47.0,47,1162.0,square4,j,0.097,3,S,3.0
S3,23.0,36.0,50.0,42.0,46.0,46,1208.0,square4,j,0.2835,3,S,3.0
S3,24.0,42.0,54.0,49.0,55.0,55,1263.0,square4,j,0.2565,3,S,3.0
S3,25.0,43.0,51.0,44.0,54.0,54,1317.0,square4,j,0.1235,3,S,3.0
S3,26.0,49.0,50.0,52.0,52.0,52,1369.0,square4,j,0.2953,3,S,3.0
S3,27.0,47.0,52.0,44.0,50.0,50,1419.0,square4,j,0.1334,3,S,3.0
S3,28.0,37.0,48.0,40.0,47.0,47,1466.0,square4,j,0.0821,3,S,3.0
S3,29.0,50.0,43.0,50.0,57.0,57,1523.0,square4,j,0.0917,3,S,3.0
S3,30.0,50.0,50.0,46.0,47.0,47,1570.0,square4,j,0.0009,3,S,3.0
S3,31.0,37.0,53.0,49.0,56.0,56,1626.0,square4,j,0.9411,3,S,3.0
S3,32.0,42.0,50.0,43.0,58.0,58,1684.0,square4,j,1.4416,3,S,3.0
S3,33.0,44.0,49.0,46.0,59.0,59,1743.0,square4,j,1.4163,3,S,3.0
S3,34.0,42.0,50.0,50.0,58.0,58,1801.0,square4,j,0.1691,3,S,3.0
S3,35.0,43.0,46.0,45.0,50.0,43,1844.0,square1,r,0.0407,0,S,3.0
S3,36.0,46.0,52.0,50.0,48.0,52,1896.0,square2,f,0.6932,1,S,3.0
S3,37.0,48.0,50.0,49.0,52.0,50,1946.0,square2,f,0.0096,1,S,3.0
S3,38.0,39.0,43.0,50.0,55.0,43,1989.0,square2,f,0.55,1,S,3.0
S3,39.0,50.0,53.0,46.0,57.0,53,2042.0,square2,f,0.3177,1,S,3.0
S3,40.0,41.0,46.0,48.0,55.0,46,2088.0,square2,f,0.1501,1,S,3.0
S3,41.0,49.0,49.0,40.0,56.0,56,2144.0,square4,j,0.0061,3,S,3.0
S3,42.0,47.0,49.0,43.0,48.0,48,2192.0,square4,j,0.7509,3,S,3.0
S3,43.0,46.0,43.0,41.0,58.0,58,2250.0,square4,j,0.2174,3,S,3.0
S3,44.0,46.0,52.0,51.0,55.0,55,2305.0,square4,j,0.6213,3,S,3.0
S3,45.0,46.0,41.0,46.0,49.0,49,2354.0,square4,j,0.0621,3,S,3.0
S3,46.0,32.0,56.0,40.0,50.0,50,2404.0,square4,j,0.0186,3,S,3.0
S3,47.0,42.0,49.0,44.0,51.0,51,2455.0,square4,j,0.2328,3,S,3.0
S3,48.0,36.0,45.0,38.0,50.0,50,2505.0,square4,j,0.0689,3,S,3.0
S3,49.0,45.0,48.0,47.0,52.0,52,2557.0,square4,j,0.0834,3,S,3.0
S8,0.0,58.0,60.0,52.0,45.0,52,52.0,square3,r,1.4677,2,S,8.0
S8,1.0,55.0,57.0,56.0,52.0,57,109.0,square2,i,1.3097,1,S,8.0
S8,2.0,54.0,58.0,58.0,49.0,49,158.0,square4,f,1.4211,3,S,8.0
S8,3.0,55.0,62.0,52.0,53.0,55,213.0,square1,j,0.697,0,S,8.0
S8,4.0,55.0,60.0,49.0,51.0,60,273.0,square2,i,0.6352,1,S,8.0
S8,5.0,48.0,63.0,61.0,49.0,61,334.0,square3,r,1.5062,2,S,8.0
S8,6.0,58.0,63.0,59.0,55.0,59,393.0,square3,r,0.9442,2,S,8.0
S8,7.0,56.0,53.0,49.0,51.0,53,446.0,square2,i,0.223,1,S,8.0
S8,8.0,61.0,63.0,66.0,49.0,63,509.0,square2,i,0.0636,1,S,8.0
S8,9.0,60.0,59.0,53.0,47.0,59,568.0,square2,i,0.3932,1,S,8.0
S8,10.0,55.0,63.0,52.0,55.0,63,631.0,square2,i,0.4441,1,S,8.0
S8,11.0,62.0,60.0,54.0,50.0,54,685.0,square3,r,0.323,2,S,8.0
S8,12.0,58.0,64.0,51.0,52.0,51,736.0,square3,r,0.1709,2,S,8.0
S8,13.0,62.0,59.0,53.0,53.0,53,789.0,square3,r,0.0542,2,S,8.0
S8,14.0,51.0,62.0,61.0,54.0,61,850.0,square3,r,0.0261,2,S,8.0
S8,15.0,56.0,68.0,56.0,50.0,68,918.0,square2,i,0.0906,1,S,8.0
S8,16.0,58.0,64.0,56.0,50.0,64,982.0,square2,i,0.3221,1,S,8.0
S8,17.0,64.0,63.0,60.0,42.0,63,1045.0,square2,i,0.8653,1,S,8.0
S8,18.0,54.0,64.0,57.0,55.0,64,1109.0,square2,i,0.6877,1,S,8.0
S8,19.0,56.0,53.0,57.0,53.0,53,1162.0,square2,i,0.3739,1,S,8.0
S8,20.0,59.0,64.0,56.0,49.0,64,1226.0,square2,i,0.1418,1,S,8.0
S8,21.0,54.0,59.0,55.0,48.0,59,1285.0,square2,i,0.0948,1,S,8.0
S8,22.0,63.0,63.0,59.0,49.0,63,1348.0,square2,i,0.0383,1,S,8.0
S8,23.0,59.0,60.0,48.0,52.0,60,1408.0,square2,i,0.0089,1,S,8.0
S8,24.0,55.0,53.0,60.0,50.0,53,1461.0,square2,i,0.2046,1,S,8.0
S8,25.0,57.0,60.0,55.0,54.0,60,1521.0,square2,i,0.0851,1,S,8.0
S8,26.0,62.0,66.0,57.0,58.0,66,1587.0,square2,i,0.3419,1,S,8.0
S8,27.0,58.0,55.0,52.0,48.0,55,1642.0,square2,i,0.1784,1,S,8.0
S8,28.0,53.0,59.0,53.0,55.0,59,1701.0,square2,i,0.6216,1,S,8.0
S8,29.0,60.0,58.0,57.0,53.0,58,1759.0,square2,i,0.0915,1,S,8.0
S8,30.0,57.0,67.0,52.0,56.0,67,1826.0,square2,i,0.391,1,S,8.0
S8,31.0,60.0,58.0,52.0,50.0,58,1884.0,square2,i,1.2412,1,S,8.0
S8,32.0,54.0,61.0,56.0,57.0,61,1945.0,square2,i,0.0598,1,S,8.0
S8,33.0,66.0,64.0,63.0,52.0,64,2009.0,square2,i,0.5759,1,S,8.0
S8,34.0,54.0,65.0,66.0,56.0,65,2074.0,square2,i,0.1242,1,S,8.0
S8,35.0,54.0,62.0,61.0,48.0,62,2136.0,square2,i,0.4076,1,S,8.0
S8,36.0,53.0,63.0,54.0,55.0,63,2199.0,square2,i,0.047,1,S,8.0
S8,37.0,64.0,58.0,57.0,51.0,99999,2199.0,invalid,,,-1,S,8.0
S8,38.0,68.0,65.0,59.0,57.0,65,2264.0,square2,i,0.134,1,S,8.0
S8,39.0,64.0,65.0,51.0,55.0,65,2329.0,square2,i,0.1184,1,S,8.0
S8,40.0,63.0,61.0,57.0,47.0,61,2390.0,square2,i,0.1615,1,S,8.0
S8,41.0,65.0,58.0,55.0,49.0,58,2448.0,square2,i,0.1074,1,S,8.0
S8,42.0,52.0,60.0,51.0,56.0,60,2508.0,square2,i,0.1375,1,S,8.0
S8,43.0,63.0,57.0,48.0,50.0,57,2565.0,square2,i,0.6473,1,S,8.0
S8,44.0,59.0,63.0,53.0,53.0,99999,2565.0,invalid,,,-1,S,8.0
S8,45.0,62.0,62.0,60.0,53.0,62,2627.0,square2,i,0.0077,1,S,8.0
S8,46.0,56.0,62.0,57.0,60.0,62,2689.0,square2,i,0.2439,1,S,8.0
S8,47.0,60.0,63.0,58.0,56.0,99999,2689.0,invalid,,,-1,S,8.0
S8,48.0,59.0,63.0,49.0,53.0,63,2752.0,square2,i,0.1107,1,S,8.0
S8,49.0,67.0,67.0,59.0,55.0,67,2819.0,square2,i,0.1065,1,S,8.0
S5,0.0,90.0,70.0,79.0,84.0,90,90.0,square1,r,0.2313,0,S,5.0
S5,1.0,92.0,77.0,83.0,81.0,83,173.0,square3,i,0.5022,2,S,5.0
S5,2.0,83.0,72.0,81.0,76.0,99999,173.0,invalid,,,-1,S,5.0
S5,3.0,87.0,72.0,79.0,81.0,72,245.0,square2,f,0.8457,1,S,5.0
S5,4.0,86.0,81.0,78.0,72.0,72,317.0,square4,j,0.4845,3,S,5.0
S5,5.0,89.0,70.0,79.0,83.0,83,400.0,square4,j,0.4059,3,S,5.0
S5,6.0,86.0,69.0,81.0,81.0,69,469.0,square2,f,0.4686,1,S,5.0
S5,7.0,82.0,72.0,86.0,80.0,86,555.0,square3,i,0.0513,2,S,5.0
S5,8.0,84.0,67.0,80.0,77.0,84,639.0,square1,r,0.7423,0,S,5.0
S5,9.0,92.0,80.0,86.0,84.0,86,725.0,square3,i,0.4031,2,S,5.0
S5,10.0,82.0,71.0,80.0,80.0,82,807.0,square1,r,0.2288,0,S,5.0
S5,11.0,80.0,75.0,79.0,75.0,79,886.0,square3,i,0.0615,2,S,5.0
S5,12.0,84.0,75.0,80.0,82.0,84,970.0,square1,r,0.2263,0,S,5.0
S5,13.0,85.0,74.0,74.0,81.0,74,1044.0,square3,i,0.2942,2,S,5.0
S5,14.0,81.0,79.0,85.0,81.0,85,1129.0,square3,i,0.4828,2,S,5.0
S5,15.0,81.0,75.0,76.0,77.0,81,1210.0,square1,r,0.043,0,S,5.0
S5,16.0,86.0,74.0,78.0,74.0,86,1296.0,square1,r,0.3205,0,S,5.0
S5,17.0,81.0,77.0,81.0,77.0,81,1377.0,square1,r,0.4031,0,S,5.0
S5,18.0,87.0,70.0,84.0,82.0,87,1464.0,square1,r,0.3303,0,S,5.0
S5,19.0,84.0,76.0,83.0,76.0,84,1548.0,square1,r,0.2878,0,S,5.0
S5,20.0,79.0,78.0,82.0,76.0,82,1630.0,square3,i,0.2313,2,S,5.0
S5,21.0,86.0,68.0,80.0,72.0,80,1710.0,square3,i,0.3459,2,S,5.0
S5,22.0,93.0,80.0,85.0,84.0,85,1795.0,square3,i,0.1988,2,S,5.0
S5,23.0,87.0,73.0,76.0,70.0,76,1871.0,square3,i,0.2611,2,S,5.0
S5,24.0,85.0,69.0,81.0,78.0,85,1956.0,square1,r,0.2497,0,S,5.0
S5,25.0,89.0,77.0,77.0,76.0,89,2045.0,square1,r,0.1278,0,S,5.0
S5,26.0,84.0,71.0,81.0,75.0,84,2129.0,square1,r,0.1386,0,S,5.0
S5,27.0,84.0,75.0,82.0,71.0,84,2213.0,square1,r,0.1459,0,S,5.0
S5,28.0,83.0,72.0,82.0,78.0,83,2296.0,square1,r,0.1516,0,S,5.0
S5,29.0,91.0,67.0,79.0,74.0,91,2387.0,square1,r,0.1118,0,S,5.0
S5,30.0,82.0,69.0,81.0,77.0,82,2469.0,square1,r,0.606,0,S,5.0
S5,31.0,82.0,72.0,80.0,78.0,82,2551.0,square1,r,0.0913,0,S,5.0
S5,32.0,83.0,73.0,91.0,80.0,83,2634.0,square1,r,0.0011,0,S,5.0
S5,33.0,83.0,68.0,85.0,78.0,68,2702.0,square2,f,0.0855,1,S,5.0
S5,34.0,89.0,79.0,83.0,77.0,77,2779.0,square4,j,0.4428,3,S,5.0
S5,35.0,88.0,72.0,79.0,80.0,79,2858.0,square3,i,0.4855,2,S,5.0
S5,36.0,90.0,74.0,84.0,76.0,84,2942.0,square3,i,0.0922,2,S,5.0
S5,37.0,85.0,75.0,80.0,82.0,80,3022.0,square3,i,0.0015,2,S,5.0
S5,38.0,78.0,74.0,85.0,79.0,85,3107.0,square3,i,0.0014,2,S,5.0
S5,39.0,87.0,73.0,87.0,85.0,87,3194.0,square3,i,0.0389,2,S,5.0
S5,40.0,83.0,67.0,81.0,80.0,81,3275.0,square3,i,0.0941,2,S,5.0
S5,41.0,82.0,69.0,88.0,80.0,88,3363.0,square3,i,0.0605,2,S,5.0
S5,42.0,85.0,78.0,91.0,80.0,91,3454.0,square3,i,0.0216,2,S,5.0
S5,43.0,89.0,74.0,78.0,74.0,78,3532.0,square3,i,0.0006,2,S,5.0
S5,44.0,90.0,74.0,77.0,85.0,77,3609.0,square3,i,0.0837,2,S,5.0
S5,45.0,89.0,68.0,81.0,78.0,81,3690.0,square3,i,0.0845,2,S,5.0
S5,46.0,86.0,70.0,86.0,68.0,86,3776.0,square3,i,0.1341,2,S,5.0
S5,47.0,90.0,77.0,85.0,84.0,85,3861.0,square3,i,0.0338,2,S,5.0
S5,48.0,76.0,66.0,82.0,79.0,82,3943.0,square3,i,0.0282,2,S,5.0
S5,49.0,84.0,73.0,82.0,75.0,82,4025.0,square3,i,0.2002,2,S,5.0
S12,0.0,38.0,42.0,30.0,42.0,99999,0.0,invalid,,,-1,S,12.0
S12,1.0,30.0,42.0,28.0,37.0,42,42.0,square2,r,0.1837,1,S,12.0
S12,2.0,34.0,41.0,38.0,43.0,41,83.0,square2,r,0.3512,1,S,12.0
S12,3.0,38.0,51.0,38.0,38.0,38,121.0,square1,i,0.2356,0,S,12.0
S12,4.0,32.0,37.0,33.0,45.0,32,153.0,square1,i,0.2894,0,S,12.0
S12,5.0,38.0,52.0,36.0,35.0,38,191.0,square1,i,0.1162,0,S,12.0
S12,6.0,30.0,43.0,30.0,38.0,30,221.0,square3,j,0.1358,2,S,12.0
S12,7.0,38.0,39.0,30.0,39.0,30,251.0,square3,j,0.1653,2,S,12.0
S12,8.0,37.0,49.0,35.0,38.0,35,286.0,square3,j,0.1146,2,S,12.0
S12,9.0,37.0,44.0,29.0,38.0,38,324.0,square4,f,1.3195,3,S,12.0
S12,10.0,35.0,42.0,30.0,45.0,45,369.0,square4,f,0.1007,3,S,12.0
S12,11.0,34.0,45.0,36.0,32.0,32,401.0,square4,f,0.3767,3,S,12.0
S12,12.0,33.0,45.0,35.0,42.0,42,443.0,square4,f,0.1721,3,S,12.0
S12,13.0,36.0,36.0,29.0,40.0,40,483.0,square4,f,0.0286,3,S,12.0
S12,14.0,36.0,49.0,32.0,42.0,42,525.0,square4,f,0.0502,3,S,12.0
S12,15.0,35.0,43.0,35.0,46.0,46,571.0,square4,f,0.8499,3,S,12.0
S12,16.0,39.0,48.0,41.0,43.0,43,614.0,square4,f,0.0842,3,S,12.0
S12,17.0,35.0,47.0,27.0,38.0,47,661.0,square2,r,0.0086,1,S,12.0
S12,18.0,37.0,51.0,33.0,33.0,51,712.0,square2,r,0.0174,1,S,12.0
S12,19.0,41.0,42.0,33.0,36.0,42,754.0,square2,r,0.4539,1,S,12.0
S12,20.0,34.0,44.0,26.0,41.0,44,798.0,square2,r,0.1015,1,S,12.0
S12,21.0,35.0,37.0,29.0,35.0,37,835.0,square2,r,0.0019,1,S,12.0
S12,22.0,37.0,48.0,31.0,41.0,48,883.0,square2,r,0.1954,1,S,12.0
S12,23.0,36.0,43.0,27.0,45.0,43,926.0,square2,r,0.1791,1,S,12.0
S12,24.0,39.0,48.0,38.0,38.0,48,974.0,square2,r,0.0012,1,S,12.0
S12,25.0,31.0,43.0,30.0,40.0,43,1017.0,square2,r,0.0012,1,S,12.0
S12,26.0,35.0,48.0,34.0,33.0,48,1065.0,square2,r,0.0173,1,S,12.0
S12,27.0,46.0,46.0,28.0,38.0,46,1111.0,square2,r,0.0223,1,S,12.0
S12,28.0,32.0,37.0,32.0,40.0,37,1148.0,square2,r,0.2108,1,S,12.0
S12,29.0,38.0,41.0,32.0,44.0,41,1189.0,square2,r,0.0342,1,S,12.0
S12,30.0,32.0,48.0,29.0,42.0,48,1237.0,square2,r,0.0352,1,S,12.0
S12,31.0,34.0,46.0,30.0,42.0,46,1283.0,square2,r,0.033,1,S,12.0
S12,32.0,39.0,43.0,41.0,40.0,43,1326.0,square2,r,0.0014,1,S,12.0
S12,33.0,36.0,47.0,33.0,46.0,47,1373.0,square2,r,0.0363,1,S,12.0
S12,34.0,36.0,41.0,34.0,41.0,41,1414.0,square2,r,0.0332,1,S,12.0
S12,35.0,34.0,42.0,31.0,43.0,42,1456.0,square2,r,0.0537,1,S,12.0
S12,36.0,39.0,43.0,26.0,33.0,43,1499.0,square2,r,0.0458,1,S,12.0
S12,37.0,39.0,49.0,30.0,42.0,49,1548.0,square2,r,0.0437,1,S,12.0
S12,38.0,33.0,47.0,36.0,41.0,47,1595.0,square2,r,0.058,1,S,12.0
S12,39.0,29.0,46.0,35.0,36.0,46,1641.0,square2,r,0.0778,1,S,12.0
S12,40.0,39.0,39.0,29.0,36.0,39,1680.0,square2,r,0.1501,1,S,12.0
S12,41.0,33.0,44.0,31.0,40.0,44,1724.0,square2,r,0.155,1,S,12.0
S12,42.0,34.0,46.0,25.0,37.0,46,1770.0,square2,r,0.1406,1,S,12.0
S12,43.0,37.0,42.0,30.0,42.0,42,1812.0,square2,r,0.1504,1,S,12.0
S12,44.0,33.0,49.0,36.0,39.0,49,1861.0,square2,r,0.0513,1,S,12.0
S12,45.0,35.0,40.0,30.0,47.0,40,1901.0,square2,r,0.034,1,S,12.0
S12,46.0,40.0,41.0,29.0,35.0,41,1942.0,square2,r,0.1165,1,S,12.0
S12,47.0,32.0,42.0,28.0,43.0,42,1984.0,square2,r,0.1175,1,S,12.0
S12,48.0,43.0,47.0,31.0,38.0,47,2031.0,square2,r,0.042,1,S,12.0
S12,49.0,37.0,41.0,35.0,40.0,41,2072.0,square2,r,0.2385,1,S,12.0
S6,0.0,40.0,29.0,39.0,26.0,99999,0.0,invalid,,,-1,S,6.0
S6,1.0,34.0,40.0,31.0,25.0,31,31.0,square3,r,0.4796,2,S,6.0
S6,2.0,37.0,31.0,25.0,30.0,30,61.0,square4,i,0.3435,3,S,6.0
S6,3.0,39.0,37.0,30.0,27.0,37,98.0,square2,f,0.7225,1,S,6.0
S6,4.0,42.0,40.0,28.0,32.0,42,140.0,square1,j,0.2631,0,S,6.0
S6,5.0,35.0,35.0,39.0,29.0,35,175.0,square1,j,0.4968,0,S,6.0
S6,6.0,48.0,30.0,37.0,33.0,48,223.0,square1,j,0.2436,0,S,6.0
S6,7.0,47.0,34.0,31.0,29.0,47,270.0,square1,j,0.2063,0,S,6.0
S6,8.0,43.0,35.0,30.0,25.0,43,313.0,square1,j,0.1157,0,S,6.0
S6,9.0,36.0,38.0,35.0,35.0,38,351.0,square2,f,0.0236,1,S,6.0
S6,10.0,38.0,35.0,31.0,21.0,35,386.0,square2,f,0.175,1,S,6.0
S6,11.0,30.0,36.0,31.0,20.0,36,422.0,square2,f,0.0023,1,S,6.0
S6,12.0,37.0,40.0,33.0,22.0,40,462.0,square2,f,0.2964,1,S,6.0
S6,13.0,32.0,41.0,35.0,29.0,41,503.0,square2,f,0.1025,1,S,6.0
S6,14.0,41.0,29.0,30.0,32.0,41,544.0,square1,j,0.3158,0,S,6.0
S6,15.0,43.0,37.0,31.0,27.0,43,587.0,square1,j,0.1015,0,S,6.0
S6,16.0,34.0,34.0,35.0,31.0,34,621.0,square1,j,0.1063,0,S,6.0
S6,17.0,47.0,40.0,29.0,28.0,47,668.0,square1,j,0.2839,0,S,6.0
S6,18.0,37.0,38.0,34.0,35.0,37,705.0,square1,j,0.1385,0,S,6.0
S6,19.0,36.0,39.0,31.0,26.0,36,741.0,square1,j,0.2892,0,S,6.0
S6,20.0,44.0,40.0,31.0,25.0,40,781.0,square2,f,0.325,1,S,6.0
S6,21.0,39.0,41.0,35.0,24.0,41,822.0,square2,f,0.0253,1,S,6.0
S6,22.0,41.0,38.0,41.0,31.0,38,860.0,square2,f,0.1578,1,S,6.0
S6,23.0,37.0,31.0,30.0,32.0,31,891.0,square2,f,0.2759,1,S,6.0
S6,24.0,48.0,34.0,34.0,21.0,34,925.0,square3,r,0.075,2,S,6.0
S6,25.0,42.0,45.0,26.0,29.0,26,951.0,square3,r,0.1409,2,S,6.0
S6,26.0,40.0,39.0,36.0,28.0,28,979.0,square4,i,0.1232,3,S,6.0
S6,27.0,42.0,33.0,29.0,29.0,29,1008.0,square4,i,0.0847,3,S,6.0
S6,28.0,41.0,30.0,29.0,29.0,41,1049.0,square1,j,0.0917,0,S,6.0
S6,29.0,42.0,40.0,32.0,27.0,42,1091.0,square1,j,0.0342,0,S,6.0
S6,30.0,42.0,36.0,30.0,26.0,42,1133.0,square1,j,0.1058,0,S,6.0
S6,31.0,42.0,34.0,35.0,29.0,34,1167.0,square2,f,0.406,1,S,6.0
S6,32.0,35.0,36.0,31.0,23.0,36,1203.0,square2,f,0.0272,1,S,6.0
S6,33.0,35.0,31.0,35.0,30.0,35,1238.0,square1,j,0.0937,0,S,6.0
S6,34.0,40.0,38.0,31.0,27.0,40,1278.0,square1,j,0.0293,0,S,6.0
S6,35.0,42.0,37.0,34.0,34.0,42,1320.0,square1,j,0.0942,0,S,6.0
S6,36.0,37.0,46.0,31.0,34.0,37,1357.0,square1,j,0.1439,0,S,6.0
S6,37.0,38.0,40.0,30.0,26.0,38,1395.0,square1,j,0.0737,0,S,6.0
S6,38.0,36.0,34.0,31.0,33.0,36,1431.0,square1,j,0.0537,0,S,6.0
S6,39.0,44.0,37.0,33.0,31.0,44,1475.0,square1,j,0.1133,0,S,6.0
S6,40.0,40.0,38.0,31.0,25.0,40,1515.0,square1,j,0.163,0,S,6.0
S6,41.0,49.0,35.0,35.0,28.0,49,1564.0,square1,j,0.1012,0,S,6.0
S6,42.0,44.0,40.0,32.0,28.0,44,1608.0,square1,j,0.2545,0,S,6.0
S6,43.0,43.0,36.0,33.0,26.0,43,1651.0,square1,j,0.0037,0,S,6.0
S6,44.0,38.0,33.0,34.0,26.0,38,1689.0,square1,j,0.1389,0,S,6.0
S6,45.0,32.0,35.0,30.0,28.0,32,1721.0,square1,j,0.0219,0,S,6.0
S6,46.0,38.0,36.0,34.0,30.0,38,1759.0,square1,j,0.0218,0,S,6.0
S6,47.0,44.0,35.0,32.0,31.0,44,1803.0,square1,j,0.5482,0,S,6.0
S6,48.0,40.0,40.0,31.0,33.0,40,1843.0,square1,j,0.194,0,S,6.0
S6,49.0,41.0,29.0,29.0,29.0,41,1884.0,square1,j,0.1651,0,S,6.0
S1,0.0,72.0,58.0,70.0,66.0,58,58.0,square2,r,1.1765,1,S,1.0
S1,1.0,75.0,64.0,66.0,69.0,75,133.0,square1,i,0.7505,0,S,1.0
S1,2.0,75.0,62.0,62.0,79.0,62,195.0,square3,j,0.6117,2,S,1.0
S1,3.0,68.0,62.0,63.0,69.0,69,264.0,square4,f,0.3494,3,S,1.0
S1,4.0,82.0,63.0,64.0,73.0,82,346.0,square1,i,0.47,0,S,1.0
S1,5.0,66.0,70.0,65.0,73.0,65,411.0,square3,j,0.1834,2,S,1.0
S1,6.0,73.0,65.0,62.0,65.0,65,476.0,square4,f,0.2168,3,S,1.0
S1,7.0,70.0,61.0,65.0,66.0,61,537.0,square2,r,0.0835,1,S,1.0
S1,8.0,78.0,63.0,67.0,68.0,78,615.0,square1,i,0.0558,0,S,1.0
S1,9.0,74.0,67.0,66.0,68.0,74,689.0,square1,i,0.1175,0,S,1.0
S1,10.0,73.0,59.0,68.0,68.0,73,762.0,square1,i,0.0509,0,S,1.0
S1,11.0,76.0,65.0,62.0,81.0,76,838.0,square1,i,0.141,0,S,1.0
S1,12.0,77.0,66.0,69.0,63.0,77,915.0,square1,i,0.1084,0,S,1.0
S1,13.0,75.0,63.0,68.0,73.0,75,990.0,square1,i,0.1509,0,S,1.0
S1,14.0,67.0,60.0,67.0,69.0,67,1057.0,square1,i,0.0495,0,S,1.0
S1,15.0,70.0,63.0,69.0,73.0,70,1127.0,square1,i,0.0655,0,S,1.0
S1,16.0,69.0,61.0,69.0,69.0,69,1196.0,square1,i,0.0394,0,S,1.0
S1,17.0,73.0,68.0,67.0,73.0,73,1269.0,square1,i,0.0836,0,S,1.0
S1,18.0,70.0,58.0,73.0,66.0,70,1339.0,square1,i,0.1316,0,S,1.0
S1,19.0,75.0,58.0,62.0,68.0,75,1414.0,square1,i,0.0247,0,S,1.0
S1,20.0,76.0,58.0,72.0,67.0,76,1490.0,square1,i,0.0524,0,S,1.0
S1,21.0,69.0,66.0,66.0,67.0,69,1559.0,square1,i,0.0839,0,S,1.0
S1,22.0,70.0,68.0,65.0,65.0,70,1629.0,square1,i,0.5253,0,S,1.0
S1,23.0,71.0,60.0,64.0,64.0,71,1700.0,square1,i,0.0674,0,S,1.0
S1,24.0,70.0,72.0,62.0,67.0,70,1770.0,square1,i,0.0083,0,S,1.0
S1,25.0,68.0,60.0,70.0,65.0,68,1838.0,square1,i,0.0014,0,S,1.0
S1,26.0,76.0,64.0,72.0,69.0,76,1914.0,square1,i,0.0617,0,S,1.0
S1,27.0,71.0,56.0,70.0,65.0,71,1985.0,square1,i,0.1487,0,S,1.0
S1,28.0,67.0,67.0,71.0,76.0,67,2052.0,square1,i,0.0322,0,S,1.0
S1,29.0,78.0,64.0,64.0,74.0,78,2130.0,square1,i,0.1724,0,S,1.0
S1,30.0,74.0,63.0,65.0,71.0,74,2204.0,square1,i,0.0341,0,S,1.0
S1,31.0,78.0,58.0,69.0,69.0,78,2282.0,square1,i,0.4334,0,S,1.0
S1,32.0,71.0,67.0,68.0,60.0,71,2353.0,square1,i,0.0679,0,S,1.0
S1,33.0,68.0,63.0,65.0,73.0,68,2421.0,square1,i,0.0015,0,S,1.0
S1,34.0,71.0,62.0,74.0,73.0,71,2492.0,square1,i,0.3334,0,S,1.0
S1,35.0,75.0,59.0,67.0,77.0,75,2567.0,square1,i,0.0015,0,S,1.0
S1,36.0,77.0,60.0,66.0,67.0,77,2644.0,square1,i,0.0014,0,S,1.0
S1,37.0,69.0,60.0,69.0,75.0,69,2713.0,square1,i,0.034,0,S,1.0
S1,38.0,77.0,64.0,62.0,70.0,77,2790.0,square1,i,0.0838,0,S,1.0
S1,39.0,72.0,66.0,69.0,65.0,72,2862.0,square1,i,0.0675,0,S,1.0
S1,40.0,69.0,63.0,66.0,69.0,69,2931.0,square1,i,0.0671,0,S,1.0
S1,41.0,72.0,62.0,70.0,70.0,72,3003.0,square1,i,0.0449,0,S,1.0
S1,42.0,78.0,60.0,63.0,62.0,78,3081.0,square1,i,0.0673,0,S,1.0
S1,43.0,71.0,62.0,67.0,73.0,71,3152.0,square1,i,0.099,0,S,1.0
S1,44.0,75.0,63.0,69.0,73.0,75,3227.0,square1,i,0.1165,0,S,1.0
S1,45.0,66.0,60.0,68.0,73.0,66,3293.0,square1,i,0.1667,0,S,1.0
S1,46.0,74.0,67.0,69.0,71.0,74,3367.0,square1,i,0.1505,0,S,1.0
S1,47.0,71.0,66.0,68.0,70.0,71,3438.0,square1,i,0.1383,0,S,1.0
S1,48.0,72.0,75.0,71.0,77.0,72,3510.0,square1,i,0.1557,0,S,1.0
S1,49.0,65.0,57.0,66.0,75.0,65,3575.0,square1,i,0.1614,0,S,1.0
V6,0.0,43.0,59.0,68.0,49.0,43,43.0,square1,r,1.2568,0,V,6.0
V6,1.0,43.0,62.0,71.0,50.0,50,93.0,square4,i,0.0791,3,V,6.0
V6,2.0,48.0,61.0,72.0,51.0,61,154.0,square2,j,0.3442,1,V,6.0
V6,3.0,46.0,55.0,71.0,51.0,71,225.0,square3,f,1.386,2,V,6.0
V6,4.0,44.0,61.0,74.0,48.0,74,299.0,square3,f,0.3169,2,V,6.0
V6,5.0,45.0,62.0,70.0,51.0,70,369.0,square3,f,0.1668,2,V,6.0
V6,6.0,42.0,67.0,73.0,46.0,73,442.0,square3,f,0.2169,2,V,6.0
V6,7.0,44.0,63.0,71.0,53.0,71,513.0,square3,f,0.3369,2,V,6.0
V6,8.0,41.0,62.0,73.0,52.0,73,586.0,square3,f,0.103,2,V,6.0
V6,9.0,46.0,59.0,72.0,54.0,72,658.0,square3,f,0.0383,2,V,6.0
V6,10.0,45.0,59.0,70.0,53.0,70,728.0,square3,f,0.0174,2,V,6.0
V6,11.0,45.0,60.0,70.0,49.0,70,798.0,square3,f,0.2884,2,V,6.0
V6,12.0,45.0,66.0,64.0,48.0,64,862.0,square3,f,0.4999,2,V,6.0
V6,13.0,45.0,61.0,69.0,47.0,69,931.0,square3,f,0.3336,2,V,6.0
V6,14.0,47.0,60.0,71.0,56.0,71,1002.0,square3,f,0.3168,2,V,6.0
V6,15.0,46.0,64.0,67.0,52.0,67,1069.0,square3,f,0.3004,2,V,6.0
V6,16.0,50.0,60.0,69.0,54.0,69,1138.0,square3,f,0.2192,2,V,6.0
V6,17.0,43.0,60.0,70.0,53.0,70,1208.0,square3,f,0.1292,2,V,6.0
V6,18.0,46.0,63.0,72.0,55.0,72,1280.0,square3,f,0.0665,2,V,6.0
V6,19.0,46.0,65.0,73.0,51.0,73,1353.0,square3,f,0.0007,2,V,6.0
V6,20.0,44.0,63.0,66.0,51.0,66,1419.0,square3,f,0.0012,2,V,6.0
V6,21.0,43.0,63.0,70.0,49.0,70,1489.0,square3,f,0.1216,2,V,6.0
V6,22.0,45.0,63.0,71.0,50.0,71,1560.0,square3,f,0.1003,2,V,6.0
V6,23.0,45.0,38.0,28.0,60.0,28,1588.0,square3,f,0.0343,2,V,6.0
V6,24.0,46.0,33.0,33.0,53.0,33,1621.0,square2,j,0.2631,1,V,6.0
V6,25.0,45.0,36.0,32.0,63.0,63,1684.0,square4,i,0.1013,3,V,6.0
V6,26.0,52.0,37.0,28.0,57.0,52,1736.0,square1,r,0.1802,0,V,6.0
V6,27.0,45.0,33.0,30.0,62.0,62,1798.0,square4,i,0.0013,3,V,6.0
V6,28.0,43.0,37.0,24.0,51.0,51,1849.0,square4,i,0.0896,3,V,6.0
V6,29.0,48.0,39.0,34.0,61.0,48,1897.0,square1,r,0.3174,0,V,6.0
V6,30.0,48.0,44.0,35.0,59.0,59,1956.0,square4,i,0.1175,3,V,6.0
V6,31.0,50.0,39.0,34.0,53.0,53,2009.0,square4,i,0.007,3,V,6.0
V6,32.0,44.0,33.0,33.0,54.0,54,2063.0,square4,i,0.1009,3,V,6.0
V6,33.0,48.0,37.0,30.0,56.0,37,2100.0,square2,j,0.2843,1,V,6.0
V6,34.0,52.0,37.0,27.0,59.0,59,2159.0,square4,i,0.0015,3,V,6.0
V6,35.0,47.0,32.0,29.0,59.0,47,2206.0,square1,r,0.0422,0,V,6.0
V6,36.0,45.0,37.0,27.0,56.0,27,2233.0,square3,f,0.0672,2,V,6.0
V6,37.0,39.0,37.0,31.0,57.0,57,2290.0,square4,i,0.0682,3,V,6.0
V6,38.0,50.0,38.0,29.0,56.0,56,2346.0,square4,i,0.1314,3,V,6.0
V6,39.0,48.0,37.0,27.0,57.0,57,2403.0,square4,i,0.0528,3,V,6.0
V6,40.0,53.0,37.0,29.0,57.0,57,2460.0,square4,i,0.1544,3,V,6.0
V6,41.0,41.0,34.0,33.0,58.0,58,2518.0,square4,i,0.101,3,V,6.0
V6,42.0,50.0,37.0,31.0,57.0,57,2575.0,square4,i,0.2339,3,V,6.0
V6,43.0,48.0,34.0,30.0,58.0,58,2633.0,square4,i,0.1583,3,V,6.0
V6,44.0,44.0,37.0,33.0,60.0,60,2693.0,square4,i,0.1436,3,V,6.0
V6,45.0,44.0,32.0,33.0,55.0,55,2748.0,square4,i,0.1295,3,V,6.0
V6,46.0,44.0,36.0,33.0,59.0,59,2807.0,square4,i,0.0414,3,V,6.0
V6,47.0,42.0,34.0,29.0,52.0,52,2859.0,square4,i,0.0505,3,V,6.0
V6,48.0,46.0,41.0,28.0,60.0,60,2919.0,square4,i,0.0339,3,V,6.0
V6,49.0,46.0,40.0,27.0,55.0,55,2974.0,square4,i,0.0179,3,V,6.0
V6,50.0,46.0,41.0,32.0,55.0,55,3029.0,square4,i,0.1341,3,V,6.0
V6,51.0,41.0,39.0,30.0,55.0,55,3084.0,square4,i,0.1023,3,V,6.0
V6,52.0,47.0,37.0,31.0,55.0,55,3139.0,square4,i,0.124,3,V,6.0
V6,53.0,57.0,36.0,30.0,58.0,58,3197.0,square4,i,0.0788,3,V,6.0
V6,54.0,42.0,38.0,28.0,50.0,50,3247.0,square4,i,0.081,3,V,6.0
V6,55.0,56.0,42.0,67.0,46.0,46,3293.0,square4,i,0.1175,3,V,6.0
V6,56.0,54.0,37.0,68.0,46.0,46,3339.0,square4,i,0.0493,3,V,6.0
V6,57.0,57.0,40.0,64.0,52.0,64,3403.0,square3,f,0.3025,2,V,6.0
V6,58.0,53.0,45.0,68.0,45.0,68,3471.0,square3,f,0.3996,2,V,6.0
V6,59.0,59.0,41.0,69.0,49.0,69,3540.0,square3,f,0.0467,2,V,6.0
V6,60.0,62.0,41.0,71.0,51.0,71,3611.0,square3,f,0.0676,2,V,6.0
V6,61.0,58.0,50.0,72.0,51.0,72,3683.0,square3,f,0.1633,2,V,6.0
V6,62.0,61.0,43.0,65.0,47.0,65,3748.0,square3,f,0.1838,2,V,6.0
V6,63.0,55.0,40.0,67.0,51.0,67,3815.0,square3,f,0.1395,2,V,6.0
V6,64.0,56.0,43.0,67.0,47.0,67,3882.0,square3,f,0.0013,2,V,6.0
V6,65.0,62.0,46.0,67.0,48.0,67,3949.0,square3,f,0.1597,2,V,6.0
V6,66.0,55.0,44.0,67.0,48.0,67,4016.0,square3,f,0.1656,2,V,6.0
V6,67.0,61.0,46.0,70.0,49.0,70,4086.0,square3,f,0.0176,2,V,6.0
V6,68.0,63.0,41.0,72.0,46.0,72,4158.0,square3,f,0.1405,2,V,6.0
V6,69.0,59.0,41.0,68.0,48.0,68,4226.0,square3,f,0.0012,2,V,6.0
V6,70.0,59.0,37.0,70.0,45.0,70,4296.0,square3,f,0.027,2,V,6.0
V6,71.0,83.0,64.0,56.0,70.0,56,4352.0,square3,f,0.1282,2,V,6.0
V6,72.0,82.0,59.0,53.0,75.0,53,4405.0,square3,f,0.071,2,V,6.0
V6,73.0,85.0,67.0,58.0,73.0,58,4463.0,square3,f,0.0502,2,V,6.0
V6,74.0,79.0,67.0,61.0,73.0,61,4524.0,square3,f,0.0495,2,V,6.0
V6,75.0,84.0,62.0,53.0,69.0,53,4577.0,square3,f,0.0167,2,V,6.0
V6,76.0,81.0,60.0,55.0,76.0,55,4632.0,square3,f,0.0063,2,V,6.0
V6,77.0,84.0,61.0,60.0,72.0,60,4692.0,square3,f,0.0722,2,V,6.0
V6,78.0,90.0,61.0,54.0,74.0,54,4746.0,square3,f,0.0304,2,V,6.0
V6,79.0,80.0,64.0,51.0,75.0,51,4797.0,square3,f,0.0819,2,V,6.0
V6,80.0,85.0,62.0,56.0,78.0,56,4853.0,square3,f,0.0341,2,V,6.0
V6,81.0,86.0,65.0,58.0,69.0,58,4911.0,square3,f,0.0879,2,V,6.0
V6,82.0,83.0,62.0,58.0,77.0,58,4969.0,square3,f,0.0829,2,V,6.0
V6,83.0,87.0,61.0,59.0,70.0,61,5030.0,square2,j,0.1986,1,V,6.0
V6,84.0,89.0,65.0,54.0,78.0,78,5108.0,square4,i,0.0299,3,V,6.0
V6,85.0,78.0,63.0,55.0,75.0,75,5183.0,square4,i,0.0844,3,V,6.0
V6,86.0,87.0,67.0,52.0,75.0,75,5258.0,square4,i,0.1252,3,V,6.0
V6,87.0,86.0,62.0,60.0,75.0,75,5333.0,square4,i,0.0016,3,V,6.0
V6,88.0,79.0,67.0,56.0,76.0,76,5409.0,square4,i,0.1178,3,V,6.0
V6,89.0,83.0,61.0,57.0,75.0,75,5484.0,square4,i,0.096,3,V,6.0
V6,90.0,83.0,67.0,51.0,76.0,76,5560.0,square4,i,0.0729,3,V,6.0
V6,91.0,83.0,63.0,55.0,69.0,69,5629.0,square4,i,0.0769,3,V,6.0
V6,92.0,89.0,56.0,53.0,68.0,68,5697.0,square4,i,0.0664,3,V,6.0
V6,93.0,84.0,61.0,59.0,74.0,74,5771.0,square4,i,0.1005,3,V,6.0
V6,94.0,77.0,58.0,58.0,76.0,76,5847.0,square4,i,0.0843,3,V,6.0
V6,95.0,82.0,60.0,53.0,74.0,74,5921.0,square4,i,0.0018,3,V,6.0
V6,96.0,87.0,61.0,56.0,71.0,71,5992.0,square4,i,0.1052,3,V,6.0
V6,97.0,83.0,66.0,55.0,75.0,75,6067.0,square4,i,0.0871,3,V,6.0
V6,98.0,81.0,63.0,55.0,76.0,76,6143.0,square4,i,0.0675,3,V,6.0
V6,99.0,92.0,63.0,61.0,78.0,78,6221.0,square4,i,0.2334,3,V,6.0
V2,0.0,33.0,24.0,43.0,18.0,24,24.0,square2,r,1.1102,1,V,2.0
V2,1.0,33.0,29.0,42.0,21.0,42,66.0,square3,i,0.2005,2,V,2.0
V2,2.0,37.0,26.0,45.0,22.0,37,103.0,square1,f,0.3854,0,V,2.0
V2,3.0,39.0,26.0,41.0,20.0,20,123.0,square4,j,0.2153,3,V,2.0
V2,4.0,29.0,32.0,45.0,19.0,29,152.0,square1,f,0.2182,0,V,2.0
V2,5.0,33.0,28.0,44.0,17.0,44,196.0,square3,i,0.2504,2,V,2.0
V2,6.0,32.0,24.0,49.0,20.0,24,220.0,square2,r,0.1188,1,V,2.0
V2,7.0,32.0,21.0,42.0,13.0,32,252.0,square1,f,0.207,0,V,2.0
V2,8.0,35.0,23.0,45.0,19.0,45,297.0,square3,i,0.003,2,V,2.0
V2,9.0,33.0,28.0,46.0,17.0,46,343.0,square3,i,0.0073,2,V,2.0
V2,10.0,39.0,27.0,45.0,21.0,45,388.0,square3,i,0.0244,2,V,2.0
V2,11.0,30.0,23.0,44.0,22.0,44,432.0,square3,i,0.0438,2,V,2.0
V2,12.0,31.0,26.0,43.0,16.0,43,475.0,square3,i,0.0643,2,V,2.0
V2,13.0,35.0,26.0,43.0,22.0,43,518.0,square3,i,0.0015,2,V,2.0
V2,14.0,35.0,29.0,46.0,19.0,46,564.0,square3,i,0.0783,2,V,2.0
V2,15.0,36.0,22.0,44.0,20.0,44,608.0,square3,i,0.0905,2,V,2.0
V2,16.0,33.0,27.0,45.0,19.0,45,653.0,square3,i,0.0249,2,V,2.0
V2,17.0,35.0,25.0,41.0,15.0,41,694.0,square3,i,0.2234,2,V,2.0
V2,18.0,37.0,27.0,51.0,21.0,51,745.0,square3,i,0.2512,2,V,2.0
V2,19.0,33.0,25.0,43.0,18.0,99999,745.0,invalid,,,-1,V,2.0
V2,20.0,39.0,25.0,43.0,20.0,43,788.0,square3,i,1.8323,2,V,2.0
V2,21.0,27.0,32.0,43.0,24.0,43,831.0,square3,i,0.0015,2,V,2.0
V2,22.0,35.0,27.0,50.0,13.0,50,881.0,square3,i,0.0394,2,V,2.0
V2,23.0,36.0,25.0,39.0,17.0,39,920.0,square3,i,0.1656,2,V,2.0
V2,24.0,32.0,45.0,39.0,59.0,39,959.0,square3,i,0.0924,2,V,2.0
V2,25.0,26.0,43.0,37.0,55.0,37,996.0,square3,i,0.0016,2,V,2.0
V2,26.0,23.0,45.0,39.0,58.0,39,1035.0,square3,i,0.0508,2,V,2.0
V2,27.0,30.0,44.0,40.0,56.0,40,1075.0,square3,i,0.0676,2,V,2.0
V2,28.0,34.0,48.0,41.0,54.0,41,1116.0,square3,i,0.0721,2,V,2.0
V2,29.0,29.0,42.0,35.0,54.0,35,1151.0,square3,i,0.0347,2,V,2.0
V2,30.0,22.0,39.0,39.0,55.0,39,1190.0,square3,i,0.104,2,V,2.0
V2,31.0,32.0,48.0,35.0,50.0,35,1225.0,square3,i,0.0844,2,V,2.0
V2,32.0,27.0,47.0,40.0,58.0,40,1265.0,square3,i,0.0015,2,V,2.0
V2,33.0,28.0,46.0,31.0,54.0,31,1296.0,square3,i,0.1538,2,V,2.0
V2,34.0,28.0,44.0,41.0,49.0,41,1337.0,square3,i,0.2513,2,V,2.0
V2,35.0,31.0,44.0,33.0,59.0,33,1370.0,square3,i,0.0781,2,V,2.0
V2,36.0,29.0,48.0,30.0,55.0,99999,1370.0,invalid,,,-1,V,2.0
V2,37.0,25.0,45.0,32.0,51.0,99999,1370.0,invalid,,,-1,V,2.0
V2,38.0,29.0,48.0,33.0,54.0,99999,1370.0,invalid,,,-1,V,2.0
V2,39.0,29.0,44.0,33.0,54.0,99999,1370.0,invalid,,,-1,V,2.0
V2,40.0,33.0,42.0,37.0,61.0,99999,1370.0,invalid,,,-1,V,2.0
V2,41.0,28.0,45.0,41.0,57.0,41,1411.0,square3,i,1.5547,2,V,2.0
V2,42.0,33.0,46.0,36.0,54.0,36,1447.0,square3,i,0.1839,2,V,2.0
V2,43.0,31.0,42.0,40.0,57.0,40,1487.0,square3,i,0.1213,2,V,2.0
V2,44.0,27.0,45.0,38.0,56.0,38,1525.0,square3,i,0.0357,2,V,2.0
V2,45.0,27.0,44.0,32.0,51.0,32,1557.0,square3,i,0.1104,2,V,2.0
V2,46.0,28.0,44.0,39.0,57.0,39,1596.0,square3,i,1.433,2,V,2.0
V2,47.0,30.0,45.0,36.0,56.0,36,1632.0,square3,i,0.1546,2,V,2.0
V2,48.0,31.0,47.0,41.0,59.0,41,1673.0,square3,i,0.1041,2,V,2.0
V2,49.0,32.0,45.0,33.0,57.0,99999,1673.0,invalid,,,-1,V,2.0
V2,50.0,24.0,38.0,36.0,52.0,99999,1673.0,invalid,,,-1,V,2.0
V2,51.0,29.0,48.0,34.0,54.0,99999,1673.0,invalid,,,-1,V,2.0
V2,52.0,30.0,50.0,38.0,56.0,99999,1673.0,invalid,,,-1,V,2.0
V2,53.0,27.0,47.0,33.0,55.0,33,1706.0,square3,i,0.7162,2,V,2.0
V2,54.0,34.0,21.0,45.0,25.0,45,1751.0,square3,i,0.1676,2,V,2.0
V2,55.0,36.0,19.0,39.0,24.0,39,1790.0,square3,i,0.1242,2,V,2.0
V2,56.0,29.0,19.0,45.0,18.0,99999,1790.0,invalid,,,-1,V,2.0
V2,57.0,29.0,20.0,39.0,20.0,99999,1790.0,invalid,,,-1,V,2.0
V2,58.0,40.0,18.0,42.0,21.0,99999,1790.0,invalid,,,-1,V,2.0
V2,59.0,31.0,17.0,44.0,23.0,99999,1790.0,invalid,,,-1,V,2.0
V2,60.0,31.0,19.0,42.0,20.0,99999,1790.0,invalid,,,-1,V,2.0
V2,61.0,34.0,16.0,41.0,25.0,99999,1790.0,invalid,,,-1,V,2.0
V2,62.0,28.0,12.0,41.0,22.0,41,1831.0,square3,i,0.701,2,V,2.0
V2,63.0,32.0,14.0,45.0,26.0,45,1876.0,square3,i,0.1445,2,V,2.0
V2,64.0,36.0,21.0,41.0,25.0,41,1917.0,square3,i,0.0969,2,V,2.0
V2,65.0,32.0,13.0,39.0,24.0,39,1956.0,square3,i,0.0847,2,V,2.0
V2,66.0,35.0,15.0,42.0,20.0,42,1998.0,square3,i,0.1842,2,V,2.0
V2,67.0,30.0,23.0,47.0,27.0,47,2045.0,square3,i,0.04,2,V,2.0
V2,68.0,31.0,17.0,43.0,24.0,43,2088.0,square3,i,0.1001,2,V,2.0
V2,69.0,33.0,20.0,41.0,20.0,41,2129.0,square3,i,0.1175,2,V,2.0
V2,70.0,37.0,17.0,43.0,21.0,43,2172.0,square3,i,0.0672,2,V,2.0
V2,71.0,45.0,31.0,36.0,58.0,36,2208.0,square3,i,0.0675,2,V,2.0
V2,72.0,47.0,31.0,31.0,54.0,31,2239.0,square3,i,0.0641,2,V,2.0
V2,73.0,50.0,30.0,33.0,55.0,33,2272.0,square3,i,0.0342,2,V,2.0
V2,74.0,45.0,31.0,36.0,51.0,36,2308.0,square3,i,0.105,2,V,2.0
V2,75.0,47.0,28.0,38.0,54.0,38,2346.0,square3,i,0.0933,2,V,2.0
V2,76.0,52.0,33.0,35.0,60.0,35,2381.0,square3,i,0.0918,2,V,2.0
V2,77.0,41.0,29.0,37.0,53.0,37,2418.0,square3,i,0.184,2,V,2.0
V2,78.0,51.0,24.0,34.0,56.0,34,2452.0,square3,i,0.1178,2,V,2.0
V2,79.0,41.0,34.0,36.0,52.0,36,2488.0,square3,i,0.1188,2,V,2.0
V2,80.0,48.0,31.0,37.0,51.0,37,2525.0,square3,i,0.1896,2,V,2.0
V2,81.0,43.0,32.0,40.0,53.0,40,2565.0,square3,i,0.1165,2,V,2.0
V2,82.0,48.0,25.0,37.0,58.0,48,2613.0,square1,f,0.1175,0,V,2.0
V2,83.0,45.0,32.0,36.0,61.0,45,2658.0,square1,f,0.0016,0,V,2.0
V2,84.0,47.0,29.0,39.0,60.0,47,2705.0,square1,f,0.1342,0,V,2.0
V2,85.0,49.0,30.0,39.0,54.0,49,2754.0,square1,f,0.1326,0,V,2.0
V2,86.0,46.0,28.0,33.0,51.0,46,2800.0,square1,f,0.1201,0,V,2.0
V2,87.0,45.0,24.0,37.0,55.0,45,2845.0,square1,f,0.0992,0,V,2.0
V2,88.0,48.0,29.0,42.0,54.0,48,2893.0,square1,f,0.1176,0,V,2.0
V2,89.0,43.0,31.0,38.0,52.0,43,2936.0,square1,f,0.1495,0,V,2.0
V2,90.0,51.0,33.0,36.0,56.0,51,2987.0,square1,f,0.1645,0,V,2.0
V2,91.0,49.0,32.0,37.0,59.0,49,3036.0,square1,f,0.1667,0,V,2.0
V2,92.0,47.0,29.0,37.0,56.0,47,3083.0,square1,f,0.0071,0,V,2.0
V2,93.0,45.0,27.0,35.0,56.0,45,3128.0,square1,f,0.0013,0,V,2.0
V2,94.0,45.0,31.0,31.0,49.0,45,3173.0,square1,f,0.1592,0,V,2.0
V2,95.0,47.0,33.0,36.0,52.0,47,3220.0,square1,f,0.2044,0,V,2.0
V2,96.0,44.0,28.0,37.0,59.0,44,3264.0,square1,f,0.6686,0,V,2.0
V2,97.0,48.0,28.0,33.0,55.0,48,3312.0,square1,f,0.1729,0,V,2.0
V2,98.0,49.0,29.0,39.0,60.0,49,3361.0,square1,f,0.082,0,V,2.0
V2,99.0,44.0,30.0,36.0,50.0,44,3405.0,square1,f,0.0839,0,V,2.0
V8,0.0,49.0,55.0,64.0,74.0,55,55.0,square2,j,1.2823,1,V,8.0
V8,1.0,51.0,54.0,70.0,81.0,70,125.0,square3,f,0.4836,2,V,8.0
V8,2.0,46.0,62.0,70.0,77.0,46,171.0,square1,r,0.1175,0,V,8.0
V8,3.0,46.0,56.0,67.0,75.0,75,246.0,square4,i,0.0395,3,V,8.0
V8,4.0,50.0,59.0,67.0,83.0,67,313.0,square3,f,0.6962,2,V,8.0
V8,5.0,51.0,54.0,65.0,78.0,78,391.0,square4,i,0.2947,3,V,8.0
V8,6.0,45.0,57.0,66.0,80.0,66,457.0,square3,f,0.2006,2,V,8.0
V8,7.0,46.0,64.0,68.0,77.0,77,534.0,square4,i,0.0137,3,V,8.0
V8,8.0,50.0,57.0,66.0,73.0,73,607.0,square4,i,0.0014,3,V,8.0
V8,9.0,46.0,56.0,71.0,72.0,72,679.0,square4,i,0.0484,3,V,8.0
V8,10.0,56.0,58.0,67.0,75.0,75,754.0,square4,i,0.1135,3,V,8.0
V8,11.0,50.0,61.0,69.0,74.0,74,828.0,square4,i,0.0347,3,V,8.0
V8,12.0,59.0,59.0,69.0,77.0,77,905.0,square4,i,0.1176,3,V,8.0
V8,13.0,50.0,56.0,72.0,77.0,77,982.0,square4,i,0.0874,3,V,8.0
V8,14.0,48.0,55.0,65.0,80.0,80,1062.0,square4,i,0.0016,3,V,8.0
V8,15.0,48.0,58.0,65.0,76.0,76,1138.0,square4,i,0.1029,3,V,8.0
V8,16.0,49.0,58.0,67.0,75.0,75,1213.0,square4,i,0.175,3,V,8.0
V8,17.0,51.0,56.0,68.0,76.0,76,1289.0,square4,i,0.1633,3,V,8.0
V8,18.0,52.0,63.0,69.0,80.0,80,1369.0,square4,i,0.0013,3,V,8.0
V8,19.0,54.0,54.0,71.0,79.0,79,1448.0,square4,i,0.033,3,V,8.0
V8,20.0,48.0,53.0,62.0,77.0,77,1525.0,square4,i,0.2012,3,V,8.0
V8,21.0,44.0,61.0,66.0,77.0,77,1602.0,square4,i,0.0166,3,V,8.0
V8,22.0,52.0,58.0,64.0,78.0,78,1680.0,square4,i,0.0295,3,V,8.0
V8,23.0,50.0,49.0,67.0,79.0,79,1759.0,square4,i,0.0014,3,V,8.0
V8,24.0,49.0,59.0,69.0,74.0,74,1833.0,square4,i,1.9328,3,V,8.0
V8,25.0,46.0,61.0,65.0,81.0,81,1914.0,square4,i,0.2004,3,V,8.0
V8,26.0,49.0,58.0,63.0,35.0,35,1949.0,square4,i,0.1174,3,V,8.0
V8,27.0,48.0,51.0,66.0,41.0,41,1990.0,square4,i,0.417,3,V,8.0
V8,28.0,46.0,55.0,65.0,38.0,38,2028.0,square4,i,0.1841,3,V,8.0
V8,29.0,47.0,58.0,69.0,40.0,40,2068.0,square4,i,0.0011,3,V,8.0
V8,30.0,42.0,55.0,67.0,43.0,43,2111.0,square4,i,0.0013,3,V,8.0
V8,31.0,49.0,56.0,64.0,36.0,64,2175.0,square3,f,0.3996,2,V,8.0
V8,32.0,49.0,55.0,69.0,38.0,69,2244.0,square3,f,0.1008,2,V,8.0
V8,33.0,44.0,52.0,65.0,48.0,65,2309.0,square3,f,0.0073,2,V,8.0
V8,34.0,44.0,57.0,70.0,45.0,70,2379.0,square3,f,0.1006,2,V,8.0
V8,35.0,44.0,54.0,68.0,38.0,68,2447.0,square3,f,0.156,2,V,8.0
V8,36.0,45.0,56.0,64.0,40.0,64,2511.0,square3,f,0.1324,2,V,8.0
V8,37.0,47.0,57.0,66.0,37.0,66,2577.0,square3,f,0.2176,2,V,8.0
V8,38.0,49.0,50.0,66.0,37.0,66,2643.0,square3,f,0.0121,2,V,8.0
V8,39.0,51.0,56.0,61.0,39.0,61,2704.0,square3,f,0.1847,2,V,8.0
V8,40.0,47.0,59.0,66.0,41.0,66,2770.0,square3,f,0.1888,2,V,8.0
V8,41.0,42.0,56.0,69.0,42.0,69,2839.0,square3,f,0.117,2,V,8.0
V8,42.0,47.0,57.0,72.0,35.0,72,2911.0,square3,f,0.0513,2,V,8.0
V8,43.0,47.0,57.0,63.0,44.0,63,2974.0,square3,f,0.0118,2,V,8.0
V8,44.0,45.0,58.0,67.0,42.0,67,3041.0,square3,f,0.0061,2,V,8.0
V8,45.0,44.0,56.0,66.0,43.0,66,3107.0,square3,f,0.1538,2,V,8.0
V8,46.0,46.0,53.0,70.0,37.0,70,3177.0,square3,f,0.0506,2,V,8.0
V8,47.0,54.0,53.0,71.0,41.0,71,3248.0,square3,f,0.0013,2,V,8.0
V8,48.0,49.0,53.0,69.0,37.0,69,3317.0,square3,f,0.0578,2,V,8.0
V8,49.0,39.0,57.0,65.0,47.0,65,3382.0,square3,f,0.0114,2,V,8.0
V8,50.0,48.0,55.0,65.0,41.0,65,3447.0,square3,f,0.0418,2,V,8.0
V8,51.0,45.0,61.0,68.0,43.0,68,3515.0,square3,f,0.0844,2,V,8.0
V8,52.0,53.0,52.0,68.0,37.0,68,3583.0,square3,f,0.0954,2,V,8.0
V8,53.0,47.0,55.0,66.0,46.0,66,3649.0,square3,f,0.3686,2,V,8.0
V8,54.0,49.0,53.0,61.0,39.0,61,3710.0,square3,f,0.2735,2,V,8.0
V8,55.0,53.0,70.0,55.0,72.0,55,3765.0,square3,f,0.0018,2,V,8.0
V8,56.0,57.0,63.0,48.0,73.0,48,3813.0,square3,f,0.0518,2,V,8.0
V8,57.0,53.0,71.0,45.0,80.0,45,3858.0,square3,f,0.1754,2,V,8.0
V8,58.0,57.0,69.0,52.0,73.0,52,3910.0,square3,f,0.1213,2,V,8.0
V8,59.0,58.0,67.0,54.0,73.0,54,3964.0,square3,f,0.0279,2,V,8.0
V8,60.0,55.0,66.0,47.0,76.0,47,4011.0,square3,f,0.0049,2,V,8.0
V8,61.0,56.0,65.0,54.0,72.0,54,4065.0,square3,f,0.1702,2,V,8.0
V8,62.0,56.0,65.0,49.0,75.0,49,4114.0,square3,f,0.04,2,V,8.0
V8,63.0,61.0,65.0,44.0,78.0,44,4158.0,square3,f,0.0592,2,V,8.0
V8,64.0,54.0,66.0,48.0,75.0,48,4206.0,square3,f,0.0174,2,V,8.0
V8,65.0,59.0,65.0,46.0,79.0,46,4252.0,square3,f,0.1622,2,V,8.0
V8,66.0,51.0,62.0,46.0,73.0,46,4298.0,square3,f,0.1886,2,V,8.0
V8,67.0,60.0,70.0,45.0,76.0,45,4343.0,square3,f,0.1069,2,V,8.0
V8,68.0,63.0,64.0,47.0,73.0,47,4390.0,square3,f,0.1724,2,V,8.0
V8,69.0,58.0,66.0,43.0,77.0,43,4433.0,square3,f,0.0015,2,V,8.0
V8,70.0,59.0,65.0,49.0,73.0,49,4482.0,square3,f,0.0407,2,V,8.0
V8,71.0,60.0,64.0,49.0,79.0,49,4531.0,square3,f,0.1393,2,V,8.0
V8,72.0,96.0,68.0,78.0,67.0,78,4609.0,square3,f,0.0701,2,V,8.0
V8,73.0,96.0,68.0,79.0,64.0,79,4688.0,square3,f,0.0562,2,V,8.0
V8,74.0,92.0,67.0,81.0,62.0,81,4769.0,square3,f,0.0423,2,V,8.0
V8,75.0,96.0,72.0,83.0,62.0,83,4852.0,square3,f,0.2898,2,V,8.0
V8,76.0,94.0,70.0,77.0,57.0,77,4929.0,square3,f,0.0535,2,V,8.0
V8,77.0,91.0,68.0,81.0,59.0,81,5010.0,square3,f,0.0681,2,V,8.0
V8,78.0,90.0,73.0,80.0,63.0,80,5090.0,square3,f,0.1167,2,V,8.0
V8,79.0,90.0,73.0,83.0,61.0,83,5173.0,square3,f,0.1724,2,V,8.0
V8,80.0,95.0,75.0,81.0,66.0,81,5254.0,square3,f,0.1018,2,V,8.0
V8,81.0,92.0,72.0,81.0,57.0,81,5335.0,square3,f,0.1443,2,V,8.0
V8,82.0,91.0,71.0,80.0,61.0,80,5415.0,square3,f,0.0018,2,V,8.0
V8,83.0,90.0,66.0,83.0,62.0,83,5498.0,square3,f,0.2073,2,V,8.0
V8,84.0,93.0,67.0,87.0,65.0,87,5585.0,square3,f,0.1573,2,V,8.0
V8,85.0,85.0,70.0,80.0,62.0,80,5665.0,square3,f,0.1533,2,V,8.0
V8,86.0,84.0,72.0,85.0,62.0,85,5750.0,square3,f,0.2069,2,V,8.0
V8,87.0,91.0,68.0,82.0,65.0,82,5832.0,square3,f,0.0294,2,V,8.0
V8,88.0,93.0,67.0,83.0,61.0,83,5915.0,square3,f,0.0233,2,V,8.0
V8,89.0,95.0,68.0,78.0,66.0,78,5993.0,square3,f,0.0025,2,V,8.0
V8,90.0,91.0,73.0,80.0,60.0,80,6073.0,square3,f,0.0453,2,V,8.0
V8,91.0,93.0,68.0,81.0,64.0,81,6154.0,square3,f,0.042,2,V,8.0
V8,92.0,90.0,75.0,82.0,67.0,82,6236.0,square3,f,0.0426,2,V,8.0
V8,93.0,92.0,70.0,82.0,66.0,82,6318.0,square3,f,0.1388,2,V,8.0
V8,94.0,90.0,71.0,78.0,63.0,78,6396.0,square3,f,0.1069,2,V,8.0
V8,95.0,88.0,65.0,78.0,63.0,78,6474.0,square3,f,0.1723,2,V,8.0
V8,96.0,89.0,72.0,85.0,62.0,85,6559.0,square3,f,0.0895,2,V,8.0
V8,97.0,92.0,72.0,77.0,67.0,77,6636.0,square3,f,0.122,2,V,8.0
V8,98.0,86.0,63.0,82.0,62.0,82,6718.0,square3,f,0.09,2,V,8.0
V8,99.0,90.0,66.0,75.0,61.0,75,6793.0,square3,f,0.1478,2,V,8.0
