block,Trial,square1,square2,square3,square4,currPoints,totalPoints,square,choiceKey.keys,choiceKey.rt,armNum,blockType,blockNum
prac,0.0,100.0,0.0,0.0,0.0,0,0.0,square3,,,2,p,0.0
prac,1.0,100.0,0.0,0.0,0.0,99999,0.0,invalid,,,-1,p,0.0
prac,2.0,100.0,0.0,0.0,0.0,99999,0.0,invalid,,,-1,p,0.0
prac,3.0,100.0,0.0,0.0,0.0,100,100.0,square1,,,0,p,0.0
prac,4.0,100.0,0.0,0.0,0.0,0,100.0,square2,,,1,p,0.0
prac,5.0,100.0,0.0,0.0,0.0,100,200.0,square1,,,0,p,0.0
prac,6.0,100.0,0.0,0.0,0.0,0,200.0,square4,,,3,p,0.0
prac,7.0,100.0,0.0,0.0,0.0,0,200.0,square2,,,1,p,0.0
prac,8.0,100.0,0.0,0.0,0.0,100,300.0,square1,,,0,p,0.0
prac,9.0,100.0,0.0,0.0,0.0,100,400.0,square1,,,0,p,0.0
S10,0.0,72.0,76.0,80.0,64.0,72,72.0,square1,r,0.8896,0,S,10.0
S10,1.0,76.0,75.0,74.0,65.0,74,146.0,square3,i,0.2458,2,S,10.0
S10,2.0,70.0,72.0,79.0,74.0,74,220.0,square4,j,0.1341,3,S,10.0
S10,3.0,69.0,77.0,76.0,68.0,77,297.0,square2,f,0.6331,1,S,10.0
S10,4.0,72.0,79.0,77.0,70.0,79,376.0,square2,f,0.3677,1,S,10.0
S10,5.0,68.0,74.0,72.0,64.0,64,440.0,square4,j,0.3005,3,S,10.0
S10,6.0,70.0,77.0,72.0,62.0,72,512.0,square3,i,0.0985,2,S,10.0
S10,7.0,78.0,81.0,80.0,74.0,78,590.0,square1,r,0.1021,0,S,10.0
S10,8.0,78.0,78.0,82.0,66.0,78,668.0,square2,f,0.2981,1,S,10.0
S10,9.0,69.0,76.0,77.0,65.0,69,737.0,square1,r,0.0483,0,S,10.0
S10,10.0,72.0,78.0,72.0,75.0,78,815.0,square2,f,0.084,1,S,10.0
S10,11.0,71.0,76.0,78.0,66.0,71,886.0,square1,r,0.5169,0,S,10.0
S10,12.0,73.0,83.0,79.0,69.0,83,969.0,square2,f,0.2189,1,S,10.0
S10,13.0,68.0,77.0,65.0,65.0,77,1046.0,square2,f,0.2176,1,S,10.0
S10,14.0,69.0,84.0,79.0,65.0,84,1130.0,square2,f,0.2978,1,S,10.0
S10,15.0,72.0,84.0,70.0,71.0,84,1214.0,square2,f,0.0334,1,S,10.0
S10,16.0,79.0,80.0,82.0,67.0,80,1294.0,square2,f,0.0146,1,S,10.0
S10,17.0,69.0,83.0,75.0,70.0,83,1377.0,square2,f,0.0857,1,S,10.0
S10,18.0,69.0,75.0,69.0,68.0,69,1446.0,square3,i,0.8978,2,S,10.0
S10,19.0,70.0,83.0,73.0,66.0,83,1529.0,square2,f,0.2663,1,S,10.0
S10,20.0,69.0,83.0,75.0,66.0,83,1612.0,square2,f,0.1345,1,S,10.0
S10,21.0,77.0,70.0,75.0,70.0,70,1682.0,square2,f,1.1309,1,S,10.0
S10,22.0,73.0,77.0,81.0,69.0,69,1751.0,square4,j,0.3335,3,S,10.0
S10,23.0,73.0,78.0,70.0,65.0,78,1829.0,square2,f,0.0926,1,S,10.0
S10,24.0,70.0,80.0,75.0,66.0,70,1899.0,square1,r,0.1983,0,S,10.0
S10,25.0,70.0,80.0,73.0,72.0,80,1979.0,square2,f,0.8838,1,S,10.0
S10,26.0,73.0,75.0,73.0,75.0,75,2054.0,square2,f,0.0717,1,S,10.0
S10,27.0,77.0,81.0,83.0,66.0,81,2135.0,square2,f,0.0651,1,S,10.0
S10,28.0,73.0,79.0,79.0,73.0,79,2214.0,square2,f,0.0016,1,S,10.0
S10,29.0,73.0,79.0,72.0,69.0,79,2293.0,square2,f,0.0016,1,S,10.0
S10,30.0,71.0,85.0,79.0,69.0,85,2378.0,square2,f,0.0844,1,S,10.0
S10,31.0,71.0,85.0,83.0,66.0,85,2463.0,square2,f,0.0146,1,S,10.0
S10,32.0,78.0,79.0,77.0,65.0,79,2542.0,square2,f,0.0014,1,S,10.0
S10,33.0,83.0,79.0,72.0,68.0,79,2621.0,square2,f,0.0652,1,S,10.0
S10,34.0,68.0,74.0,79.0,72.0,74,2695.0,square2,f,0.1008,1,S,10.0
S10,35.0,70.0,83.0,79.0,67.0,83,2778.0,square2,f,0.1161,1,S,10.0
S10,36.0,67.0,76.0,75.0,72.0,76,2854.0,square2,f,0.0014,1,S,10.0
S10,37.0,76.0,82.0,79.0,60.0,82,2936.0,square2,f,0.1307,1,S,10.0
S10,38.0,72.0,75.0,69.0,68.0,75,3011.0,square2,f,0.0652,1,S,10.0
S10,39.0,73.0,78.0,76.0,70.0,70,3081.0,square4,j,0.3178,3,S,10.0
S10,40.0,76.0,77.0,66.0,60.0,77,3158.0,square2,f,0.1346,1,S,10.0
S10,41.0,74.0,83.0,73.0,67.0,83,3241.0,square2,f,0.0674,1,S,10.0
S10,42.0,72.0,69.0,80.0,63.0,69,3310.0,square2,f,0.0642,1,S,10.0
S10,43.0,69.0,74.0,72.0,68.0,74,3384.0,square2,f,0.0649,1,S,10.0
S10,44.0,67.0,76.0,70.0,65.0,76,3460.0,square2,f,0.1162,1,S,10.0
S10,45.0,76.0,81.0,74.0,72.0,81,3541.0,square2,f,0.296,1,S,10.0
S10,46.0,76.0,79.0,76.0,66.0,76,3617.0,square1,r,0.0349,0,S,10.0
S10,47.0,67.0,81.0,84.0,60.0,67,3684.0,square1,r,0.0811,0,S,10.0
S10,48.0,73.0,83.0,75.0,66.0,73,3757.0,square1,r,0.4477,0,S,10.0
S10,49.0,66.0,77.0,74.0,71.0,77,3834.0,square2,f,0.1476,1,S,10.0
S4,0.0,18.0,16.0,34.0,20.0,20,20.0,square4,r,1.2756,3,S,4.0
S4,1.0,33.0,26.0,26.0,23.0,26,46.0,square2,i,0.0015,1,S,4.0
S4,2.0,35.0,15.0,33.0,22.0,33,79.0,square3,j,0.0181,2,S,4.0
S4,3.0,28.0,19.0,27.0,27.0,28,107.0,square1,f,0.8142,0,S,4.0
S4,4.0,27.0,16.0,25.0,28.0,25,132.0,square3,j,0.117,2,S,4.0
S4,5.0,23.0,22.0,31.0,24.0,31,163.0,square3,j,0.0142,2,S,4.0
S4,6.0,25.0,20.0,34.0,23.0,34,197.0,square3,j,0.0015,2,S,4.0
S4,7.0,21.0,22.0,30.0,21.0,22,219.0,square2,i,0.031,1,S,4.0
S4,8.0,33.0,24.0,33.0,17.0,33,252.0,square3,j,0.3182,2,S,4.0
S4,9.0,24.0,18.0,31.0,28.0,31,283.0,square3,j,0.064,2,S,4.0
S4,10.0,31.0,26.0,35.0,20.0,35,318.0,square3,j,0.2981,2,S,4.0
S4,11.0,25.0,15.0,31.0,25.0,25,343.0,square1,f,0.4978,0,S,4.0
S4,12.0,24.0,16.0,29.0,22.0,29,372.0,square3,j,0.1176,2,S,4.0
S4,13.0,28.0,23.0,25.0,17.0,25,397.0,square3,j,0.1012,2,S,4.0
S4,14.0,22.0,23.0,21.0,23.0,21,418.0,square3,j,0.0481,2,S,4.0
S4,15.0,25.0,19.0,28.0,25.0,25,443.0,square4,r,0.2477,3,S,4.0
S4,16.0,26.0,17.0,30.0,21.0,30,473.0,square3,j,0.2477,2,S,4.0
S4,17.0,22.0,21.0,29.0,22.0,29,502.0,square3,j,0.0671,2,S,4.0
S4,18.0,28.0,22.0,32.0,22.0,32,534.0,square3,j,0.0475,2,S,4.0
S4,19.0,26.0,19.0,31.0,26.0,31,565.0,square3,j,0.0141,2,S,4.0
S4,20.0,28.0,18.0,28.0,25.0,28,593.0,square3,j,0.1681,2,S,4.0
S4,21.0,33.0,26.0,21.0,29.0,21,614.0,square3,j,0.0302,2,S,4.0
S4,22.0,31.0,19.0,29.0,20.0,31,645.0,square1,f,0.6839,0,S,4.0
S4,23.0,27.0,21.0,36.0,26.0,36,681.0,square3,j,0.0174,2,S,4.0
S4,24.0,28.0,15.0,32.0,21.0,32,713.0,square3,j,0.1812,2,S,4.0
S4,25.0,27.0,18.0,28.0,25.0,28,741.0,square3,j,0.1509,2,S,4.0
S4,26.0,26.0,20.0,27.0,14.0,20,761.0,square2,i,0.0015,1,S,4.0
S4,27.0,28.0,19.0,36.0,18.0,36,797.0,square3,j,0.202,2,S,4.0
S4,28.0,28.0,19.0,28.0,23.0,28,825.0,square3,j,0.1295,2,S,4.0
S4,29.0,25.0,22.0,29.0,23.0,29,854.0,square3,j,0.0482,2,S,4.0
S4,30.0,26.0,16.0,30.0,20.0,20,874.0,square4,r,0.0507,3,S,4.0
S4,31.0,23.0,25.0,26.0,30.0,26,900.0,square3,j,0.0312,2,S,4.0
S4,32.0,21.0,26.0,22.0,23.0,22,922.0,square3,j,0.1508,2,S,4.0
S4,33.0,25.0,22.0,24.0,17.0,24,946.0,square3,j,0.1344,2,S,4.0
S4,34.0,30.0,22.0,33.0,24.0,33,979.0,square3,j,0.0176,2,S,4.0
S4,35.0,23.0,21.0,35.0,26.0,35,1014.0,square3,j,0.1168,2,S,4.0
S4,36.0,19.0,21.0,33.0,24.0,33,1047.0,square3,j,0.1486,2,S,4.0
S4,37.0,20.0,17.0,26.0,26.0,26,1073.0,square3,j,0.0648,2,S,4.0
S4,38.0,28.0,20.0,28.0,26.0,28,1101.0,square3,j,0.1503,2,S,4.0
S4,39.0,28.0,23.0,40.0,27.0,40,1141.0,square3,j,0.4001,2,S,4.0
S4,40.0,25.0,24.0,32.0,22.0,32,1173.0,square3,j,0.1673,2,S,4.0
S4,41.0,23.0,23.0,26.0,17.0,26,1199.0,square3,j,0.0312,2,S,4.0
S4,42.0,26.0,18.0,33.0,22.0,18,1217.0,square2,i,0.3511,1,S,4.0
S4,43.0,22.0,21.0,36.0,25.0,36,1253.0,square3,j,0.0513,2,S,4.0
S4,44.0,21.0,18.0,33.0,14.0,33,1286.0,square3,j,0.0142,2,S,4.0
S4,45.0,29.0,19.0,30.0,29.0,30,1316.0,square3,j,0.1325,2,S,4.0
S4,46.0,21.0,16.0,22.0,23.0,22,1338.0,square3,j,0.1488,2,S,4.0
S4,47.0,22.0,18.0,28.0,22.0,28,1366.0,square3,j,1.0572,2,S,4.0
S4,48.0,33.0,21.0,32.0,26.0,33,1399.0,square1,f,0.1321,0,S,4.0
S4,49.0,23.0,17.0,20.0,21.0,20,1419.0,square3,j,0.0323,2,S,4.0
S1,0.0,72.0,58.0,70.0,66.0,99999,0.0,invalid,,,-1,S,1.0
S1,1.0,75.0,64.0,66.0,69.0,75,75.0,square1,i,0.5484,0,S,1.0
S1,2.0,75.0,62.0,62.0,79.0,62,137.0,square2,r,0.101,1,S,1.0
S1,3.0,68.0,62.0,63.0,69.0,63,200.0,square3,f,0.1483,2,S,1.0
S1,4.0,82.0,63.0,64.0,73.0,73,273.0,square4,j,0.0344,3,S,1.0
S1,5.0,66.0,70.0,65.0,73.0,66,339.0,square1,i,0.1349,0,S,1.0
S1,6.0,73.0,65.0,62.0,65.0,65,404.0,square4,j,0.0968,3,S,1.0
S1,7.0,70.0,61.0,65.0,66.0,70,474.0,square1,i,0.4973,0,S,1.0
S1,8.0,78.0,63.0,67.0,68.0,68,542.0,square4,j,0.068,3,S,1.0
S1,9.0,74.0,67.0,66.0,68.0,66,608.0,square3,f,0.1968,2,S,1.0
S1,10.0,73.0,59.0,68.0,68.0,59,667.0,square2,r,0.0837,1,S,1.0
S1,11.0,76.0,65.0,62.0,81.0,76,743.0,square1,i,0.418,0,S,1.0
S1,12.0,77.0,66.0,69.0,63.0,63,806.0,square4,j,0.1182,3,S,1.0
S1,13.0,75.0,63.0,68.0,73.0,75,881.0,square1,i,0.3012,0,S,1.0
S1,14.0,67.0,60.0,67.0,69.0,67,948.0,square1,i,0.1155,0,S,1.0
S1,15.0,70.0,63.0,69.0,73.0,73,1021.0,square4,j,0.0035,3,S,1.0
S1,16.0,69.0,61.0,69.0,69.0,69,1090.0,square4,j,0.0665,3,S,1.0
S1,17.0,73.0,68.0,67.0,73.0,73,1163.0,square1,i,0.118,0,S,1.0
S1,18.0,70.0,58.0,73.0,66.0,66,1229.0,square4,j,0.5507,3,S,1.0
S1,19.0,75.0,58.0,62.0,68.0,75,1304.0,square1,i,0.0995,0,S,1.0
S1,20.0,76.0,58.0,72.0,67.0,67,1371.0,square4,j,0.1337,3,S,1.0
S1,21.0,69.0,66.0,66.0,67.0,69,1440.0,square1,i,0.148,0,S,1.0
S1,22.0,70.0,68.0,65.0,65.0,70,1510.0,square1,i,0.0675,0,S,1.0
S1,23.0,71.0,60.0,64.0,64.0,71,1581.0,square1,i,0.1016,0,S,1.0
S1,24.0,70.0,72.0,62.0,67.0,70,1651.0,square1,i,0.1506,0,S,1.0
S1,25.0,68.0,60.0,70.0,65.0,68,1719.0,square1,i,0.0015,0,S,1.0
S1,26.0,76.0,64.0,72.0,69.0,69,1788.0,square4,j,0.3467,3,S,1.0
S1,27.0,71.0,56.0,70.0,65.0,65,1853.0,square4,j,0.0834,3,S,1.0
S1,28.0,67.0,67.0,71.0,76.0,76,1929.0,square4,j,0.1167,3,S,1.0
S1,29.0,78.0,64.0,64.0,74.0,74,2003.0,square4,j,0.6641,3,S,1.0
S1,30.0,74.0,63.0,65.0,71.0,71,2074.0,square4,j,0.0015,3,S,1.0
S1,31.0,78.0,58.0,69.0,69.0,69,2143.0,square4,j,0.0345,3,S,1.0
S1,32.0,71.0,67.0,68.0,60.0,68,2211.0,square3,f,0.9493,2,S,1.0
S1,33.0,68.0,63.0,65.0,73.0,63,2274.0,square2,r,0.1017,1,S,1.0
S1,34.0,71.0,62.0,74.0,73.0,74,2348.0,square3,f,0.1071,2,S,1.0
S1,35.0,75.0,59.0,67.0,77.0,67,2415.0,square3,f,0.0473,2,S,1.0
S1,36.0,77.0,60.0,66.0,67.0,66,2481.0,square3,f,0.0171,2,S,1.0
S1,37.0,69.0,60.0,69.0,75.0,69,2550.0,square3,f,0.0347,2,S,1.0
S1,38.0,77.0,64.0,62.0,70.0,62,2612.0,square3,f,0.0841,2,S,1.0
S1,39.0,72.0,66.0,69.0,65.0,65,2677.0,square4,j,0.1678,3,S,1.0
S1,40.0,69.0,63.0,66.0,69.0,69,2746.0,square4,j,0.231,3,S,1.0
S1,41.0,72.0,62.0,70.0,70.0,70,2816.0,square4,j,0.0992,3,S,1.0
S1,42.0,78.0,60.0,63.0,62.0,78,2894.0,square1,i,0.1466,0,S,1.0
S1,43.0,71.0,62.0,67.0,73.0,71,2965.0,square1,i,0.0173,0,S,1.0
S1,44.0,75.0,63.0,69.0,73.0,75,3040.0,square1,i,0.0344,0,S,1.0
S1,45.0,66.0,60.0,68.0,73.0,66,3106.0,square1,i,0.1515,0,S,1.0
S1,46.0,74.0,67.0,69.0,71.0,71,3177.0,square4,j,0.0505,3,S,1.0
S1,47.0,71.0,66.0,68.0,70.0,70,3247.0,square4,j,0.1753,3,S,1.0
S1,48.0,72.0,75.0,71.0,77.0,72,3319.0,square1,i,0.1341,0,S,1.0
S1,49.0,65.0,57.0,66.0,75.0,65,3384.0,square1,i,0.2836,0,S,1.0
S5,0.0,90.0,70.0,79.0,84.0,99999,0.0,invalid,,,-1,S,5.0
S5,1.0,92.0,77.0,83.0,81.0,83,83.0,square3,i,0.402,2,S,5.0
S5,2.0,83.0,72.0,81.0,76.0,81,164.0,square3,i,0.1186,2,S,5.0
S5,3.0,87.0,72.0,79.0,81.0,87,251.0,square1,r,0.0837,0,S,5.0
S5,4.0,86.0,81.0,78.0,72.0,86,337.0,square1,r,0.0035,0,S,5.0
S5,5.0,89.0,70.0,79.0,83.0,83,420.0,square4,f,0.2181,3,S,5.0
S5,6.0,86.0,69.0,81.0,81.0,81,501.0,square4,f,0.1171,3,S,5.0
S5,7.0,82.0,72.0,86.0,80.0,72,573.0,square2,j,0.1165,1,S,5.0
S5,8.0,84.0,67.0,80.0,77.0,67,640.0,square2,j,0.1147,1,S,5.0
S5,9.0,92.0,80.0,86.0,84.0,92,732.0,square1,r,0.0017,0,S,5.0
S5,10.0,82.0,71.0,80.0,80.0,82,814.0,square1,r,0.1077,0,S,5.0
S5,11.0,80.0,75.0,79.0,75.0,80,894.0,square1,r,0.0839,0,S,5.0
S5,12.0,84.0,75.0,80.0,82.0,82,976.0,square4,f,0.1338,3,S,5.0
S5,13.0,85.0,74.0,74.0,81.0,85,1061.0,square1,r,0.1516,0,S,5.0
S5,14.0,81.0,79.0,85.0,81.0,81,1142.0,square1,r,0.0015,0,S,5.0
S5,15.0,81.0,75.0,76.0,77.0,77,1219.0,square4,f,0.0637,3,S,5.0
S5,16.0,86.0,74.0,78.0,74.0,86,1305.0,square1,r,0.0976,0,S,5.0
S5,17.0,81.0,77.0,81.0,77.0,81,1386.0,square1,r,0.0372,0,S,5.0
S5,18.0,87.0,70.0,84.0,82.0,84,1470.0,square3,i,0.1512,2,S,5.0
S5,19.0,84.0,76.0,83.0,76.0,84,1554.0,square1,r,0.0636,0,S,5.0
S5,20.0,79.0,78.0,82.0,76.0,79,1633.0,square1,r,0.0686,0,S,5.0
S5,21.0,86.0,68.0,80.0,72.0,80,1713.0,square3,i,0.0013,2,S,5.0
S5,22.0,93.0,80.0,85.0,84.0,85,1798.0,square3,i,0.0011,2,S,5.0
S5,23.0,87.0,73.0,76.0,70.0,76,1874.0,square3,i,0.184,2,S,5.0
S5,24.0,85.0,69.0,81.0,78.0,81,1955.0,square3,i,0.1664,2,S,5.0
S5,25.0,89.0,77.0,77.0,76.0,77,2032.0,square3,i,0.0015,2,S,5.0
S5,26.0,84.0,71.0,81.0,75.0,81,2113.0,square3,i,0.3721,2,S,5.0
S5,27.0,84.0,75.0,82.0,71.0,84,2197.0,square1,r,0.1141,0,S,5.0
S5,28.0,83.0,72.0,82.0,78.0,83,2280.0,square1,r,0.0321,0,S,5.0
S5,29.0,91.0,67.0,79.0,74.0,91,2371.0,square1,r,0.0322,0,S,5.0
S5,30.0,82.0,69.0,81.0,77.0,82,2453.0,square1,r,0.0846,0,S,5.0
S5,31.0,82.0,72.0,80.0,78.0,82,2535.0,square1,r,0.1178,0,S,5.0
S5,32.0,83.0,73.0,91.0,80.0,83,2618.0,square1,r,0.0839,0,S,5.0
S5,33.0,83.0,68.0,85.0,78.0,83,2701.0,square1,r,0.068,0,S,5.0
S5,34.0,89.0,79.0,83.0,77.0,89,2790.0,square1,r,0.0639,0,S,5.0
S5,35.0,88.0,72.0,79.0,80.0,88,2878.0,square1,r,0.0345,0,S,5.0
S5,36.0,90.0,74.0,84.0,76.0,90,2968.0,square1,r,0.0966,0,S,5.0
S5,37.0,85.0,75.0,80.0,82.0,82,3050.0,square4,f,0.0138,3,S,5.0
S5,38.0,78.0,74.0,85.0,79.0,78,3128.0,square1,r,0.0848,0,S,5.0
S5,39.0,87.0,73.0,87.0,85.0,87,3215.0,square1,r,0.0513,0,S,5.0
S5,40.0,83.0,67.0,81.0,80.0,67,3282.0,square2,j,0.3499,1,S,5.0
S5,41.0,82.0,69.0,88.0,80.0,82,3364.0,square1,r,0.1317,0,S,5.0
S5,42.0,85.0,78.0,91.0,80.0,85,3449.0,square1,r,0.0665,0,S,5.0
S5,43.0,89.0,74.0,78.0,74.0,89,3538.0,square1,r,0.0807,0,S,5.0
S5,44.0,90.0,74.0,77.0,85.0,90,3628.0,square1,r,0.1292,0,S,5.0
S5,45.0,89.0,68.0,81.0,78.0,89,3717.0,square1,r,0.1017,0,S,5.0
S5,46.0,86.0,70.0,86.0,68.0,86,3803.0,square1,r,0.0973,0,S,5.0
S5,47.0,90.0,77.0,85.0,84.0,90,3893.0,square1,r,0.034,0,S,5.0
S5,48.0,76.0,66.0,82.0,79.0,76,3969.0,square1,r,0.0478,0,S,5.0
S5,49.0,84.0,73.0,82.0,75.0,84,4053.0,square1,r,0.0638,0,S,5.0
S2,0.0,62.0,57.0,71.0,74.0,99999,0.0,invalid,,,-1,S,2.0
S2,1.0,64.0,59.0,72.0,67.0,64,64.0,square1,i,0.3297,0,S,2.0
S2,2.0,68.0,57.0,75.0,68.0,68,132.0,square4,r,0.1325,3,S,2.0
S2,3.0,69.0,57.0,80.0,70.0,57,189.0,square2,f,0.1516,1,S,2.0
S2,4.0,66.0,60.0,74.0,68.0,74,263.0,square3,j,0.3833,2,S,2.0
S2,5.0,63.0,62.0,77.0,72.0,77,340.0,square3,j,0.3128,2,S,2.0
S2,6.0,69.0,61.0,75.0,74.0,75,415.0,square3,j,0.0874,2,S,2.0
S2,7.0,74.0,66.0,79.0,72.0,66,481.0,square2,f,0.2172,1,S,2.0
S2,8.0,81.0,65.0,76.0,72.0,76,557.0,square3,j,0.1513,2,S,2.0
S2,9.0,70.0,66.0,78.0,70.0,78,635.0,square3,j,0.0726,2,S,2.0
S2,10.0,70.0,72.0,70.0,74.0,70,705.0,square1,i,0.133,0,S,2.0
S2,11.0,64.0,66.0,72.0,67.0,72,777.0,square3,j,0.0544,2,S,2.0
S2,12.0,66.0,57.0,70.0,67.0,70,847.0,square3,j,0.0476,2,S,2.0
S2,13.0,68.0,68.0,71.0,73.0,73,920.0,square4,r,0.1343,3,S,2.0
S2,14.0,70.0,63.0,77.0,71.0,77,997.0,square3,j,0.1506,2,S,2.0
S2,15.0,64.0,66.0,75.0,66.0,75,1072.0,square3,j,0.1028,2,S,2.0
S2,16.0,67.0,61.0,73.0,70.0,70,1142.0,square4,r,0.1169,3,S,2.0
S2,17.0,65.0,58.0,71.0,75.0,75,1217.0,square4,r,0.0926,3,S,2.0
S2,18.0,72.0,64.0,81.0,61.0,61,1278.0,square4,r,0.0015,3,S,2.0
S2,19.0,60.0,63.0,72.0,65.0,72,1350.0,square3,j,0.2977,2,S,2.0
S2,20.0,68.0,56.0,71.0,70.0,71,1421.0,square3,j,0.1298,2,S,2.0
S2,21.0,65.0,65.0,74.0,71.0,74,1495.0,square3,j,0.0735,2,S,2.0
S2,22.0,69.0,62.0,77.0,72.0,77,1572.0,square3,j,0.1853,2,S,2.0
S2,23.0,64.0,71.0,74.0,65.0,74,1646.0,square3,j,0.0683,2,S,2.0
S2,24.0,66.0,62.0,78.0,70.0,66,1712.0,square1,i,0.1508,0,S,2.0
S2,25.0,67.0,69.0,76.0,66.0,67,1779.0,square1,i,0.0013,0,S,2.0
S2,26.0,65.0,63.0,74.0,69.0,65,1844.0,square1,i,0.4062,0,S,2.0
S2,27.0,68.0,64.0,67.0,68.0,67,1911.0,square3,j,0.1345,2,S,2.0
S2,28.0,61.0,52.0,71.0,68.0,71,1982.0,square3,j,0.0997,2,S,2.0
S2,29.0,67.0,64.0,73.0,69.0,73,2055.0,square3,j,0.1402,2,S,2.0
S2,30.0,67.0,53.0,77.0,67.0,77,2132.0,square3,j,0.116,2,S,2.0
S2,31.0,67.0,69.0,69.0,68.0,69,2201.0,square3,j,0.083,2,S,2.0
S2,32.0,71.0,63.0,73.0,70.0,73,2274.0,square3,j,0.0838,2,S,2.0
S2,33.0,61.0,65.0,68.0,71.0,65,2339.0,square2,f,0.5131,1,S,2.0
S2,34.0,66.0,55.0,78.0,68.0,78,2417.0,square3,j,0.1069,2,S,2.0
S2,35.0,60.0,57.0,66.0,66.0,66,2483.0,square3,j,0.0663,2,S,2.0
S2,36.0,64.0,63.0,73.0,72.0,73,2556.0,square3,j,0.0955,2,S,2.0
S2,37.0,65.0,62.0,75.0,68.0,75,2631.0,square3,j,0.13,2,S,2.0
S2,38.0,69.0,57.0,71.0,62.0,71,2702.0,square3,j,0.0175,2,S,2.0
S2,39.0,72.0,66.0,74.0,74.0,74,2776.0,square3,j,0.1053,2,S,2.0
S2,40.0,66.0,63.0,76.0,59.0,59,2835.0,square4,r,0.0497,3,S,2.0
S2,41.0,74.0,64.0,67.0,76.0,67,2902.0,square3,j,0.049,2,S,2.0
S2,42.0,62.0,67.0,72.0,68.0,72,2974.0,square3,j,0.1172,2,S,2.0
S2,43.0,69.0,63.0,75.0,71.0,75,3049.0,square3,j,0.0832,2,S,2.0
S2,44.0,72.0,60.0,74.0,67.0,74,3123.0,square3,j,0.1986,2,S,2.0
S2,45.0,69.0,63.0,76.0,73.0,76,3199.0,square3,j,0.0974,2,S,2.0
S2,46.0,64.0,71.0,75.0,72.0,75,3274.0,square3,j,0.1306,2,S,2.0
S2,47.0,75.0,62.0,75.0,69.0,75,3349.0,square1,i,0.0869,0,S,2.0
S2,48.0,66.0,65.0,74.0,68.0,74,3423.0,square3,j,0.1979,2,S,2.0
S2,49.0,67.0,64.0,72.0,76.0,67,3490.0,square1,i,0.031,0,S,2.0
S8,0.0,58.0,60.0,52.0,45.0,60,60.0,square2,r,1.4521,1,S,8.0
S8,1.0,55.0,57.0,56.0,52.0,55,115.0,square1,f,0.1177,0,S,8.0
S8,2.0,54.0,58.0,58.0,49.0,49,164.0,square4,j,0.0852,3,S,8.0
S8,3.0,55.0,62.0,52.0,53.0,52,216.0,square3,i,0.0847,2,S,8.0
S8,4.0,55.0,60.0,49.0,51.0,60,276.0,square2,r,0.1379,1,S,8.0
S8,5.0,48.0,63.0,61.0,49.0,48,324.0,square1,f,0.0518,0,S,8.0
S8,6.0,58.0,63.0,59.0,55.0,55,379.0,square4,j,0.1306,3,S,8.0
S8,7.0,56.0,53.0,49.0,51.0,49,428.0,square3,i,0.0015,2,S,8.0
S8,8.0,61.0,63.0,66.0,49.0,63,491.0,square2,r,0.0392,1,S,8.0
S8,9.0,60.0,59.0,53.0,47.0,59,550.0,square2,r,0.0821,1,S,8.0
S8,10.0,55.0,63.0,52.0,55.0,55,605.0,square4,j,0.2809,3,S,8.0
S8,11.0,62.0,60.0,54.0,50.0,50,655.0,square4,j,0.0712,3,S,8.0
S8,12.0,58.0,64.0,51.0,52.0,52,707.0,square4,j,0.2489,3,S,8.0
S8,13.0,62.0,59.0,53.0,53.0,59,766.0,square2,r,0.0795,1,S,8.0
S8,14.0,51.0,62.0,61.0,54.0,62,828.0,square2,r,0.1313,1,S,8.0
S8,15.0,56.0,68.0,56.0,50.0,68,896.0,square2,r,0.1175,1,S,8.0
S8,16.0,58.0,64.0,56.0,50.0,58,954.0,square1,f,0.1004,0,S,8.0
S8,17.0,64.0,63.0,60.0,42.0,63,1017.0,square2,r,0.0016,1,S,8.0
S8,18.0,54.0,64.0,57.0,55.0,55,1072.0,square4,j,0.0942,3,S,8.0
S8,19.0,56.0,53.0,57.0,53.0,53,1125.0,square2,r,0.0982,1,S,8.0
S8,20.0,59.0,64.0,56.0,49.0,56,1181.0,square3,i,0.0083,2,S,8.0
S8,21.0,54.0,59.0,55.0,48.0,54,1235.0,square1,f,0.0515,0,S,8.0
S8,22.0,63.0,63.0,59.0,49.0,63,1298.0,square2,r,0.0011,1,S,8.0
S8,23.0,59.0,60.0,48.0,52.0,60,1358.0,square2,r,0.1019,1,S,8.0
S8,24.0,55.0,53.0,60.0,50.0,53,1411.0,square2,r,0.0802,1,S,8.0
S8,25.0,57.0,60.0,55.0,54.0,55,1466.0,square3,i,0.1143,2,S,8.0
S8,26.0,62.0,66.0,57.0,58.0,66,1532.0,square2,r,0.1336,1,S,8.0
S8,27.0,58.0,55.0,52.0,48.0,55,1587.0,square2,r,0.0015,1,S,8.0
S8,28.0,53.0,59.0,53.0,55.0,59,1646.0,square2,r,0.0848,1,S,8.0
S8,29.0,60.0,58.0,57.0,53.0,58,1704.0,square2,r,0.0581,1,S,8.0
S8,30.0,57.0,67.0,52.0,56.0,67,1771.0,square2,r,0.0518,1,S,8.0
S8,31.0,60.0,58.0,52.0,50.0,60,1831.0,square1,f,0.0647,0,S,8.0
S8,32.0,54.0,61.0,56.0,57.0,61,1892.0,square2,r,0.1331,1,S,8.0
S8,33.0,66.0,64.0,63.0,52.0,66,1958.0,square1,f,0.0939,0,S,8.0
S8,34.0,54.0,65.0,66.0,56.0,65,2023.0,square2,r,0.0009,1,S,8.0
S8,35.0,54.0,62.0,61.0,48.0,54,2077.0,square1,f,0.0505,0,S,8.0
S8,36.0,53.0,63.0,54.0,55.0,53,2130.0,square1,f,0.2218,0,S,8.0
S8,37.0,64.0,58.0,57.0,51.0,64,2194.0,square1,f,0.1032,0,S,8.0
S8,38.0,68.0,65.0,59.0,57.0,65,2259.0,square2,r,0.0017,1,S,8.0
S8,39.0,64.0,65.0,51.0,55.0,65,2324.0,square2,r,0.0995,1,S,8.0
S8,40.0,63.0,61.0,57.0,47.0,61,2385.0,square2,r,0.1134,1,S,8.0
S8,41.0,65.0,58.0,55.0,49.0,58,2443.0,square2,r,0.1349,1,S,8.0
S8,42.0,52.0,60.0,51.0,56.0,60,2503.0,square2,r,0.0221,1,S,8.0
S8,43.0,63.0,57.0,48.0,50.0,57,2560.0,square2,r,0.1646,1,S,8.0
S8,44.0,59.0,63.0,53.0,53.0,59,2619.0,square1,f,0.1551,0,S,8.0
S8,45.0,62.0,62.0,60.0,53.0,62,2681.0,square1,f,0.1062,0,S,8.0
S8,46.0,56.0,62.0,57.0,60.0,56,2737.0,square1,f,0.1745,0,S,8.0
S8,47.0,60.0,63.0,58.0,56.0,60,2797.0,square1,f,0.2346,0,S,8.0
S8,48.0,59.0,63.0,49.0,53.0,59,2856.0,square1,f,0.136,0,S,8.0
S8,49.0,67.0,67.0,59.0,55.0,67,2923.0,square1,f,0.0745,0,S,8.0
V10,0.0,28.0,21.0,37.0,46.0,21,21.0,square2,i,1.6212,1,V,10.0
V10,1.0,26.0,19.0,41.0,49.0,26,47.0,square1,r,0.0355,0,V,10.0
V10,2.0,29.0,20.0,43.0,48.0,48,95.0,square4,f,0.0015,3,V,10.0
V10,3.0,27.0,27.0,37.0,44.0,37,132.0,square3,j,0.0707,2,V,10.0
V10,4.0,28.0,16.0,36.0,47.0,47,179.0,square4,f,0.0318,3,V,10.0
V10,5.0,33.0,25.0,42.0,54.0,54,233.0,square4,f,0.0646,3,V,10.0
V10,6.0,28.0,19.0,35.0,45.0,28,261.0,square1,r,0.1331,0,V,10.0
V10,7.0,30.0,24.0,35.0,49.0,49,310.0,square4,f,0.0652,3,V,10.0
V10,8.0,37.0,29.0,41.0,47.0,47,357.0,square4,f,0.0313,3,V,10.0
V10,9.0,28.0,21.0,41.0,48.0,48,405.0,square4,f,0.0369,3,V,10.0
V10,10.0,27.0,22.0,39.0,42.0,42,447.0,square4,f,0.1007,3,V,10.0
V10,11.0,32.0,16.0,41.0,48.0,41,488.0,square3,j,0.0373,2,V,10.0
V10,12.0,34.0,15.0,33.0,49.0,49,537.0,square4,f,0.1013,3,V,10.0
V10,13.0,36.0,19.0,41.0,45.0,45,582.0,square4,f,0.1092,3,V,10.0
V10,14.0,28.0,23.0,35.0,53.0,53,635.0,square4,f,0.0135,3,V,10.0
V10,15.0,26.0,28.0,40.0,50.0,50,685.0,square4,f,0.1267,3,V,10.0
V10,16.0,30.0,25.0,42.0,47.0,25,710.0,square2,i,0.1482,1,V,10.0
V10,17.0,31.0,19.0,38.0,50.0,50,760.0,square4,f,0.0868,3,V,10.0
V10,18.0,34.0,21.0,35.0,48.0,48,808.0,square4,f,0.0515,3,V,10.0
V10,19.0,31.0,24.0,39.0,46.0,46,854.0,square4,f,0.001,3,V,10.0
V10,20.0,28.0,22.0,42.0,47.0,47,901.0,square4,f,0.0574,3,V,10.0
V10,21.0,24.0,20.0,41.0,47.0,24,925.0,square1,r,0.1124,0,V,10.0
V10,22.0,32.0,22.0,34.0,44.0,44,969.0,square4,f,0.0675,3,V,10.0
V10,23.0,29.0,23.0,37.0,47.0,47,1016.0,square4,f,0.1013,3,V,10.0
V10,24.0,25.0,25.0,38.0,46.0,46,1062.0,square4,f,0.1006,3,V,10.0
V10,25.0,30.0,24.0,41.0,45.0,45,1107.0,square4,f,0.0913,3,V,10.0
V10,26.0,32.0,17.0,38.0,49.0,38,1145.0,square3,j,0.1343,2,V,10.0
V10,27.0,34.0,21.0,38.0,47.0,47,1192.0,square4,f,0.0061,3,V,10.0
V10,28.0,29.0,21.0,37.0,45.0,45,1237.0,square4,f,0.1359,3,V,10.0
V10,29.0,30.0,20.0,31.0,47.0,47,1284.0,square4,f,0.0004,3,V,10.0
V10,30.0,28.0,21.0,35.0,44.0,44,1328.0,square4,f,0.0504,3,V,10.0
V10,31.0,36.0,25.0,14.0,8.0,8,1336.0,square4,f,0.0869,3,V,10.0
V10,32.0,38.0,27.0,19.0,11.0,19,1355.0,square3,j,0.0434,2,V,10.0
V10,33.0,39.0,21.0,20.0,13.0,21,1376.0,square2,i,0.1387,1,V,10.0
V10,34.0,34.0,24.0,20.0,10.0,10,1386.0,square4,f,0.0006,3,V,10.0
V10,35.0,44.0,29.0,17.0,11.0,44,1430.0,square1,r,0.0603,0,V,10.0
V10,36.0,33.0,30.0,17.0,9.0,33,1463.0,square1,r,0.1367,0,V,10.0
V10,37.0,31.0,27.0,12.0,6.0,31,1494.0,square1,r,0.0924,0,V,10.0
V10,38.0,34.0,29.0,15.0,10.0,34,1528.0,square1,r,0.0881,0,V,10.0
V10,39.0,35.0,21.0,19.0,5.0,35,1563.0,square1,r,0.0771,0,V,10.0
V10,40.0,32.0,26.0,18.0,6.0,6,1569.0,square4,f,0.001,3,V,10.0
V10,41.0,34.0,32.0,13.0,9.0,34,1603.0,square1,r,0.0009,0,V,10.0
V10,42.0,35.0,30.0,16.0,8.0,35,1638.0,square1,r,0.01,0,V,10.0
V10,43.0,38.0,32.0,16.0,8.0,38,1676.0,square1,r,0.0363,0,V,10.0
V10,44.0,34.0,20.0,18.0,3.0,18,1694.0,square3,j,0.0829,2,V,10.0
V10,45.0,38.0,22.0,23.0,9.0,38,1732.0,square1,r,0.0465,0,V,10.0
V10,46.0,36.0,28.0,16.0,10.0,36,1768.0,square1,r,0.0659,0,V,10.0
V10,47.0,36.0,27.0,13.0,8.0,36,1804.0,square1,r,0.0121,0,V,10.0
V10,48.0,35.0,27.0,14.0,12.0,27,1831.0,square2,i,0.2487,1,V,10.0
V10,49.0,33.0,28.0,16.0,10.0,33,1864.0,square1,r,0.0394,0,V,10.0
V10,50.0,31.0,29.0,19.0,8.0,31,1895.0,square1,r,0.0013,0,V,10.0
V10,51.0,32.0,21.0,20.0,12.0,32,1927.0,square1,r,0.0011,0,V,10.0
V10,52.0,29.0,25.0,21.0,10.0,29,1956.0,square1,r,0.0842,0,V,10.0
V10,53.0,39.0,29.0,23.0,2.0,2,1958.0,square4,f,0.0366,3,V,10.0
V10,54.0,33.0,28.0,19.0,7.0,33,1991.0,square1,r,0.1235,0,V,10.0
V10,55.0,34.0,24.0,15.0,8.0,34,2025.0,square1,r,0.0267,0,V,10.0
V10,56.0,35.0,20.0,21.0,9.0,35,2060.0,square1,r,0.0182,0,V,10.0
V10,57.0,33.0,27.0,19.0,7.0,19,2079.0,square3,j,0.0235,2,V,10.0
V10,58.0,38.0,24.0,16.0,7.0,38,2117.0,square1,r,0.0664,0,V,10.0
V10,59.0,34.0,29.0,15.0,5.0,34,2151.0,square1,r,0.0505,0,V,10.0
V10,60.0,34.0,22.0,19.0,9.0,34,2185.0,square1,r,0.0985,0,V,10.0
V10,61.0,39.0,31.0,20.0,10.0,39,2224.0,square1,r,0.0492,0,V,10.0
V10,62.0,35.0,24.0,18.0,6.0,35,2259.0,square1,r,0.0743,0,V,10.0
V10,63.0,35.0,26.0,18.0,9.0,9,2268.0,square4,f,0.1037,3,V,10.0
V10,64.0,31.0,55.0,23.0,23.0,31,2299.0,square1,r,0.0801,0,V,10.0
V10,65.0,35.0,50.0,22.0,27.0,35,2334.0,square1,r,0.0499,0,V,10.0
V10,66.0,35.0,53.0,25.0,29.0,53,2387.0,square2,i,0.0009,1,V,10.0
V10,67.0,38.0,44.0,17.0,29.0,44,2431.0,square2,i,0.0008,1,V,10.0
V10,68.0,36.0,48.0,22.0,27.0,48,2479.0,square2,i,0.0223,1,V,10.0
V10,69.0,41.0,53.0,17.0,28.0,53,2532.0,square2,i,0.1674,1,V,10.0
V10,70.0,40.0,48.0,23.0,28.0,48,2580.0,square2,i,0.0842,1,V,10.0
V10,71.0,39.0,43.0,24.0,20.0,24,2604.0,square3,j,0.1078,2,V,10.0
V10,72.0,36.0,49.0,19.0,25.0,49,2653.0,square2,i,0.1357,1,V,10.0
V10,73.0,39.0,49.0,23.0,32.0,49,2702.0,square2,i,0.1625,1,V,10.0
V10,74.0,36.0,44.0,17.0,29.0,44,2746.0,square2,i,0.0827,1,V,10.0
V10,75.0,37.0,46.0,20.0,30.0,37,2783.0,square1,r,0.0537,0,V,10.0
V10,76.0,38.0,47.0,23.0,30.0,47,2830.0,square2,i,0.1318,1,V,10.0
V10,77.0,36.0,49.0,22.0,32.0,49,2879.0,square2,i,0.1316,1,V,10.0
V10,78.0,41.0,44.0,19.0,27.0,27,2906.0,square4,f,0.0973,3,V,10.0
V10,79.0,41.0,48.0,22.0,27.0,48,2954.0,square2,i,0.1969,1,V,10.0
V10,80.0,34.0,44.0,26.0,29.0,44,2998.0,square2,i,0.156,1,V,10.0
V10,81.0,38.0,47.0,18.0,29.0,47,3045.0,square2,i,0.0079,1,V,10.0
V10,82.0,43.0,43.0,23.0,28.0,23,3068.0,square3,j,0.0859,2,V,10.0
V10,83.0,34.0,51.0,23.0,26.0,26,3094.0,square4,f,0.0983,3,V,10.0
V10,84.0,36.0,46.0,18.0,25.0,36,3130.0,square1,r,0.0398,0,V,10.0
V10,85.0,39.0,46.0,25.0,26.0,46,3176.0,square2,i,0.1012,1,V,10.0
V10,86.0,39.0,50.0,27.0,27.0,50,3226.0,square2,i,0.1834,1,V,10.0
V10,87.0,38.0,46.0,20.0,30.0,46,3272.0,square2,i,0.0346,1,V,10.0
V10,88.0,37.0,49.0,22.0,28.0,49,3321.0,square2,i,0.0012,1,V,10.0
V10,89.0,34.0,51.0,25.0,26.0,51,3372.0,square2,i,0.0907,1,V,10.0
V10,90.0,41.0,49.0,22.0,29.0,41,3413.0,square1,r,0.1,0,V,10.0
V10,91.0,37.0,45.0,26.0,32.0,45,3458.0,square2,i,0.3629,1,V,10.0
V10,92.0,42.0,42.0,27.0,28.0,42,3500.0,square2,i,0.1063,1,V,10.0
V10,93.0,41.0,48.0,19.0,36.0,48,3548.0,square2,i,0.1053,1,V,10.0
V10,94.0,43.0,49.0,23.0,31.0,49,3597.0,square2,i,0.0799,1,V,10.0
V10,95.0,39.0,46.0,18.0,27.0,46,3643.0,square2,i,0.0293,1,V,10.0
V10,96.0,37.0,48.0,24.0,27.0,24,3667.0,square3,j,0.0843,2,V,10.0
V10,97.0,42.0,50.0,23.0,31.0,50,3717.0,square2,i,0.1518,1,V,10.0
V10,98.0,33.0,47.0,25.0,32.0,47,3764.0,square2,i,0.0253,1,V,10.0
V10,99.0,39.0,48.0,23.0,32.0,48,3812.0,square2,i,0.1005,1,V,10.0
V12,0.0,47.0,30.0,38.0,55.0,99999,0.0,invalid,,,-1,V,12.0
V12,1.0,46.0,33.0,39.0,57.0,39,39.0,square3,r,0.5049,2,V,12.0
V12,2.0,51.0,29.0,42.0,52.0,51,90.0,square1,i,0.1388,0,V,12.0
V12,3.0,52.0,30.0,38.0,62.0,62,152.0,square4,j,0.0973,3,V,12.0
V12,4.0,48.0,30.0,39.0,62.0,30,182.0,square2,f,0.1467,1,V,12.0
V12,5.0,55.0,34.0,43.0,61.0,55,237.0,square1,i,0.2133,0,V,12.0
V12,6.0,45.0,35.0,42.0,56.0,56,293.0,square4,j,0.1351,3,V,12.0
V12,7.0,48.0,29.0,35.0,57.0,57,350.0,square4,j,0.0514,3,V,12.0
V12,8.0,46.0,33.0,38.0,59.0,46,396.0,square1,i,0.1256,0,V,12.0
V12,9.0,44.0,31.0,42.0,56.0,56,452.0,square4,j,0.1469,3,V,12.0
V12,10.0,48.0,34.0,45.0,55.0,55,507.0,square4,j,0.1077,3,V,12.0
V12,11.0,45.0,32.0,41.0,55.0,55,562.0,square4,j,0.1182,3,V,12.0
V12,12.0,52.0,26.0,42.0,57.0,57,619.0,square4,j,0.0047,3,V,12.0
V12,13.0,56.0,31.0,41.0,54.0,54,673.0,square4,j,0.0221,3,V,12.0
V12,14.0,44.0,34.0,40.0,64.0,64,737.0,square4,j,0.0467,3,V,12.0
V12,15.0,48.0,32.0,39.0,61.0,61,798.0,square4,j,0.0014,3,V,12.0
V12,16.0,49.0,33.0,37.0,58.0,33,831.0,square2,f,0.4184,1,V,12.0
V12,17.0,45.0,33.0,43.0,57.0,43,874.0,square3,r,0.001,2,V,12.0
V12,18.0,45.0,28.0,40.0,58.0,45,919.0,square1,i,0.0914,0,V,12.0
V12,19.0,42.0,33.0,43.0,59.0,59,978.0,square4,j,0.2223,3,V,12.0
V12,20.0,46.0,30.0,38.0,62.0,62,1040.0,square4,j,0.0703,3,V,12.0
V12,21.0,46.0,35.0,40.0,55.0,55,1095.0,square4,j,0.088,3,V,12.0
V12,22.0,46.0,34.0,36.0,63.0,63,1158.0,square4,j,0.0393,3,V,12.0
V12,23.0,54.0,34.0,42.0,56.0,56,1214.0,square4,j,0.1347,3,V,12.0
V12,24.0,44.0,30.0,41.0,59.0,59,1273.0,square4,j,0.1208,3,V,12.0
V12,25.0,49.0,33.0,37.0,64.0,64,1337.0,square4,j,0.0102,3,V,12.0
V12,26.0,52.0,34.0,39.0,57.0,57,1394.0,square4,j,0.001,3,V,12.0
V12,27.0,50.0,26.0,37.0,55.0,55,1449.0,square4,j,0.0308,3,V,12.0
V12,28.0,41.0,29.0,46.0,21.0,21,1470.0,square4,j,0.0813,3,V,12.0
V12,29.0,41.0,28.0,51.0,20.0,28,1498.0,square2,f,0.0735,1,V,12.0
V12,30.0,32.0,31.0,46.0,22.0,46,1544.0,square3,r,0.0227,2,V,12.0
V12,31.0,38.0,28.0,45.0,22.0,38,1582.0,square1,i,0.0713,0,V,12.0
V12,32.0,35.0,27.0,44.0,16.0,16,1598.0,square4,j,0.0347,3,V,12.0
V12,33.0,39.0,29.0,49.0,21.0,49,1647.0,square3,r,0.1424,2,V,12.0
V12,34.0,39.0,28.0,49.0,15.0,49,1696.0,square3,r,0.0436,2,V,12.0
V12,35.0,36.0,29.0,50.0,17.0,50,1746.0,square3,r,0.1326,2,V,12.0
V12,36.0,41.0,28.0,48.0,12.0,48,1794.0,square3,r,0.0657,2,V,12.0
V12,37.0,34.0,29.0,46.0,25.0,46,1840.0,square3,r,0.1146,2,V,12.0
V12,38.0,38.0,28.0,51.0,19.0,51,1891.0,square3,r,0.0014,2,V,12.0
V12,39.0,39.0,31.0,45.0,13.0,45,1936.0,square3,r,0.0179,2,V,12.0
V12,40.0,35.0,28.0,46.0,26.0,46,1982.0,square3,r,0.0016,2,V,12.0
V12,41.0,38.0,27.0,46.0,20.0,46,2028.0,square3,r,0.1304,2,V,12.0
V12,42.0,40.0,26.0,50.0,23.0,50,2078.0,square3,r,0.0836,2,V,12.0
V12,43.0,33.0,30.0,45.0,18.0,45,2123.0,square3,r,0.5187,2,V,12.0
V12,44.0,39.0,31.0,46.0,22.0,46,2169.0,square3,r,0.0326,2,V,12.0
V12,45.0,32.0,26.0,42.0,20.0,26,2195.0,square2,f,0.0332,1,V,12.0
V12,46.0,36.0,29.0,43.0,24.0,36,2231.0,square1,i,0.0163,0,V,12.0
V12,47.0,37.0,30.0,46.0,21.0,21,2252.0,square4,j,0.0577,3,V,12.0
V12,48.0,37.0,27.0,44.0,19.0,44,2296.0,square3,r,0.0711,2,V,12.0
V12,49.0,36.0,33.0,55.0,16.0,55,2351.0,square3,r,0.0711,2,V,12.0
V12,50.0,45.0,28.0,44.0,18.0,44,2395.0,square3,r,0.051,2,V,12.0
V12,51.0,35.0,32.0,49.0,19.0,49,2444.0,square3,r,0.0528,2,V,12.0
V12,52.0,36.0,56.0,31.0,52.0,31,2475.0,square3,r,0.1134,2,V,12.0
V12,53.0,36.0,57.0,29.0,45.0,29,2504.0,square3,r,0.0179,2,V,12.0
V12,54.0,38.0,61.0,28.0,51.0,61,2565.0,square2,f,0.1961,1,V,12.0
V12,55.0,35.0,60.0,29.0,47.0,35,2600.0,square1,i,0.5431,0,V,12.0
V12,56.0,34.0,62.0,29.0,46.0,46,2646.0,square4,j,0.0014,3,V,12.0
V12,57.0,43.0,57.0,32.0,46.0,57,2703.0,square2,f,0.0432,1,V,12.0
V12,58.0,40.0,59.0,32.0,50.0,59,2762.0,square2,f,0.2626,1,V,12.0
V12,59.0,41.0,62.0,33.0,48.0,62,2824.0,square2,f,0.0008,1,V,12.0
V12,60.0,36.0,61.0,32.0,49.0,61,2885.0,square2,f,0.0517,1,V,12.0
V12,61.0,39.0,56.0,32.0,44.0,56,2941.0,square2,f,0.1479,1,V,12.0
V12,62.0,39.0,57.0,30.0,46.0,57,2998.0,square2,f,0.0912,1,V,12.0
V12,63.0,42.0,53.0,29.0,46.0,46,3044.0,square4,j,0.3477,3,V,12.0
V12,64.0,35.0,57.0,32.0,50.0,32,3076.0,square3,r,0.0869,2,V,12.0
V12,65.0,44.0,58.0,32.0,49.0,58,3134.0,square2,f,0.0839,1,V,12.0
V12,66.0,44.0,56.0,29.0,52.0,56,3190.0,square2,f,0.0179,1,V,12.0
V12,67.0,41.0,60.0,30.0,49.0,60,3250.0,square2,f,0.0401,1,V,12.0
V12,68.0,42.0,58.0,32.0,45.0,58,3308.0,square2,f,0.001,1,V,12.0
V12,69.0,36.0,60.0,33.0,50.0,60,3368.0,square2,f,0.018,1,V,12.0
V12,70.0,36.0,57.0,27.0,46.0,57,3425.0,square2,f,0.0016,1,V,12.0
V12,71.0,41.0,59.0,32.0,48.0,59,3484.0,square2,f,0.1338,1,V,12.0
V12,72.0,34.0,59.0,31.0,49.0,34,3518.0,square1,i,0.1008,0,V,12.0
V12,73.0,71.0,53.0,65.0,49.0,49,3567.0,square4,j,0.0668,3,V,12.0
V12,74.0,69.0,49.0,63.0,45.0,63,3630.0,square3,r,0.1249,2,V,12.0
V12,75.0,72.0,51.0,56.0,46.0,51,3681.0,square2,f,0.1149,1,V,12.0
V12,76.0,72.0,48.0,58.0,43.0,48,3729.0,square2,f,0.073,1,V,12.0
V12,77.0,74.0,57.0,59.0,44.0,59,3788.0,square3,r,0.1359,2,V,12.0
V12,78.0,69.0,55.0,63.0,50.0,63,3851.0,square3,r,0.041,2,V,12.0
V12,79.0,73.0,53.0,58.0,43.0,58,3909.0,square3,r,0.0242,2,V,12.0
V12,80.0,71.0,47.0,65.0,40.0,47,3956.0,square2,f,0.2809,1,V,12.0
V12,81.0,66.0,49.0,57.0,40.0,57,4013.0,square3,r,0.4337,2,V,12.0
V12,82.0,71.0,53.0,57.0,48.0,57,4070.0,square3,r,0.0495,2,V,12.0
V12,83.0,70.0,50.0,56.0,49.0,56,4126.0,square3,r,0.27,2,V,12.0
V12,84.0,69.0,45.0,64.0,43.0,43,4169.0,square4,j,0.0697,3,V,12.0
V12,85.0,64.0,48.0,54.0,42.0,64,4233.0,square1,i,0.061,0,V,12.0
V12,86.0,71.0,49.0,63.0,44.0,71,4304.0,square1,i,0.1341,0,V,12.0
V12,87.0,72.0,52.0,55.0,42.0,72,4376.0,square1,i,0.1181,0,V,12.0
V12,88.0,64.0,48.0,59.0,44.0,64,4440.0,square1,i,0.117,0,V,12.0
V12,89.0,69.0,48.0,62.0,45.0,69,4509.0,square1,i,0.0011,0,V,12.0
V12,90.0,68.0,56.0,60.0,42.0,68,4577.0,square1,i,0.0182,0,V,12.0
V12,91.0,69.0,52.0,62.0,45.0,69,4646.0,square1,i,0.0393,0,V,12.0
V12,92.0,65.0,50.0,64.0,47.0,65,4711.0,square1,i,0.1039,0,V,12.0
V12,93.0,68.0,51.0,62.0,43.0,68,4779.0,square1,i,0.1,0,V,12.0
V12,94.0,68.0,52.0,60.0,38.0,68,4847.0,square1,i,0.0756,0,V,12.0
V12,95.0,71.0,52.0,58.0,47.0,58,4905.0,square3,r,0.0343,2,V,12.0
V12,96.0,66.0,49.0,59.0,44.0,49,4954.0,square2,f,0.0016,1,V,12.0
V12,97.0,74.0,47.0,54.0,47.0,74,5028.0,square1,i,0.0148,0,V,12.0
V12,98.0,68.0,43.0,64.0,41.0,68,5096.0,square1,i,0.1049,0,V,12.0
V12,99.0,71.0,53.0,62.0,44.0,71,5167.0,square1,i,0.1507,0,V,12.0
V8,0.0,49.0,55.0,64.0,74.0,49,49.0,square1,r,1.7986,0,V,8.0
V8,1.0,51.0,54.0,70.0,81.0,81,130.0,square4,i,0.0999,3,V,8.0
V8,2.0,46.0,62.0,70.0,77.0,62,192.0,square2,j,0.0349,1,V,8.0
V8,3.0,46.0,56.0,67.0,75.0,67,259.0,square3,f,0.089,2,V,8.0
V8,4.0,50.0,59.0,67.0,83.0,83,342.0,square4,i,0.0966,3,V,8.0
V8,5.0,51.0,54.0,65.0,78.0,78,420.0,square4,i,0.073,3,V,8.0
V8,6.0,45.0,57.0,66.0,80.0,80,500.0,square4,i,0.0871,3,V,8.0
V8,7.0,46.0,64.0,68.0,77.0,77,577.0,square4,i,0.0792,3,V,8.0
V8,8.0,50.0,57.0,66.0,73.0,73,650.0,square4,i,0.1206,3,V,8.0
V8,9.0,46.0,56.0,71.0,72.0,72,722.0,square4,i,0.0401,3,V,8.0
V8,10.0,56.0,58.0,67.0,75.0,56,778.0,square1,r,0.002,0,V,8.0
V8,11.0,50.0,61.0,69.0,74.0,74,852.0,square4,i,0.0495,3,V,8.0
V8,12.0,59.0,59.0,69.0,77.0,59,911.0,square2,j,0.0009,1,V,8.0
V8,13.0,50.0,56.0,72.0,77.0,72,983.0,square3,f,0.0856,2,V,8.0
V8,14.0,48.0,55.0,65.0,80.0,80,1063.0,square4,i,0.0478,3,V,8.0
V8,15.0,48.0,58.0,65.0,76.0,76,1139.0,square4,i,0.052,3,V,8.0
V8,16.0,49.0,58.0,67.0,75.0,75,1214.0,square4,i,0.001,3,V,8.0
V8,17.0,51.0,56.0,68.0,76.0,76,1290.0,square4,i,0.0895,3,V,8.0
V8,18.0,52.0,63.0,69.0,80.0,80,1370.0,square4,i,0.1009,3,V,8.0
V8,19.0,54.0,54.0,71.0,79.0,79,1449.0,square4,i,0.1472,3,V,8.0
V8,20.0,48.0,53.0,62.0,77.0,77,1526.0,square4,i,0.0658,3,V,8.0
V8,21.0,44.0,61.0,66.0,77.0,77,1603.0,square4,i,0.0485,3,V,8.0
V8,22.0,52.0,58.0,64.0,78.0,78,1681.0,square4,i,0.0225,3,V,8.0
V8,23.0,50.0,49.0,67.0,79.0,79,1760.0,square4,i,0.0179,3,V,8.0
V8,24.0,49.0,59.0,69.0,74.0,74,1834.0,square4,i,0.1702,3,V,8.0
V8,25.0,46.0,61.0,65.0,81.0,46,1880.0,square1,r,0.0014,0,V,8.0
V8,26.0,49.0,58.0,63.0,35.0,58,1938.0,square2,j,0.0791,1,V,8.0
V8,27.0,48.0,51.0,66.0,41.0,66,2004.0,square3,f,0.048,2,V,8.0
V8,28.0,46.0,55.0,65.0,38.0,38,2042.0,square4,i,0.0656,3,V,8.0
V8,29.0,47.0,58.0,69.0,40.0,69,2111.0,square3,f,0.0346,2,V,8.0
V8,30.0,42.0,55.0,67.0,43.0,42,2153.0,square1,r,0.151,0,V,8.0
V8,31.0,49.0,56.0,64.0,36.0,56,2209.0,square2,j,0.1006,1,V,8.0
V8,32.0,49.0,55.0,69.0,38.0,69,2278.0,square3,f,0.0466,2,V,8.0
V8,33.0,44.0,52.0,65.0,48.0,65,2343.0,square3,f,0.1476,2,V,8.0
V8,34.0,44.0,57.0,70.0,45.0,70,2413.0,square3,f,0.0832,2,V,8.0
V8,35.0,44.0,54.0,68.0,38.0,68,2481.0,square3,f,0.0876,2,V,8.0
V8,36.0,45.0,56.0,64.0,40.0,40,2521.0,square4,i,0.1263,3,V,8.0
V8,37.0,47.0,57.0,66.0,37.0,37,2558.0,square4,i,0.0488,3,V,8.0
V8,38.0,49.0,50.0,66.0,37.0,66,2624.0,square3,f,0.0818,2,V,8.0
V8,39.0,51.0,56.0,61.0,39.0,61,2685.0,square3,f,0.1727,2,V,8.0
V8,40.0,47.0,59.0,66.0,41.0,66,2751.0,square3,f,0.0098,2,V,8.0
V8,41.0,42.0,56.0,69.0,42.0,42,2793.0,square1,r,0.018,0,V,8.0
V8,42.0,47.0,57.0,72.0,35.0,57,2850.0,square2,j,0.0989,1,V,8.0
V8,43.0,47.0,57.0,63.0,44.0,63,2913.0,square3,f,0.1143,2,V,8.0
V8,44.0,45.0,58.0,67.0,42.0,67,2980.0,square3,f,0.131,2,V,8.0
V8,45.0,44.0,56.0,66.0,43.0,66,3046.0,square3,f,0.031,2,V,8.0
V8,46.0,46.0,53.0,70.0,37.0,70,3116.0,square3,f,0.1022,2,V,8.0
V8,47.0,54.0,53.0,71.0,41.0,71,3187.0,square3,f,0.0997,2,V,8.0
V8,48.0,49.0,53.0,69.0,37.0,69,3256.0,square3,f,0.0641,2,V,8.0
V8,49.0,39.0,57.0,65.0,47.0,39,3295.0,square1,r,0.1419,0,V,8.0
V8,50.0,48.0,55.0,65.0,41.0,55,3350.0,square2,j,0.036,1,V,8.0
V8,51.0,45.0,61.0,68.0,43.0,68,3418.0,square3,f,0.044,2,V,8.0
V8,52.0,53.0,52.0,68.0,37.0,68,3486.0,square3,f,0.035,2,V,8.0
V8,53.0,47.0,55.0,66.0,46.0,66,3552.0,square3,f,0.0005,2,V,8.0
V8,54.0,49.0,53.0,61.0,39.0,61,3613.0,square3,f,0.1275,2,V,8.0
V8,55.0,53.0,70.0,55.0,72.0,72,3685.0,square4,i,0.348,3,V,8.0
V8,56.0,57.0,63.0,48.0,73.0,73,3758.0,square4,i,0.1166,3,V,8.0
V8,57.0,53.0,71.0,45.0,80.0,80,3838.0,square4,i,0.0535,3,V,8.0
V8,58.0,57.0,69.0,52.0,73.0,73,3911.0,square4,i,0.0015,3,V,8.0
V8,59.0,58.0,67.0,54.0,73.0,73,3984.0,square4,i,0.0801,3,V,8.0
V8,60.0,55.0,66.0,47.0,76.0,47,4031.0,square3,f,0.1081,2,V,8.0
V8,61.0,56.0,65.0,54.0,72.0,72,4103.0,square4,i,0.0179,3,V,8.0
V8,62.0,56.0,65.0,49.0,75.0,75,4178.0,square4,i,0.0252,3,V,8.0
V8,63.0,61.0,65.0,44.0,78.0,65,4243.0,square2,j,0.035,1,V,8.0
V8,64.0,54.0,66.0,48.0,75.0,54,4297.0,square1,r,0.0526,0,V,8.0
V8,65.0,59.0,65.0,46.0,79.0,79,4376.0,square4,i,0.0011,3,V,8.0
V8,66.0,51.0,62.0,46.0,73.0,73,4449.0,square4,i,0.0112,3,V,8.0
V8,67.0,60.0,70.0,45.0,76.0,76,4525.0,square4,i,0.001,3,V,8.0
V8,68.0,63.0,64.0,47.0,73.0,73,4598.0,square4,i,0.0173,3,V,8.0
V8,69.0,58.0,66.0,43.0,77.0,77,4675.0,square4,i,0.0009,3,V,8.0
V8,70.0,59.0,65.0,49.0,73.0,65,4740.0,square2,j,0.4657,1,V,8.0
V8,71.0,60.0,64.0,49.0,79.0,49,4789.0,square3,f,0.0984,2,V,8.0
V8,72.0,96.0,68.0,78.0,67.0,96,4885.0,square1,r,0.1244,0,V,8.0
V8,73.0,96.0,68.0,79.0,64.0,96,4981.0,square1,r,0.0348,0,V,8.0
V8,74.0,92.0,67.0,81.0,62.0,92,5073.0,square1,r,0.0178,0,V,8.0
V8,75.0,96.0,72.0,83.0,62.0,96,5169.0,square1,r,0.0728,0,V,8.0
V8,76.0,94.0,70.0,77.0,57.0,94,5263.0,square1,r,0.0437,0,V,8.0
V8,77.0,91.0,68.0,81.0,59.0,59,5322.0,square4,i,0.0016,3,V,8.0
V8,78.0,90.0,73.0,80.0,63.0,80,5402.0,square3,f,0.0703,2,V,8.0
V8,79.0,90.0,73.0,83.0,61.0,90,5492.0,square1,r,0.0391,0,V,8.0
V8,80.0,95.0,75.0,81.0,66.0,95,5587.0,square1,r,0.083,0,V,8.0
V8,81.0,92.0,72.0,81.0,57.0,81,5668.0,square3,f,0.1178,2,V,8.0
V8,82.0,91.0,71.0,80.0,61.0,80,5748.0,square3,f,0.119,2,V,8.0
V8,83.0,90.0,66.0,83.0,62.0,62,5810.0,square4,i,0.0712,3,V,8.0
V8,84.0,93.0,67.0,87.0,65.0,67,5877.0,square2,j,0.1514,1,V,8.0
V8,85.0,85.0,70.0,80.0,62.0,85,5962.0,square1,r,0.0019,0,V,8.0
V8,86.0,84.0,72.0,85.0,62.0,84,6046.0,square1,r,0.0738,0,V,8.0
V8,87.0,91.0,68.0,82.0,65.0,91,6137.0,square1,r,0.0642,0,V,8.0
V8,88.0,93.0,67.0,83.0,61.0,93,6230.0,square1,r,0.1221,0,V,8.0
V8,89.0,95.0,68.0,78.0,66.0,78,6308.0,square3,f,0.4094,2,V,8.0
V8,90.0,91.0,73.0,80.0,60.0,60,6368.0,square4,i,0.1353,3,V,8.0
V8,91.0,93.0,68.0,81.0,64.0,68,6436.0,square2,j,0.0148,1,V,8.0
V8,92.0,90.0,75.0,82.0,67.0,90,6526.0,square1,r,0.0499,0,V,8.0
V8,93.0,92.0,70.0,82.0,66.0,92,6618.0,square1,r,0.1339,0,V,8.0
V8,94.0,90.0,71.0,78.0,63.0,90,6708.0,square1,r,0.0382,0,V,8.0
V8,95.0,88.0,65.0,78.0,63.0,88,6796.0,square1,r,0.0976,0,V,8.0
V8,96.0,89.0,72.0,85.0,62.0,89,6885.0,square1,r,0.1205,0,V,8.0
V8,97.0,92.0,72.0,77.0,67.0,92,6977.0,square1,r,0.5161,0,V,8.0
V8,98.0,86.0,63.0,82.0,62.0,86,7063.0,square1,r,0.2873,0,V,8.0
V8,99.0,90.0,66.0,75.0,61.0,66,7129.0,square2,j,0.1264,1,V,8.0
