block,Trial,square1,square2,square3,square4,currPoints,totalPoints,square,choiceKey.keys,choiceKey.rt,armNum,blockType,blockNum
prac,0.0,100.0,0.0,0.0,0.0,0,0.0,square3,,,2,p,0.0
prac,1.0,100.0,0.0,0.0,0.0,0,0.0,square2,,,1,p,0.0
prac,2.0,100.0,0.0,0.0,0.0,0,0.0,square4,,,3,p,0.0
prac,3.0,100.0,0.0,0.0,0.0,100,100.0,square1,,,0,p,0.0
prac,4.0,100.0,0.0,0.0,0.0,99999,100.0,invalid,,,-1,p,0.0
prac,5.0,100.0,0.0,0.0,0.0,0,100.0,square3,,,2,p,0.0
prac,6.0,100.0,0.0,0.0,0.0,100,200.0,square1,,,0,p,0.0
prac,7.0,100.0,0.0,0.0,0.0,0,200.0,square2,,,1,p,0.0
prac,8.0,100.0,0.0,0.0,0.0,100,300.0,square1,,,0,p,0.0
prac,9.0,100.0,0.0,0.0,0.0,100,400.0,square1,,,0,p,0.0
V11,0.0,42.0,67.0,57.0,49.0,67,67.0,square2,f,1.478,1,V,11.0
V11,1.0,42.0,71.0,60.0,53.0,42,109.0,square1,i,1.595,0,V,11.0
V11,2.0,45.0,76.0,58.0,51.0,58,167.0,square3,r,0.096,2,V,11.0
V11,3.0,44.0,65.0,60.0,49.0,49,216.0,square4,j,0.21,3,V,11.0
V11,4.0,46.0,73.0,64.0,51.0,73,289.0,square2,f,0.18,1,V,11.0
V11,5.0,47.0,67.0,58.0,54.0,67,356.0,square2,f,0.376,1,V,11.0
V11,6.0,43.0,68.0,58.0,50.0,68,424.0,square2,f,0.061,1,V,11.0
V11,7.0,42.0,67.0,60.0,58.0,67,491.0,square2,f,0.115,1,V,11.0
V11,8.0,44.0,67.0,60.0,53.0,67,558.0,square2,f,0.118,1,V,11.0
V11,9.0,44.0,67.0,59.0,54.0,67,625.0,square2,f,0.0,1,V,11.0
V11,10.0,49.0,76.0,57.0,52.0,76,701.0,square2,f,0.017,1,V,11.0
V11,11.0,45.0,71.0,58.0,51.0,71,772.0,square2,f,0.035,1,V,11.0
V11,12.0,45.0,72.0,58.0,56.0,72,844.0,square2,f,0.114,1,V,11.0
V11,13.0,49.0,67.0,63.0,54.0,67,911.0,square2,f,0.281,1,V,11.0
V11,14.0,50.0,75.0,57.0,48.0,50,961.0,square1,i,0.313,0,V,11.0
V11,15.0,40.0,71.0,61.0,51.0,71,1032.0,square2,f,0.313,1,V,11.0
V11,16.0,47.0,72.0,56.0,54.0,72,1104.0,square2,f,0.15,1,V,11.0
V11,17.0,40.0,71.0,61.0,46.0,71,1175.0,square2,f,0.096,1,V,11.0
V11,18.0,44.0,69.0,59.0,51.0,69,1244.0,square2,f,0.044,1,V,11.0
V11,19.0,44.0,73.0,59.0,47.0,73,1317.0,square2,f,0.046,1,V,11.0
V11,20.0,47.0,69.0,64.0,54.0,69,1386.0,square2,f,0.549,1,V,11.0
V11,21.0,78.0,49.0,70.0,65.0,49,1435.0,square2,f,0.245,1,V,11.0
V11,22.0,78.0,56.0,73.0,62.0,73,1508.0,square3,r,0.283,2,V,11.0
V11,23.0,84.0,54.0,71.0,65.0,54,1562.0,square2,f,0.217,1,V,11.0
V11,24.0,80.0,55.0,72.0,67.0,67,1629.0,square4,j,0.346,3,V,11.0
V11,25.0,80.0,55.0,75.0,63.0,75,1704.0,square3,r,0.352,2,V,11.0
V11,26.0,80.0,56.0,67.0,62.0,67,1771.0,square3,r,0.232,2,V,11.0
V11,27.0,80.0,51.0,68.0,62.0,68,1839.0,square3,r,0.312,2,V,11.0
V11,28.0,79.0,57.0,67.0,57.0,57,1896.0,square4,j,0.284,3,V,11.0
V11,29.0,79.0,50.0,67.0,62.0,67,1963.0,square3,r,0.114,2,V,11.0
V11,30.0,88.0,54.0,74.0,61.0,74,2037.0,square3,r,0.045,2,V,11.0
V11,31.0,81.0,51.0,75.0,63.0,75,2112.0,square3,r,0.02,2,V,11.0
V11,32.0,76.0,51.0,69.0,65.0,69,2181.0,square3,r,0.211,2,V,11.0
V11,33.0,78.0,54.0,72.0,64.0,72,2253.0,square3,r,0.128,2,V,11.0
V11,34.0,77.0,53.0,71.0,62.0,71,2324.0,square3,r,0.154,2,V,11.0
V11,35.0,74.0,59.0,75.0,62.0,75,2399.0,square3,r,0.181,2,V,11.0
V11,36.0,79.0,50.0,72.0,62.0,72,2471.0,square3,r,0.314,2,V,11.0
V11,37.0,74.0,54.0,68.0,62.0,68,2539.0,square3,r,0.198,2,V,11.0
V11,38.0,80.0,57.0,65.0,58.0,65,2604.0,square3,r,0.181,2,V,11.0
V11,39.0,73.0,52.0,75.0,66.0,75,2679.0,square3,r,0.053,2,V,11.0
V11,40.0,82.0,57.0,71.0,57.0,71,2750.0,square3,r,0.132,2,V,11.0
V11,41.0,78.0,53.0,73.0,64.0,73,2823.0,square3,r,0.464,2,V,11.0
V11,42.0,72.0,56.0,67.0,59.0,67,2890.0,square3,r,0.068,2,V,11.0
V11,43.0,81.0,54.0,73.0,63.0,73,2963.0,square3,r,0.097,2,V,11.0
V11,44.0,76.0,54.0,75.0,59.0,75,3038.0,square3,r,0.247,2,V,11.0
V11,45.0,79.0,59.0,71.0,64.0,71,3109.0,square3,r,0.384,2,V,11.0
V11,46.0,80.0,55.0,67.0,57.0,67,3176.0,square3,r,0.261,2,V,11.0
V11,47.0,84.0,53.0,75.0,56.0,75,3251.0,square3,r,0.179,2,V,11.0
V11,48.0,83.0,57.0,71.0,60.0,71,3322.0,square3,r,0.013,2,V,11.0
V11,49.0,79.0,52.0,71.0,60.0,71,3393.0,square3,r,0.212,2,V,11.0
V11,50.0,76.0,50.0,69.0,60.0,69,3462.0,square3,r,0.301,2,V,11.0
V11,51.0,79.0,54.0,72.0,57.0,72,3534.0,square3,r,0.045,2,V,11.0
V11,52.0,80.0,54.0,72.0,64.0,72,3606.0,square3,r,0.054,2,V,11.0
V11,53.0,35.0,50.0,55.0,69.0,55,3661.0,square3,r,0.135,2,V,11.0
V11,54.0,45.0,48.0,55.0,73.0,48,3709.0,square2,f,0.418,1,V,11.0
V11,55.0,43.0,53.0,58.0,70.0,70,3779.0,square4,j,0.878,3,V,11.0
V11,56.0,40.0,46.0,60.0,62.0,62,3841.0,square4,j,0.214,3,V,11.0
V11,57.0,44.0,46.0,53.0,71.0,71,3912.0,square4,j,0.096,3,V,11.0
V11,58.0,44.0,52.0,55.0,68.0,68,3980.0,square4,j,0.317,3,V,11.0
V11,59.0,44.0,44.0,57.0,66.0,66,4046.0,square4,j,0.211,3,V,11.0
V11,60.0,40.0,46.0,57.0,62.0,62,4108.0,square4,j,0.121,3,V,11.0
V11,61.0,42.0,52.0,58.0,62.0,42,4150.0,square1,i,0.214,0,V,11.0
V11,62.0,40.0,49.0,56.0,71.0,49,4199.0,square2,f,0.512,1,V,11.0
V11,63.0,40.0,54.0,60.0,66.0,60,4259.0,square3,r,0.166,2,V,11.0
V11,64.0,41.0,43.0,51.0,66.0,66,4325.0,square4,j,0.532,3,V,11.0
V11,65.0,39.0,48.0,59.0,66.0,66,4391.0,square4,j,0.236,3,V,11.0
V11,66.0,40.0,48.0,59.0,69.0,69,4460.0,square4,j,0.138,3,V,11.0
V11,67.0,46.0,45.0,58.0,69.0,69,4529.0,square4,j,0.255,3,V,11.0
V11,68.0,41.0,50.0,56.0,69.0,69,4598.0,square4,j,0.0,3,V,11.0
V11,69.0,48.0,49.0,57.0,71.0,71,4669.0,square4,j,0.104,3,V,11.0
V11,70.0,41.0,47.0,58.0,65.0,65,4734.0,square4,j,0.025,3,V,11.0
V11,71.0,37.0,46.0,58.0,60.0,60,4794.0,square4,j,0.027,3,V,11.0
V11,72.0,41.0,47.0,54.0,65.0,65,4859.0,square4,j,0.045,3,V,11.0
V11,73.0,42.0,47.0,60.0,67.0,67,4926.0,square4,j,0.596,3,V,11.0
V11,74.0,43.0,49.0,57.0,64.0,64,4990.0,square4,j,0.154,3,V,11.0
V11,75.0,38.0,46.0,57.0,66.0,66,5056.0,square4,j,0.029,3,V,11.0
V11,76.0,42.0,50.0,58.0,68.0,68,5124.0,square4,j,0.095,3,V,11.0
V11,77.0,36.0,49.0,58.0,64.0,64,5188.0,square4,j,0.0,3,V,11.0
V11,78.0,40.0,50.0,56.0,67.0,67,5255.0,square4,j,0.0,3,V,11.0
V11,79.0,39.0,48.0,56.0,67.0,67,5322.0,square4,j,0.001,3,V,11.0
V11,80.0,51.0,33.0,30.0,45.0,45,5367.0,square4,j,0.031,3,V,11.0
V11,81.0,49.0,31.0,23.0,48.0,48,5415.0,square4,j,0.063,3,V,11.0
V11,82.0,55.0,30.0,25.0,42.0,42,5457.0,square4,j,0.082,3,V,11.0
V11,83.0,50.0,33.0,27.0,48.0,48,5505.0,square4,j,0.048,3,V,11.0
V11,84.0,52.0,34.0,25.0,43.0,43,5548.0,square4,j,0.0,3,V,11.0
V11,85.0,49.0,28.0,28.0,44.0,44,5592.0,square4,j,0.0,3,V,11.0
V11,86.0,57.0,29.0,27.0,48.0,48,5640.0,square4,j,0.294,3,V,11.0
V11,87.0,49.0,29.0,21.0,38.0,38,5678.0,square4,j,0.001,3,V,11.0
V11,88.0,55.0,32.0,29.0,46.0,46,5724.0,square4,j,0.165,3,V,11.0
V11,89.0,50.0,28.0,23.0,43.0,43,5767.0,square4,j,0.055,3,V,11.0
V11,90.0,54.0,34.0,32.0,41.0,41,5808.0,square4,j,0.079,3,V,11.0
V11,91.0,50.0,34.0,26.0,44.0,26,5834.0,square3,r,0.152,2,V,11.0
V11,92.0,51.0,31.0,27.0,50.0,31,5865.0,square2,f,0.094,1,V,11.0
V11,93.0,49.0,38.0,28.0,42.0,49,5914.0,square1,i,0.229,0,V,11.0
V11,94.0,50.0,29.0,25.0,46.0,46,5960.0,square4,j,0.064,3,V,11.0
V11,95.0,51.0,36.0,22.0,40.0,51,6011.0,square1,i,0.197,0,V,11.0
V11,96.0,52.0,34.0,32.0,45.0,52,6063.0,square1,i,0.114,0,V,11.0
V11,97.0,53.0,27.0,32.0,44.0,53,6116.0,square1,i,0.131,0,V,11.0
V11,98.0,60.0,31.0,25.0,48.0,60,6176.0,square1,i,0.114,0,V,11.0
V11,99.0,53.0,33.0,23.0,42.0,53,6229.0,square1,i,0.0,0,V,11.0
V5,0.0,46.0,21.0,37.0,28.0,99999,0.0,invalid,,,-1,V,5.0
V5,1.0,43.0,27.0,36.0,31.0,99999,0.0,invalid,,,-1,V,5.0
V5,2.0,50.0,18.0,43.0,32.0,50,50.0,square1,r,1.302,0,V,5.0
V5,3.0,53.0,23.0,36.0,34.0,36,86.0,square3,f,0.392,2,V,5.0
V5,4.0,52.0,19.0,38.0,34.0,19,105.0,square2,j,0.17,1,V,5.0
V5,5.0,50.0,22.0,41.0,29.0,29,134.0,square4,i,0.114,3,V,5.0
V5,6.0,52.0,19.0,40.0,33.0,52,186.0,square1,r,0.163,0,V,5.0
V5,7.0,48.0,24.0,36.0,27.0,48,234.0,square1,r,0.0,0,V,5.0
V5,8.0,50.0,24.0,35.0,33.0,50,284.0,square1,r,0.149,0,V,5.0
V5,9.0,48.0,25.0,39.0,34.0,48,332.0,square1,r,0.145,0,V,5.0
V5,10.0,52.0,19.0,32.0,34.0,52,384.0,square1,r,0.103,0,V,5.0
V5,11.0,48.0,22.0,32.0,32.0,48,432.0,square1,r,0.132,0,V,5.0
V5,12.0,47.0,17.0,43.0,29.0,47,479.0,square1,r,0.078,0,V,5.0
V5,13.0,46.0,21.0,42.0,29.0,46,525.0,square1,r,0.153,0,V,5.0
V5,14.0,47.0,28.0,42.0,28.0,47,572.0,square1,r,0.102,0,V,5.0
V5,15.0,50.0,29.0,38.0,36.0,50,622.0,square1,r,0.132,0,V,5.0
V5,16.0,49.0,24.0,36.0,34.0,49,671.0,square1,r,0.11,0,V,5.0
V5,17.0,50.0,20.0,38.0,35.0,50,721.0,square1,r,0.182,0,V,5.0
V5,18.0,49.0,22.0,46.0,29.0,49,770.0,square1,r,0.12,0,V,5.0
V5,19.0,46.0,23.0,40.0,31.0,46,816.0,square1,r,0.28,0,V,5.0
V5,20.0,51.0,22.0,41.0,28.0,51,867.0,square1,r,0.076,0,V,5.0
V5,21.0,51.0,26.0,36.0,31.0,51,918.0,square1,r,0.081,0,V,5.0
V5,22.0,47.0,18.0,41.0,28.0,47,965.0,square1,r,0.048,0,V,5.0
V5,23.0,52.0,20.0,36.0,29.0,52,1017.0,square1,r,0.133,0,V,5.0
V5,24.0,51.0,21.0,41.0,34.0,51,1068.0,square1,r,0.115,0,V,5.0
V5,25.0,50.0,20.0,41.0,27.0,50,1118.0,square1,r,0.021,0,V,5.0
V5,26.0,49.0,29.0,37.0,28.0,49,1167.0,square1,r,0.001,0,V,5.0
V5,27.0,10.0,13.0,42.0,32.0,10,1177.0,square1,r,0.001,0,V,5.0
V5,28.0,9.0,19.0,40.0,27.0,9,1186.0,square1,r,0.396,0,V,5.0
V5,29.0,17.0,17.0,38.0,29.0,38,1224.0,square3,f,0.079,2,V,5.0
V5,30.0,8.0,18.0,36.0,29.0,29,1253.0,square4,i,0.93,3,V,5.0
V5,31.0,16.0,24.0,34.0,29.0,24,1277.0,square2,j,0.104,1,V,5.0
V5,32.0,9.0,17.0,35.0,31.0,35,1312.0,square3,f,0.046,2,V,5.0
V5,33.0,11.0,19.0,36.0,28.0,11,1323.0,square1,r,0.235,0,V,5.0
V5,34.0,10.0,19.0,38.0,28.0,38,1361.0,square3,f,0.136,2,V,5.0
V5,35.0,5.0,23.0,40.0,34.0,40,1401.0,square3,f,0.001,2,V,5.0
V5,36.0,17.0,20.0,36.0,31.0,36,1437.0,square3,f,0.065,2,V,5.0
V5,37.0,12.0,13.0,36.0,30.0,36,1473.0,square3,f,0.136,2,V,5.0
V5,38.0,14.0,24.0,35.0,27.0,35,1508.0,square3,f,0.064,2,V,5.0
V5,39.0,13.0,20.0,39.0,32.0,20,1528.0,square2,j,0.148,1,V,5.0
V5,40.0,9.0,15.0,37.0,24.0,24,1552.0,square4,i,0.003,3,V,5.0
V5,41.0,9.0,14.0,38.0,31.0,38,1590.0,square3,f,0.053,2,V,5.0
V5,42.0,14.0,17.0,43.0,31.0,43,1633.0,square3,f,0.147,2,V,5.0
V5,43.0,10.0,18.0,39.0,23.0,39,1672.0,square3,f,0.081,2,V,5.0
V5,44.0,10.0,20.0,33.0,32.0,33,1705.0,square3,f,0.0,2,V,5.0
V5,45.0,16.0,17.0,37.0,29.0,37,1742.0,square3,f,0.02,2,V,5.0
V5,46.0,9.0,22.0,37.0,25.0,37,1779.0,square3,f,0.013,2,V,5.0
V5,47.0,10.0,22.0,35.0,26.0,35,1814.0,square3,f,0.079,2,V,5.0
V5,48.0,11.0,16.0,39.0,23.0,39,1853.0,square3,f,0.007,2,V,5.0
V5,49.0,13.0,16.0,33.0,27.0,33,1886.0,square3,f,0.012,2,V,5.0
V5,50.0,12.0,16.0,39.0,24.0,39,1925.0,square3,f,0.0,2,V,5.0
V5,51.0,10.0,21.0,43.0,28.0,43,1968.0,square3,f,0.066,2,V,5.0
V5,52.0,8.0,15.0,36.0,28.0,36,2004.0,square3,f,0.05,2,V,5.0
V5,53.0,38.0,20.0,31.0,54.0,31,2035.0,square3,f,0.045,2,V,5.0
V5,54.0,39.0,20.0,35.0,51.0,35,2070.0,square3,f,0.344,2,V,5.0
V5,55.0,41.0,21.0,27.0,50.0,27,2097.0,square3,f,0.054,2,V,5.0
V5,56.0,39.0,23.0,28.0,49.0,28,2125.0,square3,f,0.135,2,V,5.0
V5,57.0,36.0,28.0,29.0,59.0,29,2154.0,square3,f,0.11,2,V,5.0
V5,58.0,38.0,22.0,28.0,49.0,38,2192.0,square1,r,0.661,0,V,5.0
V5,59.0,44.0,23.0,30.0,51.0,44,2236.0,square1,r,0.082,0,V,5.0
V5,60.0,43.0,21.0,31.0,48.0,43,2279.0,square1,r,0.0,0,V,5.0
V5,61.0,39.0,24.0,35.0,50.0,39,2318.0,square1,r,0.122,0,V,5.0
V5,62.0,38.0,25.0,31.0,52.0,38,2356.0,square1,r,0.03,0,V,5.0
V5,63.0,41.0,14.0,31.0,52.0,41,2397.0,square1,r,0.127,0,V,5.0
V5,64.0,43.0,23.0,30.0,51.0,43,2440.0,square1,r,0.063,0,V,5.0
V5,65.0,41.0,23.0,35.0,52.0,41,2481.0,square1,r,0.22,0,V,5.0
V5,66.0,41.0,17.0,33.0,47.0,41,2522.0,square1,r,0.149,0,V,5.0
V5,67.0,44.0,23.0,32.0,49.0,44,2566.0,square1,r,0.11,0,V,5.0
V5,68.0,44.0,24.0,31.0,44.0,44,2610.0,square1,r,0.004,0,V,5.0
V5,69.0,43.0,28.0,27.0,48.0,43,2653.0,square1,r,0.046,0,V,5.0
V5,70.0,38.0,22.0,26.0,50.0,38,2691.0,square1,r,0.0,0,V,5.0
V5,71.0,41.0,29.0,26.0,53.0,41,2732.0,square1,r,0.148,0,V,5.0
V5,72.0,40.0,20.0,28.0,51.0,40,2772.0,square1,r,0.088,0,V,5.0
V5,73.0,59.0,44.0,51.0,35.0,59,2831.0,square1,r,0.047,0,V,5.0
V5,74.0,60.0,38.0,55.0,43.0,60,2891.0,square1,r,0.119,0,V,5.0
V5,75.0,63.0,45.0,50.0,37.0,63,2954.0,square1,r,0.097,0,V,5.0
V5,76.0,62.0,42.0,50.0,37.0,62,3016.0,square1,r,0.027,0,V,5.0
V5,77.0,57.0,37.0,52.0,35.0,57,3073.0,square1,r,0.131,0,V,5.0
V5,78.0,66.0,45.0,54.0,37.0,66,3139.0,square1,r,0.264,0,V,5.0
V5,79.0,64.0,37.0,48.0,35.0,64,3203.0,square1,r,0.082,0,V,5.0
V5,80.0,63.0,40.0,56.0,38.0,63,3266.0,square1,r,0.328,0,V,5.0
V5,81.0,62.0,41.0,54.0,32.0,62,3328.0,square1,r,0.164,0,V,5.0
V5,82.0,58.0,41.0,59.0,39.0,58,3386.0,square1,r,0.031,0,V,5.0
V5,83.0,66.0,46.0,54.0,35.0,66,3452.0,square1,r,0.089,0,V,5.0
V5,84.0,67.0,44.0,52.0,33.0,67,3519.0,square1,r,0.136,0,V,5.0
V5,85.0,67.0,45.0,46.0,36.0,67,3586.0,square1,r,0.014,0,V,5.0
V5,86.0,65.0,44.0,51.0,38.0,65,3651.0,square1,r,0.168,0,V,5.0
V5,87.0,64.0,49.0,48.0,35.0,64,3715.0,square1,r,0.004,0,V,5.0
V5,88.0,68.0,47.0,56.0,36.0,68,3783.0,square1,r,0.009,0,V,5.0
V5,89.0,60.0,42.0,57.0,32.0,60,3843.0,square1,r,0.011,0,V,5.0
V5,90.0,59.0,43.0,53.0,34.0,59,3902.0,square1,r,0.078,0,V,5.0
V5,91.0,64.0,43.0,51.0,34.0,64,3966.0,square1,r,0.061,0,V,5.0
V5,92.0,65.0,41.0,57.0,38.0,65,4031.0,square1,r,0.129,0,V,5.0
V5,93.0,59.0,48.0,54.0,40.0,59,4090.0,square1,r,0.0,0,V,5.0
V5,94.0,66.0,44.0,53.0,43.0,66,4156.0,square1,r,0.036,0,V,5.0
V5,95.0,63.0,43.0,50.0,40.0,63,4219.0,square1,r,0.029,0,V,5.0
V5,96.0,62.0,44.0,50.0,33.0,62,4281.0,square1,r,0.017,0,V,5.0
V5,97.0,64.0,49.0,55.0,37.0,64,4345.0,square1,r,0.13,0,V,5.0
V5,98.0,65.0,44.0,53.0,36.0,65,4410.0,square1,r,0.179,0,V,5.0
V5,99.0,65.0,42.0,55.0,35.0,65,4475.0,square1,r,0.095,0,V,5.0
V10,0.0,28.0,21.0,37.0,46.0,46,46.0,square4,r,1.049,3,V,10.0
V10,1.0,26.0,19.0,41.0,49.0,49,95.0,square4,r,0.035,3,V,10.0
V10,2.0,29.0,20.0,43.0,48.0,48,143.0,square4,r,0.061,3,V,10.0
V10,3.0,27.0,27.0,37.0,44.0,44,187.0,square4,r,0.129,3,V,10.0
V10,4.0,28.0,16.0,36.0,47.0,47,234.0,square4,r,0.019,3,V,10.0
V10,5.0,33.0,25.0,42.0,54.0,54,288.0,square4,r,0.01,3,V,10.0
V10,6.0,28.0,19.0,35.0,45.0,45,333.0,square4,r,0.059,3,V,10.0
V10,7.0,30.0,24.0,35.0,49.0,49,382.0,square4,r,0.049,3,V,10.0
V10,8.0,37.0,29.0,41.0,47.0,47,429.0,square4,r,0.114,3,V,10.0
V10,9.0,28.0,21.0,41.0,48.0,48,477.0,square4,r,0.05,3,V,10.0
V10,10.0,27.0,22.0,39.0,42.0,27,504.0,square1,f,0.095,0,V,10.0
V10,11.0,32.0,16.0,41.0,48.0,41,545.0,square3,j,0.464,2,V,10.0
V10,12.0,34.0,15.0,33.0,49.0,15,560.0,square2,i,0.141,1,V,10.0
V10,13.0,36.0,19.0,41.0,45.0,45,605.0,square4,r,0.0,3,V,10.0
V10,14.0,28.0,23.0,35.0,53.0,53,658.0,square4,r,0.004,3,V,10.0
V10,15.0,26.0,28.0,40.0,50.0,50,708.0,square4,r,0.009,3,V,10.0
V10,16.0,30.0,25.0,42.0,47.0,47,755.0,square4,r,0.05,3,V,10.0
V10,17.0,31.0,19.0,38.0,50.0,50,805.0,square4,r,0.146,3,V,10.0
V10,18.0,34.0,21.0,35.0,48.0,48,853.0,square4,r,0.098,3,V,10.0
V10,19.0,31.0,24.0,39.0,46.0,46,899.0,square4,r,0.01,3,V,10.0
V10,20.0,28.0,22.0,42.0,47.0,47,946.0,square4,r,0.05,3,V,10.0
V10,21.0,24.0,20.0,41.0,47.0,47,993.0,square4,r,0.087,3,V,10.0
V10,22.0,32.0,22.0,34.0,44.0,44,1037.0,square4,r,0.112,3,V,10.0
V10,23.0,29.0,23.0,37.0,47.0,47,1084.0,square4,r,0.065,3,V,10.0
V10,24.0,25.0,25.0,38.0,46.0,46,1130.0,square4,r,0.131,3,V,10.0
V10,25.0,30.0,24.0,41.0,45.0,45,1175.0,square4,r,0.105,3,V,10.0
V10,26.0,32.0,17.0,38.0,49.0,49,1224.0,square4,r,0.009,3,V,10.0
V10,27.0,34.0,21.0,38.0,47.0,47,1271.0,square4,r,0.136,3,V,10.0
V10,28.0,29.0,21.0,37.0,45.0,45,1316.0,square4,r,0.099,3,V,10.0
V10,29.0,30.0,20.0,31.0,47.0,47,1363.0,square4,r,0.044,3,V,10.0
V10,30.0,28.0,21.0,35.0,44.0,44,1407.0,square4,r,0.014,3,V,10.0
V10,31.0,36.0,25.0,14.0,8.0,8,1415.0,square4,r,0.099,3,V,10.0
V10,32.0,38.0,27.0,19.0,11.0,11,1426.0,square4,r,0.082,3,V,10.0
V10,33.0,39.0,21.0,20.0,13.0,13,1439.0,square4,r,0.097,3,V,10.0
V10,34.0,34.0,24.0,20.0,10.0,34,1473.0,square1,f,0.049,0,V,10.0
V10,35.0,44.0,29.0,17.0,11.0,44,1517.0,square1,f,0.166,0,V,10.0
V10,36.0,33.0,30.0,17.0,9.0,17,1534.0,square3,j,0.694,2,V,10.0
V10,37.0,31.0,27.0,12.0,6.0,27,1561.0,square2,i,0.149,1,V,10.0
V10,38.0,34.0,29.0,15.0,10.0,10,1571.0,square4,r,0.0,3,V,10.0
V10,39.0,35.0,21.0,19.0,5.0,21,1592.0,square2,i,0.116,1,V,10.0
V10,40.0,32.0,26.0,18.0,6.0,26,1618.0,square2,i,0.054,1,V,10.0
V10,41.0,34.0,32.0,13.0,9.0,32,1650.0,square2,i,0.13,1,V,10.0
V10,42.0,35.0,30.0,16.0,8.0,30,1680.0,square2,i,0.0,1,V,10.0
V10,43.0,38.0,32.0,16.0,8.0,32,1712.0,square2,i,0.015,1,V,10.0
V10,44.0,34.0,20.0,18.0,3.0,20,1732.0,square2,i,0.104,1,V,10.0
V10,45.0,38.0,22.0,23.0,9.0,22,1754.0,square2,i,0.046,1,V,10.0
V10,46.0,36.0,28.0,16.0,10.0,28,1782.0,square2,i,0.097,1,V,10.0
V10,47.0,36.0,27.0,13.0,8.0,27,1809.0,square2,i,0.001,1,V,10.0
V10,48.0,35.0,27.0,14.0,12.0,27,1836.0,square2,i,0.082,1,V,10.0
V10,49.0,33.0,28.0,16.0,10.0,28,1864.0,square2,i,0.102,1,V,10.0
V10,50.0,31.0,29.0,19.0,8.0,29,1893.0,square2,i,0.131,1,V,10.0
V10,51.0,32.0,21.0,20.0,12.0,12,1905.0,square4,r,0.53,3,V,10.0
V10,52.0,29.0,25.0,21.0,10.0,29,1934.0,square1,f,0.129,0,V,10.0
V10,53.0,39.0,29.0,23.0,2.0,29,1963.0,square2,i,0.637,1,V,10.0
V10,54.0,33.0,28.0,19.0,7.0,19,1982.0,square3,j,0.052,2,V,10.0
V10,55.0,34.0,24.0,15.0,8.0,24,2006.0,square2,i,0.796,1,V,10.0
V10,56.0,35.0,20.0,21.0,9.0,20,2026.0,square2,i,0.035,1,V,10.0
V10,57.0,33.0,27.0,19.0,7.0,27,2053.0,square2,i,0.067,1,V,10.0
V10,58.0,38.0,24.0,16.0,7.0,24,2077.0,square2,i,0.146,1,V,10.0
V10,59.0,34.0,29.0,15.0,5.0,29,2106.0,square2,i,0.026,1,V,10.0
V10,60.0,34.0,22.0,19.0,9.0,22,2128.0,square2,i,0.082,1,V,10.0
V10,61.0,39.0,31.0,20.0,10.0,31,2159.0,square2,i,0.13,1,V,10.0
V10,62.0,35.0,24.0,18.0,6.0,24,2183.0,square2,i,0.152,1,V,10.0
V10,63.0,35.0,26.0,18.0,9.0,26,2209.0,square2,i,0.047,1,V,10.0
V10,64.0,31.0,55.0,23.0,23.0,55,2264.0,square2,i,0.136,1,V,10.0
V10,65.0,35.0,50.0,22.0,27.0,50,2314.0,square2,i,0.136,1,V,10.0
V10,66.0,35.0,53.0,25.0,29.0,53,2367.0,square2,i,0.219,1,V,10.0
V10,67.0,38.0,44.0,17.0,29.0,44,2411.0,square2,i,0.129,1,V,10.0
V10,68.0,36.0,48.0,22.0,27.0,48,2459.0,square2,i,0.03,1,V,10.0
V10,69.0,41.0,53.0,17.0,28.0,53,2512.0,square2,i,0.131,1,V,10.0
V10,70.0,40.0,48.0,23.0,28.0,48,2560.0,square2,i,0.101,1,V,10.0
V10,71.0,39.0,43.0,24.0,20.0,43,2603.0,square2,i,0.133,1,V,10.0
V10,72.0,36.0,49.0,19.0,25.0,49,2652.0,square2,i,0.2,1,V,10.0
V10,73.0,39.0,49.0,23.0,32.0,49,2701.0,square2,i,0.099,1,V,10.0
V10,74.0,36.0,44.0,17.0,29.0,44,2745.0,square2,i,0.001,1,V,10.0
V10,75.0,37.0,46.0,20.0,30.0,46,2791.0,square2,i,0.029,1,V,10.0
V10,76.0,38.0,47.0,23.0,30.0,47,2838.0,square2,i,0.001,1,V,10.0
V10,77.0,36.0,49.0,22.0,32.0,49,2887.0,square2,i,0.139,1,V,10.0
V10,78.0,41.0,44.0,19.0,27.0,44,2931.0,square2,i,0.154,1,V,10.0
V10,79.0,41.0,48.0,22.0,27.0,48,2979.0,square2,i,0.097,1,V,10.0
V10,80.0,34.0,44.0,26.0,29.0,44,3023.0,square2,i,0.047,1,V,10.0
V10,81.0,38.0,47.0,18.0,29.0,47,3070.0,square2,i,0.153,1,V,10.0
V10,82.0,43.0,43.0,23.0,28.0,43,3113.0,square2,i,0.009,1,V,10.0
V10,83.0,34.0,51.0,23.0,26.0,51,3164.0,square2,i,0.102,1,V,10.0
V10,84.0,36.0,46.0,18.0,25.0,46,3210.0,square2,i,0.165,1,V,10.0
V10,85.0,39.0,46.0,25.0,26.0,46,3256.0,square2,i,0.003,1,V,10.0
V10,86.0,39.0,50.0,27.0,27.0,50,3306.0,square2,i,0.412,1,V,10.0
V10,87.0,38.0,46.0,20.0,30.0,46,3352.0,square2,i,0.363,1,V,10.0
V10,88.0,37.0,49.0,22.0,28.0,49,3401.0,square2,i,0.003,1,V,10.0
V10,89.0,34.0,51.0,25.0,26.0,51,3452.0,square2,i,0.214,1,V,10.0
V10,90.0,41.0,49.0,22.0,29.0,49,3501.0,square2,i,0.216,1,V,10.0
V10,91.0,37.0,45.0,26.0,32.0,45,3546.0,square2,i,0.145,1,V,10.0
V10,92.0,42.0,42.0,27.0,28.0,42,3588.0,square2,i,0.127,1,V,10.0
V10,93.0,41.0,48.0,19.0,36.0,48,3636.0,square2,i,0.024,1,V,10.0
V10,94.0,43.0,49.0,23.0,31.0,49,3685.0,square2,i,0.011,1,V,10.0
V10,95.0,39.0,46.0,18.0,27.0,46,3731.0,square2,i,0.054,1,V,10.0
V10,96.0,37.0,48.0,24.0,27.0,48,3779.0,square2,i,0.001,1,V,10.0
V10,97.0,42.0,50.0,23.0,31.0,50,3829.0,square2,i,0.011,1,V,10.0
V10,98.0,33.0,47.0,25.0,32.0,47,3876.0,square2,i,0.079,1,V,10.0
V10,99.0,39.0,48.0,23.0,32.0,48,3924.0,square2,i,0.0,1,V,10.0
NS8,0.0,61.0,62.0,34.0,32.0,61,61.0,square1,r,1.187,0,N,8.0
NS8,1.0,57.0,56.0,38.0,27.0,38,99.0,square3,f,0.289,2,N,8.0
NS8,2.0,66.0,55.0,42.0,28.0,28,127.0,square4,i,0.07,3,N,8.0
NS8,3.0,67.0,51.0,37.0,28.0,51,178.0,square2,j,0.007,1,N,8.0
NS8,4.0,65.0,53.0,38.0,32.0,65,243.0,square1,r,0.129,0,N,8.0
NS8,5.0,67.0,52.0,43.0,33.0,67,310.0,square1,r,0.018,0,N,8.0
NS8,6.0,56.0,47.0,41.0,36.0,56,366.0,square1,r,0.031,0,N,8.0
NS8,7.0,58.0,46.0,37.0,31.0,58,424.0,square1,r,0.015,0,N,8.0
NS8,8.0,60.0,58.0,36.0,35.0,60,484.0,square1,r,0.038,0,N,8.0
NS8,9.0,60.0,66.0,41.0,39.0,60,544.0,square1,r,0.081,0,N,8.0
NS8,10.0,60.0,60.0,36.0,33.0,60,604.0,square1,r,0.147,0,N,8.0
NS8,11.0,53.0,63.0,32.0,35.0,53,657.0,square1,r,0.066,0,N,8.0
NS8,12.0,51.0,60.0,32.0,29.0,51,708.0,square1,r,0.122,0,N,8.0
NS8,13.0,53.0,65.0,30.0,32.0,53,761.0,square1,r,0.079,0,N,8.0
NS8,14.0,56.0,69.0,25.0,33.0,56,817.0,square1,r,0.031,0,N,8.0
NS8,15.0,57.0,71.0,29.0,35.0,57,874.0,square1,r,0.097,0,N,8.0
NS8,16.0,55.0,64.0,31.0,33.0,55,929.0,square1,r,0.025,0,N,8.0
NS8,17.0,48.0,65.0,29.0,32.0,48,977.0,square1,r,0.037,0,N,8.0
NS8,18.0,44.0,64.0,28.0,34.0,44,1021.0,square1,r,0.081,0,N,8.0
NS8,19.0,46.0,60.0,26.0,33.0,46,1067.0,square1,r,0.084,0,N,8.0
NS8,20.0,41.0,58.0,29.0,35.0,41,1108.0,square1,r,0.001,0,N,8.0
NS8,21.0,45.0,57.0,29.0,35.0,45,1153.0,square1,r,0.011,0,N,8.0
NS8,22.0,47.0,53.0,32.0,32.0,47,1200.0,square1,r,0.029,0,N,8.0
NS8,23.0,49.0,52.0,33.0,35.0,49,1249.0,square1,r,0.054,0,N,8.0
NS8,24.0,56.0,53.0,30.0,37.0,56,1305.0,square1,r,0.0,0,N,8.0
NS8,25.0,57.0,48.0,28.0,42.0,57,1362.0,square1,r,0.164,0,N,8.0
NS8,26.0,52.0,48.0,33.0,43.0,52,1414.0,square1,r,0.164,0,N,8.0
NS8,27.0,53.0,45.0,28.0,47.0,53,1467.0,square1,r,0.029,0,N,8.0
NS8,28.0,50.0,43.0,27.0,41.0,50,1517.0,square1,r,0.025,0,N,8.0
NS8,29.0,53.0,52.0,29.0,43.0,53,1570.0,square1,r,0.131,0,N,8.0
NS8,30.0,54.0,51.0,30.0,41.0,54,1624.0,square1,r,0.01,0,N,8.0
NS8,31.0,50.0,50.0,31.0,42.0,50,1674.0,square1,r,0.165,0,N,8.0
NS8,32.0,50.0,50.0,35.0,43.0,50,1724.0,square1,r,0.18,0,N,8.0
NS8,33.0,46.0,48.0,39.0,41.0,46,1770.0,square1,r,0.145,0,N,8.0
NS8,34.0,47.0,46.0,41.0,40.0,47,1817.0,square1,r,0.069,0,N,8.0
NS8,35.0,57.0,45.0,36.0,37.0,57,1874.0,square1,r,0.148,0,N,8.0
NS8,36.0,53.0,49.0,41.0,38.0,53,1927.0,square1,r,0.147,0,N,8.0
NS8,37.0,57.0,50.0,41.0,39.0,57,1984.0,square1,r,0.062,0,N,8.0
NS8,38.0,61.0,51.0,39.0,43.0,61,2045.0,square1,r,0.13,0,N,8.0
NS8,39.0,59.0,54.0,41.0,36.0,59,2104.0,square1,r,0.067,0,N,8.0
NS8,40.0,53.0,55.0,47.0,40.0,53,2157.0,square1,r,0.001,0,N,8.0
NS8,41.0,53.0,55.0,43.0,39.0,53,2210.0,square1,r,0.015,0,N,8.0
NS8,42.0,59.0,55.0,45.0,40.0,59,2269.0,square1,r,0.079,0,N,8.0
NS8,43.0,54.0,46.0,51.0,37.0,54,2323.0,square1,r,0.052,0,N,8.0
NS8,44.0,56.0,44.0,50.0,35.0,56,2379.0,square1,r,0.007,0,N,8.0
NS8,45.0,51.0,46.0,41.0,37.0,51,2430.0,square1,r,0.028,0,N,8.0
NS8,46.0,52.0,43.0,44.0,34.0,52,2482.0,square1,r,0.052,0,N,8.0
NS8,47.0,46.0,41.0,36.0,37.0,46,2528.0,square1,r,0.001,0,N,8.0
NS8,48.0,47.0,46.0,39.0,37.0,47,2575.0,square1,r,0.027,0,N,8.0
NS8,49.0,48.0,36.0,38.0,40.0,48,2623.0,square1,r,0.086,0,N,8.0
NS8,50.0,51.0,37.0,36.0,46.0,51,2674.0,square1,r,0.099,0,N,8.0
NS8,51.0,53.0,38.0,40.0,43.0,53,2727.0,square1,r,0.15,0,N,8.0
NS8,52.0,47.0,32.0,37.0,44.0,47,2774.0,square1,r,0.0,0,N,8.0
NS8,53.0,52.0,31.0,38.0,46.0,52,2826.0,square1,r,0.11,0,N,8.0
NS8,54.0,44.0,34.0,40.0,45.0,44,2870.0,square1,r,0.0,0,N,8.0
NS8,55.0,46.0,26.0,37.0,41.0,99999,2870.0,invalid,,,-1,N,8.0
NS8,56.0,42.0,29.0,36.0,40.0,99999,2870.0,invalid,,,-1,N,8.0
NS8,57.0,39.0,21.0,39.0,40.0,99999,2870.0,invalid,,,-1,N,8.0
NS8,58.0,42.0,18.0,39.0,40.0,42,2912.0,square1,r,1.189,0,N,8.0
NS8,59.0,46.0,16.0,41.0,39.0,46,2958.0,square1,r,0.028,0,N,8.0
NS8,60.0,45.0,20.0,40.0,39.0,99999,2958.0,invalid,,,-1,N,8.0
NS8,61.0,45.0,26.0,42.0,39.0,99999,2958.0,invalid,,,-1,N,8.0
NS8,62.0,46.0,21.0,45.0,37.0,99999,2958.0,invalid,,,-1,N,8.0
NS8,63.0,50.0,23.0,40.0,38.0,50,3008.0,square1,r,0.146,0,N,8.0
NS8,64.0,46.0,24.0,41.0,33.0,46,3054.0,square1,r,0.064,0,N,8.0
NS8,65.0,48.0,28.0,42.0,32.0,48,3102.0,square1,r,0.0,0,N,8.0
NS8,66.0,47.0,20.0,40.0,35.0,47,3149.0,square1,r,0.0,0,N,8.0
NS8,67.0,49.0,25.0,46.0,34.0,49,3198.0,square1,r,0.146,0,N,8.0
NS8,68.0,47.0,24.0,45.0,33.0,47,3245.0,square1,r,0.001,0,N,8.0
NS8,69.0,45.0,21.0,47.0,35.0,45,3290.0,square1,r,0.116,0,N,8.0
NS8,70.0,44.0,21.0,47.0,37.0,44,3334.0,square1,r,0.029,0,N,8.0
NS8,71.0,44.0,15.0,41.0,38.0,44,3378.0,square1,r,0.101,0,N,8.0
NS8,72.0,47.0,19.0,49.0,40.0,47,3425.0,square1,r,0.015,0,N,8.0
NS8,73.0,39.0,21.0,53.0,38.0,39,3464.0,square1,r,0.095,0,N,8.0
NS8,74.0,42.0,19.0,53.0,35.0,42,3506.0,square1,r,0.347,0,N,8.0
NS8,75.0,37.0,18.0,43.0,35.0,37,3543.0,square1,r,0.034,0,N,8.0
NS8,76.0,35.0,14.0,42.0,38.0,35,3578.0,square1,r,0.202,0,N,8.0
NS8,77.0,38.0,19.0,47.0,44.0,38,3616.0,square1,r,0.047,0,N,8.0
NS8,78.0,38.0,18.0,50.0,46.0,38,3654.0,square1,r,0.145,0,N,8.0
NS8,79.0,33.0,22.0,54.0,44.0,33,3687.0,square1,r,0.152,0,N,8.0
NS8,80.0,38.0,21.0,56.0,52.0,38,3725.0,square1,r,0.314,0,N,8.0
NS8,81.0,37.0,22.0,56.0,43.0,56,3781.0,square3,f,0.329,2,N,8.0
NS8,82.0,30.0,26.0,60.0,42.0,60,3841.0,square3,f,0.199,2,N,8.0
NS8,83.0,38.0,22.0,54.0,46.0,54,3895.0,square3,f,0.264,2,N,8.0
NS8,84.0,33.0,18.0,52.0,46.0,52,3947.0,square3,f,0.37,2,N,8.0
NS8,85.0,42.0,12.0,57.0,48.0,57,4004.0,square3,f,0.0,2,N,8.0
NS8,86.0,45.0,19.0,58.0,42.0,58,4062.0,square3,f,0.026,2,N,8.0
NS8,87.0,46.0,10.0,65.0,44.0,65,4127.0,square3,f,0.097,2,N,8.0
NS8,88.0,45.0,11.0,59.0,45.0,59,4186.0,square3,f,0.237,2,N,8.0
NS8,89.0,42.0,11.0,60.0,47.0,60,4246.0,square3,f,0.261,2,N,8.0
NS8,90.0,40.0,7.0,64.0,49.0,64,4310.0,square3,f,0.098,2,N,8.0
NS8,91.0,42.0,11.0,64.0,48.0,64,4374.0,square3,f,0.197,2,N,8.0
NS8,92.0,43.0,13.0,60.0,43.0,60,4434.0,square3,f,0.0,2,N,8.0
NS8,93.0,44.0,12.0,64.0,45.0,64,4498.0,square3,f,0.003,2,N,8.0
NS8,94.0,45.0,16.0,65.0,49.0,65,4563.0,square3,f,0.079,2,N,8.0
NS8,95.0,45.0,24.0,66.0,42.0,66,4629.0,square3,f,0.0,2,N,8.0
NS8,96.0,53.0,27.0,67.0,44.0,67,4696.0,square3,f,0.061,2,N,8.0
NS8,97.0,50.0,29.0,68.0,43.0,68,4764.0,square3,f,0.13,2,N,8.0
NS8,98.0,52.0,29.0,66.0,37.0,66,4830.0,square3,f,0.197,2,N,8.0
NS8,99.0,53.0,32.0,65.0,37.0,65,4895.0,square3,f,0.77,2,N,8.0
NS2,0.0,44.0,66.0,42.0,38.0,38,38.0,square4,r,0.39,3,N,2.0
NS2,1.0,44.0,66.0,47.0,43.0,43,81.0,square4,r,0.002,3,N,2.0
NS2,2.0,42.0,62.0,53.0,43.0,43,124.0,square4,r,0.072,3,N,2.0
NS2,3.0,46.0,58.0,48.0,46.0,46,170.0,square4,r,0.034,3,N,2.0
NS2,4.0,47.0,61.0,51.0,42.0,42,212.0,square4,r,0.413,3,N,2.0
NS2,5.0,51.0,58.0,50.0,50.0,50,262.0,square4,r,0.413,3,N,2.0
NS2,6.0,52.0,58.0,43.0,48.0,48,310.0,square4,r,0.22,3,N,2.0
NS2,7.0,50.0,52.0,43.0,50.0,50,360.0,square4,r,0.081,3,N,2.0
NS2,8.0,54.0,58.0,41.0,46.0,46,406.0,square4,r,0.263,3,N,2.0
NS2,9.0,52.0,59.0,42.0,46.0,46,452.0,square4,r,0.043,3,N,2.0
NS2,10.0,50.0,52.0,37.0,48.0,48,500.0,square4,r,0.203,3,N,2.0
NS2,11.0,45.0,56.0,38.0,43.0,43,543.0,square4,r,0.03,3,N,2.0
NS2,12.0,50.0,56.0,37.0,48.0,48,591.0,square4,r,0.328,3,N,2.0
NS2,13.0,47.0,63.0,36.0,49.0,49,640.0,square4,r,0.213,3,N,2.0
NS2,14.0,51.0,56.0,39.0,49.0,49,689.0,square4,r,0.016,3,N,2.0
NS2,15.0,46.0,64.0,39.0,50.0,50,739.0,square4,r,0.295,3,N,2.0
NS2,16.0,51.0,61.0,37.0,47.0,47,786.0,square4,r,0.247,3,N,2.0
NS2,17.0,59.0,68.0,46.0,53.0,53,839.0,square4,r,0.216,3,N,2.0
NS2,18.0,53.0,65.0,42.0,49.0,49,888.0,square4,r,0.164,3,N,2.0
NS2,19.0,52.0,67.0,47.0,49.0,49,937.0,square4,r,0.231,3,N,2.0
NS2,20.0,56.0,64.0,45.0,48.0,48,985.0,square4,r,0.281,3,N,2.0
NS2,21.0,57.0,73.0,46.0,44.0,44,1029.0,square4,r,0.134,3,N,2.0
NS2,22.0,54.0,76.0,36.0,47.0,47,1076.0,square4,r,0.206,3,N,2.0
NS2,23.0,55.0,77.0,35.0,42.0,42,1118.0,square4,r,0.117,3,N,2.0
NS2,24.0,53.0,68.0,35.0,46.0,46,1164.0,square4,r,0.111,3,N,2.0
NS2,25.0,55.0,73.0,29.0,45.0,45,1209.0,square4,r,0.046,3,N,2.0
NS2,26.0,52.0,69.0,30.0,49.0,49,1258.0,square4,r,0.028,3,N,2.0
NS2,27.0,52.0,62.0,33.0,52.0,52,1310.0,square4,r,0.236,3,N,2.0
NS2,28.0,58.0,62.0,33.0,47.0,58,1368.0,square1,f,0.129,0,N,2.0
NS2,29.0,56.0,65.0,38.0,46.0,56,1424.0,square1,f,0.33,0,N,2.0
NS2,30.0,56.0,66.0,37.0,50.0,56,1480.0,square1,f,0.1,0,N,2.0
NS2,31.0,50.0,64.0,35.0,45.0,50,1530.0,square1,f,0.232,0,N,2.0
NS2,32.0,56.0,62.0,38.0,45.0,56,1586.0,square1,f,0.271,0,N,2.0
NS2,33.0,59.0,58.0,34.0,48.0,59,1645.0,square1,f,0.0,0,N,2.0
NS2,34.0,55.0,59.0,36.0,48.0,55,1700.0,square1,f,0.249,0,N,2.0
NS2,35.0,54.0,57.0,33.0,48.0,54,1754.0,square1,f,0.118,0,N,2.0
NS2,36.0,53.0,58.0,34.0,51.0,53,1807.0,square1,f,0.161,0,N,2.0
NS2,37.0,46.0,53.0,32.0,55.0,46,1853.0,square1,f,0.132,0,N,2.0
NS2,38.0,46.0,59.0,37.0,49.0,46,1899.0,square1,f,0.002,0,N,2.0
NS2,39.0,53.0,59.0,36.0,48.0,53,1952.0,square1,f,0.081,0,N,2.0
NS2,40.0,46.0,60.0,37.0,42.0,46,1998.0,square1,f,0.018,0,N,2.0
NS2,41.0,51.0,57.0,42.0,41.0,51,2049.0,square1,f,0.696,0,N,2.0
NS2,42.0,49.0,53.0,46.0,41.0,49,2098.0,square1,f,0.197,0,N,2.0
NS2,43.0,49.0,57.0,43.0,39.0,49,2147.0,square1,f,0.062,0,N,2.0
NS2,44.0,48.0,55.0,48.0,37.0,48,2195.0,square1,f,0.545,0,N,2.0
NS2,45.0,49.0,52.0,34.0,36.0,49,2244.0,square1,f,0.047,0,N,2.0
NS2,46.0,50.0,46.0,39.0,34.0,50,2294.0,square1,f,0.111,0,N,2.0
NS2,47.0,55.0,48.0,39.0,26.0,55,2349.0,square1,f,0.128,0,N,2.0
NS2,48.0,55.0,42.0,41.0,31.0,55,2404.0,square1,f,0.001,0,N,2.0
NS2,49.0,55.0,41.0,36.0,36.0,55,2459.0,square1,f,0.0,0,N,2.0
NS2,50.0,50.0,43.0,43.0,36.0,50,2509.0,square1,f,0.214,0,N,2.0
NS2,51.0,49.0,40.0,44.0,32.0,49,2558.0,square1,f,0.001,0,N,2.0
NS2,52.0,54.0,45.0,40.0,32.0,54,2612.0,square1,f,0.214,0,N,2.0
NS2,53.0,55.0,44.0,42.0,38.0,55,2667.0,square1,f,0.199,0,N,2.0
NS2,54.0,57.0,44.0,42.0,37.0,57,2724.0,square1,f,0.06,0,N,2.0
NS2,55.0,56.0,47.0,35.0,29.0,56,2780.0,square1,f,0.001,0,N,2.0
NS2,56.0,56.0,45.0,31.0,36.0,56,2836.0,square1,f,0.295,0,N,2.0
NS2,57.0,48.0,43.0,33.0,36.0,48,2884.0,square1,f,0.348,0,N,2.0
NS2,58.0,46.0,44.0,30.0,40.0,46,2930.0,square1,f,0.028,0,N,2.0
NS2,59.0,45.0,36.0,33.0,37.0,45,2975.0,square1,f,0.167,0,N,2.0
NS2,60.0,45.0,37.0,32.0,38.0,45,3020.0,square1,f,0.029,0,N,2.0
NS2,61.0,47.0,37.0,31.0,37.0,47,3067.0,square1,f,0.115,0,N,2.0
NS2,62.0,46.0,36.0,28.0,34.0,46,3113.0,square1,f,0.097,0,N,2.0
NS2,63.0,53.0,36.0,26.0,43.0,53,3166.0,square1,f,0.198,0,N,2.0
NS2,64.0,53.0,37.0,24.0,45.0,53,3219.0,square1,f,0.145,0,N,2.0
NS2,65.0,49.0,34.0,27.0,49.0,49,3268.0,square1,f,0.161,0,N,2.0
NS2,66.0,50.0,30.0,26.0,57.0,50,3318.0,square1,f,0.147,0,N,2.0
NS2,67.0,49.0,28.0,32.0,55.0,49,3367.0,square1,f,0.078,0,N,2.0
NS2,68.0,53.0,23.0,35.0,55.0,53,3420.0,square1,f,0.146,0,N,2.0
NS2,69.0,49.0,29.0,33.0,51.0,49,3469.0,square1,f,0.0,0,N,2.0
NS2,70.0,54.0,27.0,30.0,60.0,54,3523.0,square1,f,0.045,0,N,2.0
NS2,71.0,57.0,28.0,31.0,59.0,57,3580.0,square1,f,0.179,0,N,2.0
NS2,72.0,55.0,25.0,29.0,61.0,55,3635.0,square1,f,0.027,0,N,2.0
NS2,73.0,63.0,29.0,31.0,56.0,63,3698.0,square1,f,0.301,0,N,2.0
NS2,74.0,59.0,34.0,34.0,58.0,59,3757.0,square1,f,0.214,0,N,2.0
NS2,75.0,58.0,37.0,31.0,53.0,58,3815.0,square1,f,0.083,0,N,2.0
NS2,76.0,62.0,41.0,25.0,53.0,62,3877.0,square1,f,0.147,0,N,2.0
NS2,77.0,60.0,37.0,30.0,52.0,60,3937.0,square1,f,0.193,0,N,2.0
NS2,78.0,63.0,37.0,37.0,50.0,63,4000.0,square1,f,0.096,0,N,2.0
NS2,79.0,66.0,44.0,32.0,47.0,66,4066.0,square1,f,0.0,0,N,2.0
NS2,80.0,65.0,41.0,30.0,45.0,65,4131.0,square1,f,0.063,0,N,2.0
NS2,81.0,60.0,37.0,26.0,49.0,60,4191.0,square1,f,0.097,0,N,2.0
NS2,82.0,68.0,38.0,28.0,46.0,68,4259.0,square1,f,0.002,0,N,2.0
NS2,83.0,63.0,42.0,30.0,49.0,63,4322.0,square1,f,0.082,0,N,2.0
NS2,84.0,71.0,41.0,37.0,51.0,71,4393.0,square1,f,0.0,0,N,2.0
NS2,85.0,63.0,47.0,29.0,40.0,63,4456.0,square1,f,0.029,0,N,2.0
NS2,86.0,67.0,42.0,36.0,44.0,67,4523.0,square1,f,0.497,0,N,2.0
NS2,87.0,62.0,45.0,31.0,41.0,62,4585.0,square1,f,0.064,0,N,2.0
NS2,88.0,63.0,39.0,32.0,44.0,63,4648.0,square1,f,0.148,0,N,2.0
NS2,89.0,66.0,39.0,37.0,39.0,66,4714.0,square1,f,0.197,0,N,2.0
NS2,90.0,53.0,38.0,35.0,40.0,53,4767.0,square1,f,0.062,0,N,2.0
NS2,91.0,57.0,39.0,38.0,43.0,57,4824.0,square1,f,0.01,0,N,2.0
NS2,92.0,53.0,36.0,40.0,47.0,53,4877.0,square1,f,0.128,0,N,2.0
NS2,93.0,47.0,39.0,43.0,38.0,47,4924.0,square1,f,0.008,0,N,2.0
NS2,94.0,45.0,33.0,46.0,40.0,45,4969.0,square1,f,0.051,0,N,2.0
NS2,95.0,49.0,38.0,53.0,36.0,49,5018.0,square1,f,0.182,0,N,2.0
NS2,96.0,50.0,39.0,46.0,34.0,50,5068.0,square1,f,0.215,0,N,2.0
NS2,97.0,57.0,37.0,44.0,41.0,57,5125.0,square1,f,0.039,0,N,2.0
NS2,98.0,55.0,43.0,39.0,43.0,55,5180.0,square1,f,0.088,0,N,2.0
NS2,99.0,56.0,46.0,41.0,41.0,56,5236.0,square1,f,0.046,0,N,2.0
NS12,0.0,80.0,24.0,40.0,79.0,40,40.0,square3,r,0.259,2,N,12.0
NS12,1.0,78.0,28.0,44.0,78.0,44,84.0,square3,r,0.129,2,N,12.0
NS12,2.0,77.0,28.0,37.0,82.0,82,166.0,square4,f,0.08,3,N,12.0
NS12,3.0,76.0,33.0,39.0,82.0,82,248.0,square4,f,0.021,3,N,12.0
NS12,4.0,79.0,37.0,34.0,78.0,78,326.0,square4,f,0.081,3,N,12.0
NS12,5.0,83.0,33.0,28.0,81.0,81,407.0,square4,f,0.07,3,N,12.0
NS12,6.0,77.0,39.0,33.0,80.0,80,487.0,square4,f,0.198,3,N,12.0
NS12,7.0,77.0,40.0,25.0,85.0,85,572.0,square4,f,0.0,3,N,12.0
NS12,8.0,77.0,40.0,29.0,87.0,87,659.0,square4,f,0.13,3,N,12.0
NS12,9.0,70.0,42.0,29.0,88.0,88,747.0,square4,f,0.095,3,N,12.0
NS12,10.0,65.0,47.0,31.0,86.0,86,833.0,square4,f,0.028,3,N,12.0
NS12,11.0,67.0,46.0,26.0,84.0,84,917.0,square4,f,0.094,3,N,12.0
NS12,12.0,67.0,36.0,26.0,84.0,84,1001.0,square4,f,0.132,3,N,12.0
NS12,13.0,69.0,33.0,23.0,82.0,82,1083.0,square4,f,0.147,3,N,12.0
NS12,14.0,66.0,35.0,20.0,81.0,81,1164.0,square4,f,0.2,3,N,12.0
NS12,15.0,66.0,30.0,23.0,78.0,78,1242.0,square4,f,0.035,3,N,12.0
NS12,16.0,69.0,28.0,17.0,74.0,74,1316.0,square4,f,0.112,3,N,12.0
NS12,17.0,66.0,32.0,20.0,78.0,78,1394.0,square4,f,0.088,3,N,12.0
NS12,18.0,60.0,33.0,26.0,76.0,76,1470.0,square4,f,0.18,3,N,12.0
NS12,19.0,63.0,37.0,23.0,76.0,76,1546.0,square4,f,0.113,3,N,12.0
NS12,20.0,59.0,36.0,24.0,78.0,78,1624.0,square4,f,0.231,3,N,12.0
NS12,21.0,59.0,35.0,25.0,79.0,79,1703.0,square4,f,0.198,3,N,12.0
NS12,22.0,61.0,37.0,26.0,88.0,88,1791.0,square4,f,0.081,3,N,12.0
NS12,23.0,61.0,37.0,25.0,83.0,83,1874.0,square4,f,0.195,3,N,12.0
NS12,24.0,61.0,39.0,26.0,85.0,85,1959.0,square4,f,0.027,3,N,12.0
NS12,25.0,63.0,30.0,29.0,77.0,77,2036.0,square4,f,0.114,3,N,12.0
NS12,26.0,58.0,39.0,29.0,83.0,83,2119.0,square4,f,0.286,3,N,12.0
NS12,27.0,60.0,34.0,32.0,85.0,85,2204.0,square4,f,0.211,3,N,12.0
NS12,28.0,63.0,32.0,35.0,77.0,77,2281.0,square4,f,0.063,3,N,12.0
NS12,29.0,61.0,35.0,23.0,79.0,79,2360.0,square4,f,0.148,3,N,12.0
NS12,30.0,57.0,27.0,30.0,69.0,69,2429.0,square4,f,0.031,3,N,12.0
NS12,31.0,64.0,29.0,26.0,69.0,69,2498.0,square4,f,0.071,3,N,12.0
NS12,32.0,65.0,29.0,33.0,69.0,69,2567.0,square4,f,0.096,3,N,12.0
NS12,33.0,68.0,29.0,33.0,73.0,73,2640.0,square4,f,0.019,3,N,12.0
NS12,34.0,69.0,29.0,29.0,67.0,67,2707.0,square4,f,0.612,3,N,12.0
NS12,35.0,66.0,32.0,30.0,61.0,61,2768.0,square4,f,0.111,3,N,12.0
NS12,36.0,64.0,27.0,26.0,58.0,58,2826.0,square4,f,0.12,3,N,12.0
NS12,37.0,65.0,32.0,27.0,67.0,67,2893.0,square4,f,0.0,3,N,12.0
NS12,38.0,63.0,32.0,30.0,64.0,64,2957.0,square4,f,0.1,3,N,12.0
NS12,39.0,65.0,30.0,30.0,70.0,70,3027.0,square4,f,0.001,3,N,12.0
NS12,40.0,71.0,37.0,32.0,69.0,69,3096.0,square4,f,0.133,3,N,12.0
NS12,41.0,66.0,45.0,37.0,69.0,69,3165.0,square4,f,0.045,3,N,12.0
NS12,42.0,75.0,42.0,35.0,65.0,65,3230.0,square4,f,0.027,3,N,12.0
NS12,43.0,82.0,39.0,35.0,57.0,57,3287.0,square4,f,0.551,3,N,12.0
NS12,44.0,81.0,34.0,34.0,61.0,61,3348.0,square4,f,0.183,3,N,12.0
NS12,45.0,74.0,33.0,36.0,59.0,59,3407.0,square4,f,0.06,3,N,12.0
NS12,46.0,77.0,32.0,40.0,57.0,57,3464.0,square4,f,0.046,3,N,12.0
NS12,47.0,79.0,32.0,39.0,60.0,60,3524.0,square4,f,0.098,3,N,12.0
NS12,48.0,80.0,28.0,34.0,62.0,62,3586.0,square4,f,0.148,3,N,12.0
NS12,49.0,76.0,23.0,37.0,64.0,64,3650.0,square4,f,0.169,3,N,12.0
NS12,50.0,75.0,25.0,37.0,65.0,65,3715.0,square4,f,0.014,3,N,12.0
NS12,51.0,74.0,25.0,39.0,70.0,70,3785.0,square4,f,0.127,3,N,12.0
NS12,52.0,79.0,26.0,40.0,73.0,73,3858.0,square4,f,0.332,3,N,12.0
NS12,53.0,75.0,25.0,33.0,69.0,69,3927.0,square4,f,0.079,3,N,12.0
NS12,54.0,79.0,25.0,38.0,68.0,68,3995.0,square4,f,0.027,3,N,12.0
NS12,55.0,81.0,22.0,34.0,68.0,68,4063.0,square4,f,0.046,3,N,12.0
NS12,56.0,72.0,29.0,39.0,69.0,69,4132.0,square4,f,0.153,3,N,12.0
NS12,57.0,72.0,28.0,38.0,73.0,73,4205.0,square4,f,0.131,3,N,12.0
NS12,58.0,69.0,25.0,32.0,71.0,71,4276.0,square4,f,0.028,3,N,12.0
NS12,59.0,75.0,30.0,33.0,69.0,69,4345.0,square4,f,0.001,3,N,12.0
NS12,60.0,68.0,28.0,39.0,68.0,68,4413.0,square4,f,0.034,3,N,12.0
NS12,61.0,69.0,32.0,37.0,60.0,60,4473.0,square4,f,0.064,3,N,12.0
NS12,62.0,63.0,37.0,39.0,55.0,55,4528.0,square4,f,0.184,3,N,12.0
NS12,63.0,63.0,38.0,43.0,54.0,54,4582.0,square4,f,0.128,3,N,12.0
NS12,64.0,60.0,30.0,35.0,55.0,55,4637.0,square4,f,0.163,3,N,12.0
NS12,65.0,60.0,37.0,34.0,55.0,55,4692.0,square4,f,0.229,3,N,12.0
NS12,66.0,61.0,40.0,35.0,51.0,51,4743.0,square4,f,0.212,3,N,12.0
NS12,67.0,65.0,37.0,35.0,53.0,53,4796.0,square4,f,0.114,3,N,12.0
NS12,68.0,62.0,33.0,38.0,50.0,50,4846.0,square4,f,0.094,3,N,12.0
NS12,69.0,56.0,41.0,29.0,54.0,54,4900.0,square4,f,0.113,3,N,12.0
NS12,70.0,56.0,39.0,30.0,57.0,57,4957.0,square4,f,0.199,3,N,12.0
NS12,71.0,61.0,40.0,33.0,64.0,64,5021.0,square4,f,0.362,3,N,12.0
NS12,72.0,51.0,42.0,35.0,67.0,67,5088.0,square4,f,0.119,3,N,12.0
NS12,73.0,56.0,39.0,39.0,67.0,67,5155.0,square4,f,0.064,3,N,12.0
NS12,74.0,50.0,38.0,40.0,63.0,63,5218.0,square4,f,0.129,3,N,12.0
NS12,75.0,52.0,37.0,41.0,67.0,67,5285.0,square4,f,0.072,3,N,12.0
NS12,76.0,47.0,40.0,46.0,67.0,67,5352.0,square4,f,0.0,3,N,12.0
NS12,77.0,45.0,35.0,47.0,67.0,67,5419.0,square4,f,0.234,3,N,12.0
NS12,78.0,44.0,38.0,52.0,66.0,66,5485.0,square4,f,0.121,3,N,12.0
NS12,79.0,41.0,38.0,52.0,64.0,64,5549.0,square4,f,0.153,3,N,12.0
NS12,80.0,36.0,41.0,57.0,58.0,58,5607.0,square4,f,0.148,3,N,12.0
NS12,81.0,36.0,42.0,66.0,63.0,63,5670.0,square4,f,0.069,3,N,12.0
NS12,82.0,35.0,44.0,65.0,62.0,62,5732.0,square4,f,0.132,3,N,12.0
NS12,83.0,37.0,42.0,70.0,65.0,65,5797.0,square4,f,0.145,3,N,12.0
NS12,84.0,35.0,39.0,72.0,58.0,58,5855.0,square4,f,0.148,3,N,12.0
NS12,85.0,30.0,40.0,62.0,55.0,55,5910.0,square4,f,0.194,3,N,12.0
NS12,86.0,36.0,40.0,65.0,59.0,59,5969.0,square4,f,0.046,3,N,12.0
NS12,87.0,31.0,41.0,67.0,57.0,57,6026.0,square4,f,0.046,3,N,12.0
NS12,88.0,30.0,50.0,67.0,52.0,52,6078.0,square4,f,0.165,3,N,12.0
NS12,89.0,28.0,41.0,69.0,54.0,54,6132.0,square4,f,0.062,3,N,12.0
NS12,90.0,29.0,41.0,61.0,57.0,57,6189.0,square4,f,0.08,3,N,12.0
NS12,91.0,30.0,36.0,59.0,54.0,54,6243.0,square4,f,0.027,3,N,12.0
NS12,92.0,28.0,29.0,60.0,54.0,54,6297.0,square4,f,0.05,3,N,12.0
NS12,93.0,30.0,35.0,62.0,52.0,52,6349.0,square4,f,0.065,3,N,12.0
NS12,94.0,30.0,36.0,60.0,56.0,56,6405.0,square4,f,0.054,3,N,12.0
NS12,95.0,29.0,33.0,63.0,60.0,60,6465.0,square4,f,0.001,3,N,12.0
NS12,96.0,29.0,30.0,59.0,59.0,59,6524.0,square4,f,0.066,3,N,12.0
NS12,97.0,31.0,35.0,61.0,61.0,61,6585.0,square4,f,0.097,3,N,12.0
NS12,98.0,31.0,40.0,67.0,58.0,58,6643.0,square4,f,0.062,3,N,12.0
NS12,99.0,33.0,37.0,65.0,67.0,67,6710.0,square4,f,0.01,3,N,12.0
