block,Trial,square1,square2,square3,square4,currPoints,totalPoints,square,choiceKey.keys,choiceKey.rt,armNum,blockType,blockNum
prac,0.0,100.0,0.0,0.0,0.0,0,0.0,square3,,,2,p,0.0
prac,1.0,100.0,0.0,0.0,0.0,100,100.0,square1,,,0,p,0.0
prac,2.0,100.0,0.0,0.0,0.0,0,100.0,square2,,,1,p,0.0
prac,3.0,100.0,0.0,0.0,0.0,0,100.0,square4,,,3,p,0.0
prac,4.0,100.0,0.0,0.0,0.0,100,200.0,square1,,,0,p,0.0
prac,5.0,100.0,0.0,0.0,0.0,100,300.0,square1,,,0,p,0.0
prac,6.0,100.0,0.0,0.0,0.0,100,400.0,square1,,,0,p,0.0
prac,7.0,100.0,0.0,0.0,0.0,100,500.0,square1,,,0,p,0.0
prac,8.0,100.0,0.0,0.0,0.0,100,600.0,square1,,,0,p,0.0
prac,9.0,100.0,0.0,0.0,0.0,100,700.0,square1,,,0,p,0.0
S2,0.0,62.0,57.0,71.0,74.0,62,62.0,square1,f,0.9622,0,S,2.0
S2,1.0,64.0,59.0,72.0,67.0,67,129.0,square4,i,0.2574,3,S,2.0
S2,2.0,68.0,57.0,75.0,68.0,75,204.0,square3,r,0.1424,2,S,2.0
S2,3.0,69.0,57.0,80.0,70.0,57,261.0,square2,j,0.5826,1,S,2.0
S2,4.0,66.0,60.0,74.0,68.0,74,335.0,square3,r,0.7371,2,S,2.0
S2,5.0,63.0,62.0,77.0,72.0,77,412.0,square3,r,0.2681,2,S,2.0
S2,6.0,69.0,61.0,75.0,74.0,74,486.0,square4,i,0.1658,3,S,2.0
S2,7.0,74.0,66.0,79.0,72.0,74,560.0,square1,f,0.2243,0,S,2.0
S2,8.0,81.0,65.0,76.0,72.0,72,632.0,square4,i,0.0986,3,S,2.0
S2,9.0,70.0,66.0,78.0,70.0,66,698.0,square2,j,0.8649,1,S,2.0
S2,10.0,70.0,72.0,70.0,74.0,70,768.0,square3,r,0.002,2,S,2.0
S2,11.0,64.0,66.0,72.0,67.0,64,832.0,square1,f,0.5493,0,S,2.0
S2,12.0,66.0,57.0,70.0,67.0,67,899.0,square4,i,0.2337,3,S,2.0
S2,13.0,68.0,68.0,71.0,73.0,73,972.0,square4,i,0.3676,3,S,2.0
S2,14.0,70.0,63.0,77.0,71.0,77,1049.0,square3,r,0.2144,2,S,2.0
S2,15.0,64.0,66.0,75.0,66.0,75,1124.0,square3,r,0.2486,2,S,2.0
S2,16.0,67.0,61.0,73.0,70.0,73,1197.0,square3,r,0.2668,2,S,2.0
S2,17.0,65.0,58.0,71.0,75.0,58,1255.0,square2,j,0.2821,1,S,2.0
S2,18.0,72.0,64.0,81.0,61.0,72,1327.0,square1,f,0.1969,0,S,2.0
S2,19.0,60.0,63.0,72.0,65.0,60,1387.0,square1,f,0.2634,0,S,2.0
S2,20.0,68.0,56.0,71.0,70.0,70,1457.0,square4,i,0.1644,3,S,2.0
S2,21.0,65.0,65.0,74.0,71.0,71,1528.0,square4,i,0.2469,3,S,2.0
S2,22.0,69.0,62.0,77.0,72.0,72,1600.0,square4,i,0.1482,3,S,2.0
S2,23.0,64.0,71.0,74.0,65.0,65,1665.0,square4,i,0.2309,3,S,2.0
S2,24.0,66.0,62.0,78.0,70.0,78,1743.0,square3,r,0.2309,2,S,2.0
S2,25.0,67.0,69.0,76.0,66.0,76,1819.0,square3,r,0.1547,2,S,2.0
S2,26.0,65.0,63.0,74.0,69.0,74,1893.0,square3,r,0.2131,2,S,2.0
S2,27.0,68.0,64.0,67.0,68.0,67,1960.0,square3,r,0.1113,2,S,2.0
S2,28.0,61.0,52.0,71.0,68.0,52,2012.0,square2,j,0.0786,1,S,2.0
S2,29.0,67.0,64.0,73.0,69.0,67,2079.0,square1,f,0.2799,0,S,2.0
S2,30.0,67.0,53.0,77.0,67.0,77,2156.0,square3,r,0.0488,2,S,2.0
S2,31.0,67.0,69.0,69.0,68.0,69,2225.0,square3,r,0.0309,2,S,2.0
S2,32.0,71.0,63.0,73.0,70.0,70,2295.0,square4,i,0.1975,3,S,2.0
S2,33.0,61.0,65.0,68.0,71.0,71,2366.0,square4,i,0.1632,3,S,2.0
S2,34.0,66.0,55.0,78.0,68.0,68,2434.0,square4,i,0.0628,3,S,2.0
S2,35.0,60.0,57.0,66.0,66.0,66,2500.0,square3,r,0.2356,2,S,2.0
S2,36.0,64.0,63.0,73.0,72.0,63,2563.0,square2,j,0.347,1,S,2.0
S2,37.0,65.0,62.0,75.0,68.0,65,2628.0,square1,f,0.2459,0,S,2.0
S2,38.0,69.0,57.0,71.0,62.0,69,2697.0,square1,f,0.2313,0,S,2.0
S2,39.0,72.0,66.0,74.0,74.0,72,2769.0,square1,f,0.2782,0,S,2.0
S2,40.0,66.0,63.0,76.0,59.0,66,2835.0,square1,f,0.2185,0,S,2.0
S2,41.0,74.0,64.0,67.0,76.0,74,2909.0,square1,f,0.1984,0,S,2.0
S2,42.0,62.0,67.0,72.0,68.0,68,2977.0,square4,i,0.1161,3,S,2.0
S2,43.0,69.0,63.0,75.0,71.0,71,3048.0,square4,i,0.3957,3,S,2.0
S2,44.0,72.0,60.0,74.0,67.0,74,3122.0,square3,r,0.2296,2,S,2.0
S2,45.0,69.0,63.0,76.0,73.0,63,3185.0,square2,j,0.0019,1,S,2.0
S2,46.0,64.0,71.0,75.0,72.0,71,3256.0,square2,j,0.2118,1,S,2.0
S2,47.0,75.0,62.0,75.0,69.0,62,3318.0,square2,j,0.1135,1,S,2.0
S2,48.0,66.0,65.0,74.0,68.0,65,3383.0,square2,j,0.2348,1,S,2.0
S2,49.0,67.0,64.0,72.0,76.0,72,3455.0,square3,r,0.1293,2,S,2.0
S11,0.0,49.0,53.0,49.0,45.0,45,45.0,square4,j,1.3348,3,S,11.0
S11,1.0,54.0,56.0,42.0,50.0,50,95.0,square4,j,0.0029,3,S,11.0
S11,2.0,39.0,51.0,39.0,43.0,43,138.0,square4,j,0.4295,3,S,11.0
S11,3.0,53.0,50.0,38.0,43.0,50,188.0,square2,r,0.052,1,S,11.0
S11,4.0,47.0,54.0,39.0,48.0,47,235.0,square1,i,0.026,0,S,11.0
S11,5.0,47.0,52.0,40.0,46.0,40,275.0,square3,f,0.1038,2,S,11.0
S11,6.0,47.0,46.0,44.0,54.0,44,319.0,square3,f,0.2797,2,S,11.0
S11,7.0,48.0,51.0,35.0,51.0,51,370.0,square2,r,0.2517,1,S,11.0
S11,8.0,52.0,49.0,36.0,43.0,49,419.0,square2,r,0.1181,1,S,11.0
S11,9.0,47.0,53.0,41.0,55.0,53,472.0,square2,r,0.3009,1,S,11.0
S11,10.0,44.0,48.0,41.0,43.0,48,520.0,square2,r,0.2539,1,S,11.0
S11,11.0,41.0,54.0,38.0,43.0,41,561.0,square1,i,0.1708,0,S,11.0
S11,12.0,45.0,54.0,44.0,45.0,45,606.0,square1,i,0.0248,0,S,11.0
S11,13.0,54.0,52.0,44.0,50.0,54,660.0,square1,i,0.0347,0,S,11.0
S11,14.0,57.0,58.0,36.0,45.0,57,717.0,square1,i,0.1646,0,S,11.0
S11,15.0,48.0,54.0,43.0,49.0,48,765.0,square1,i,0.3631,0,S,11.0
S11,16.0,58.0,47.0,42.0,46.0,46,811.0,square4,j,0.2693,3,S,11.0
S11,17.0,41.0,61.0,42.0,53.0,53,864.0,square4,j,0.268,3,S,11.0
S11,18.0,51.0,58.0,33.0,39.0,58,922.0,square2,r,0.5893,1,S,11.0
S11,19.0,48.0,49.0,37.0,42.0,49,971.0,square2,r,0.5861,1,S,11.0
S11,20.0,52.0,52.0,45.0,46.0,52,1023.0,square2,r,1.1014,1,S,11.0
S11,21.0,47.0,53.0,44.0,51.0,51,1074.0,square4,j,0.7475,3,S,11.0
S11,22.0,49.0,54.0,37.0,41.0,54,1128.0,square2,r,0.5522,1,S,11.0
S11,23.0,52.0,54.0,41.0,45.0,41,1169.0,square3,f,0.7685,2,S,11.0
S11,24.0,42.0,56.0,41.0,45.0,56,1225.0,square2,r,0.3712,1,S,11.0
S11,25.0,52.0,56.0,42.0,44.0,52,1277.0,square1,i,0.0593,0,S,11.0
S11,26.0,43.0,56.0,41.0,45.0,43,1320.0,square1,i,0.2938,0,S,11.0
S11,27.0,48.0,50.0,40.0,43.0,50,1370.0,square2,r,0.167,1,S,11.0
S11,28.0,46.0,49.0,38.0,48.0,38,1408.0,square3,f,0.0682,2,S,11.0
S11,29.0,46.0,55.0,40.0,42.0,55,1463.0,square2,r,0.3032,1,S,11.0
S11,30.0,46.0,56.0,43.0,37.0,56,1519.0,square2,r,0.1369,1,S,11.0
S11,31.0,42.0,49.0,44.0,42.0,49,1568.0,square2,r,0.1516,1,S,11.0
S11,32.0,51.0,52.0,36.0,40.0,52,1620.0,square2,r,0.4721,1,S,11.0
S11,33.0,44.0,53.0,39.0,43.0,44,1664.0,square1,i,0.3342,0,S,11.0
S11,34.0,52.0,52.0,43.0,49.0,49,1713.0,square4,j,0.2493,3,S,11.0
S11,35.0,53.0,51.0,38.0,45.0,45,1758.0,square4,j,0.0862,3,S,11.0
S11,36.0,50.0,44.0,42.0,48.0,44,1802.0,square2,r,0.1698,1,S,11.0
S11,37.0,49.0,51.0,40.0,48.0,51,1853.0,square2,r,0.0827,1,S,11.0
S11,38.0,47.0,47.0,39.0,38.0,47,1900.0,square2,r,0.053,1,S,11.0
S11,39.0,51.0,55.0,40.0,42.0,55,1955.0,square2,r,0.1182,1,S,11.0
S11,40.0,50.0,52.0,41.0,44.0,41,1996.0,square3,f,0.027,2,S,11.0
S11,41.0,47.0,50.0,46.0,50.0,46,2042.0,square3,f,0.1864,2,S,11.0
S11,42.0,52.0,48.0,41.0,47.0,41,2083.0,square3,f,0.3181,2,S,11.0
S11,43.0,50.0,56.0,34.0,42.0,42,2125.0,square4,j,0.0027,3,S,11.0
S11,44.0,42.0,48.0,37.0,49.0,49,2174.0,square4,j,0.17,3,S,11.0
S11,45.0,47.0,47.0,41.0,40.0,47,2221.0,square2,r,0.1849,1,S,11.0
S11,46.0,50.0,56.0,40.0,44.0,56,2277.0,square2,r,0.1375,1,S,11.0
S11,47.0,46.0,48.0,38.0,47.0,48,2325.0,square2,r,0.0891,1,S,11.0
S11,48.0,45.0,54.0,44.0,41.0,54,2379.0,square2,r,0.1514,1,S,11.0
S11,49.0,44.0,53.0,41.0,41.0,53,2432.0,square2,r,0.0843,1,S,11.0
S1,0.0,72.0,58.0,70.0,66.0,70,70.0,square3,j,1.4729,2,S,1.0
S1,1.0,75.0,64.0,66.0,69.0,66,136.0,square3,j,0.27,2,S,1.0
S1,2.0,75.0,62.0,62.0,79.0,62,198.0,square2,i,0.2963,1,S,1.0
S1,3.0,68.0,62.0,63.0,69.0,62,260.0,square2,i,0.0987,1,S,1.0
S1,4.0,82.0,63.0,64.0,73.0,73,333.0,square4,r,0.3511,3,S,1.0
S1,5.0,66.0,70.0,65.0,73.0,73,406.0,square4,r,0.0492,3,S,1.0
S1,6.0,73.0,65.0,62.0,65.0,65,471.0,square4,r,0.1497,3,S,1.0
S1,7.0,70.0,61.0,65.0,66.0,66,537.0,square4,r,0.0085,3,S,1.0
S1,8.0,78.0,63.0,67.0,68.0,68,605.0,square4,r,0.0459,3,S,1.0
S1,9.0,74.0,67.0,66.0,68.0,68,673.0,square4,r,0.0487,3,S,1.0
S1,10.0,73.0,59.0,68.0,68.0,73,746.0,square1,f,0.0577,0,S,1.0
S1,11.0,76.0,65.0,62.0,81.0,76,822.0,square1,f,0.5336,0,S,1.0
S1,12.0,77.0,66.0,69.0,63.0,77,899.0,square1,f,0.0674,0,S,1.0
S1,13.0,75.0,63.0,68.0,73.0,75,974.0,square1,f,0.1191,0,S,1.0
S1,14.0,67.0,60.0,67.0,69.0,67,1041.0,square1,f,0.0162,0,S,1.0
S1,15.0,70.0,63.0,69.0,73.0,70,1111.0,square1,f,0.0679,0,S,1.0
S1,16.0,69.0,61.0,69.0,69.0,69,1180.0,square1,f,0.1212,0,S,1.0
S1,17.0,73.0,68.0,67.0,73.0,73,1253.0,square1,f,0.0191,0,S,1.0
S1,18.0,70.0,58.0,73.0,66.0,70,1323.0,square1,f,0.0158,0,S,1.0
S1,19.0,75.0,58.0,62.0,68.0,75,1398.0,square1,f,0.1657,0,S,1.0
S1,20.0,76.0,58.0,72.0,67.0,76,1474.0,square1,f,0.1183,0,S,1.0
S1,21.0,69.0,66.0,66.0,67.0,69,1543.0,square1,f,0.1522,0,S,1.0
S1,22.0,70.0,68.0,65.0,65.0,70,1613.0,square1,f,0.1344,0,S,1.0
S1,23.0,71.0,60.0,64.0,64.0,71,1684.0,square1,f,0.1355,0,S,1.0
S1,24.0,70.0,72.0,62.0,67.0,70,1754.0,square1,f,0.105,0,S,1.0
S1,25.0,68.0,60.0,70.0,65.0,68,1822.0,square1,f,0.0031,0,S,1.0
S1,26.0,76.0,64.0,72.0,69.0,76,1898.0,square1,f,0.1511,0,S,1.0
S1,27.0,71.0,56.0,70.0,65.0,71,1969.0,square1,f,0.167,0,S,1.0
S1,28.0,67.0,67.0,71.0,76.0,67,2036.0,square1,f,0.0091,0,S,1.0
S1,29.0,78.0,64.0,64.0,74.0,78,2114.0,square1,f,0.1357,0,S,1.0
S1,30.0,74.0,63.0,65.0,71.0,74,2188.0,square1,f,0.0024,0,S,1.0
S1,31.0,78.0,58.0,69.0,69.0,78,2266.0,square1,f,0.0208,0,S,1.0
S1,32.0,71.0,67.0,68.0,60.0,71,2337.0,square1,f,0.0153,0,S,1.0
S1,33.0,68.0,63.0,65.0,73.0,68,2405.0,square1,f,0.1854,0,S,1.0
S1,34.0,71.0,62.0,74.0,73.0,71,2476.0,square1,f,0.0192,0,S,1.0
S1,35.0,75.0,59.0,67.0,77.0,59,2535.0,square2,i,0.2192,1,S,1.0
S1,36.0,77.0,60.0,66.0,67.0,77,2612.0,square1,f,0.1656,0,S,1.0
S1,37.0,69.0,60.0,69.0,75.0,69,2681.0,square1,f,0.1907,0,S,1.0
S1,38.0,77.0,64.0,62.0,70.0,77,2758.0,square1,f,0.0533,0,S,1.0
S1,39.0,72.0,66.0,69.0,65.0,72,2830.0,square1,f,0.0026,0,S,1.0
S1,40.0,69.0,63.0,66.0,69.0,69,2899.0,square1,f,0.1977,0,S,1.0
S1,41.0,72.0,62.0,70.0,70.0,72,2971.0,square1,f,0.0146,0,S,1.0
S1,42.0,78.0,60.0,63.0,62.0,78,3049.0,square1,f,0.0024,0,S,1.0
S1,43.0,71.0,62.0,67.0,73.0,71,3120.0,square1,f,0.0692,0,S,1.0
S1,44.0,75.0,63.0,69.0,73.0,75,3195.0,square1,f,0.0787,0,S,1.0
S1,45.0,66.0,60.0,68.0,73.0,66,3261.0,square1,f,0.0351,0,S,1.0
S1,46.0,74.0,67.0,69.0,71.0,74,3335.0,square1,f,0.1097,0,S,1.0
S1,47.0,71.0,66.0,68.0,70.0,71,3406.0,square1,f,0.1531,0,S,1.0
S1,48.0,72.0,75.0,71.0,77.0,72,3478.0,square1,f,0.0162,0,S,1.0
S1,49.0,65.0,57.0,66.0,75.0,65,3543.0,square1,f,0.0019,0,S,1.0
S10,0.0,72.0,76.0,80.0,64.0,64,64.0,square4,i,1.5139,3,S,10.0
S10,1.0,76.0,75.0,74.0,65.0,76,140.0,square1,j,0.2952,0,S,10.0
S10,2.0,70.0,72.0,79.0,74.0,72,212.0,square2,f,0.1778,1,S,10.0
S10,3.0,69.0,77.0,76.0,68.0,76,288.0,square3,r,0.1727,2,S,10.0
S10,4.0,72.0,79.0,77.0,70.0,79,367.0,square2,f,0.1831,1,S,10.0
S10,5.0,68.0,74.0,72.0,64.0,74,441.0,square2,f,0.1173,1,S,10.0
S10,6.0,70.0,77.0,72.0,62.0,77,518.0,square2,f,0.3165,1,S,10.0
S10,7.0,78.0,81.0,80.0,74.0,80,598.0,square3,r,0.1852,2,S,10.0
S10,8.0,78.0,78.0,82.0,66.0,82,680.0,square3,r,0.0027,2,S,10.0
S10,9.0,69.0,76.0,77.0,65.0,77,757.0,square3,r,0.1145,2,S,10.0
S10,10.0,72.0,78.0,72.0,75.0,72,829.0,square3,r,0.8356,2,S,10.0
S10,11.0,71.0,76.0,78.0,66.0,78,907.0,square3,r,0.1529,2,S,10.0
S10,12.0,73.0,83.0,79.0,69.0,83,990.0,square2,f,0.085,1,S,10.0
S10,13.0,68.0,77.0,65.0,65.0,77,1067.0,square2,f,0.0825,1,S,10.0
S10,14.0,69.0,84.0,79.0,65.0,84,1151.0,square2,f,0.2489,1,S,10.0
S10,15.0,72.0,84.0,70.0,71.0,84,1235.0,square2,f,0.1819,1,S,10.0
S10,16.0,79.0,80.0,82.0,67.0,80,1315.0,square2,f,0.2498,1,S,10.0
S10,17.0,69.0,83.0,75.0,70.0,83,1398.0,square2,f,0.0653,1,S,10.0
S10,18.0,69.0,75.0,69.0,68.0,68,1466.0,square4,i,0.0248,3,S,10.0
S10,19.0,70.0,83.0,73.0,66.0,70,1536.0,square1,j,0.0903,0,S,10.0
S10,20.0,69.0,83.0,75.0,66.0,83,1619.0,square2,f,0.1361,1,S,10.0
S10,21.0,77.0,70.0,75.0,70.0,70,1689.0,square2,f,0.2075,1,S,10.0
S10,22.0,73.0,77.0,81.0,69.0,77,1766.0,square2,f,0.0024,1,S,10.0
S10,23.0,73.0,78.0,70.0,65.0,78,1844.0,square2,f,0.0028,1,S,10.0
S10,24.0,70.0,80.0,75.0,66.0,75,1919.0,square3,r,0.2026,2,S,10.0
S10,25.0,70.0,80.0,73.0,72.0,73,1992.0,square3,r,0.0239,2,S,10.0
S10,26.0,73.0,75.0,73.0,75.0,73,2065.0,square3,r,0.5482,2,S,10.0
S10,27.0,77.0,81.0,83.0,66.0,81,2146.0,square2,f,0.1838,1,S,10.0
S10,28.0,73.0,79.0,79.0,73.0,79,2225.0,square2,f,0.1343,1,S,10.0
S10,29.0,73.0,79.0,72.0,69.0,79,2304.0,square2,f,0.0418,1,S,10.0
S10,30.0,71.0,85.0,79.0,69.0,85,2389.0,square2,f,0.0844,1,S,10.0
S10,31.0,71.0,85.0,83.0,66.0,85,2474.0,square2,f,0.0669,1,S,10.0
S10,32.0,78.0,79.0,77.0,65.0,79,2553.0,square2,f,0.0859,1,S,10.0
S10,33.0,83.0,79.0,72.0,68.0,79,2632.0,square2,f,0.0636,1,S,10.0
S10,34.0,68.0,74.0,79.0,72.0,74,2706.0,square2,f,0.0663,1,S,10.0
S10,35.0,70.0,83.0,79.0,67.0,83,2789.0,square2,f,0.0595,1,S,10.0
S10,36.0,67.0,76.0,75.0,72.0,75,2864.0,square3,r,0.1868,2,S,10.0
S10,37.0,76.0,82.0,79.0,60.0,82,2946.0,square2,f,0.1494,1,S,10.0
S10,38.0,72.0,75.0,69.0,68.0,75,3021.0,square2,f,0.1296,1,S,10.0
S10,39.0,73.0,78.0,76.0,70.0,78,3099.0,square2,f,0.1318,1,S,10.0
S10,40.0,76.0,77.0,66.0,60.0,77,3176.0,square2,f,0.1226,1,S,10.0
S10,41.0,74.0,83.0,73.0,67.0,67,3243.0,square4,i,0.0348,3,S,10.0
S10,42.0,72.0,69.0,80.0,63.0,69,3312.0,square2,f,0.0014,1,S,10.0
S10,43.0,69.0,74.0,72.0,68.0,69,3381.0,square1,j,0.2507,0,S,10.0
S10,44.0,67.0,76.0,70.0,65.0,70,3451.0,square3,r,0.1067,2,S,10.0
S10,45.0,76.0,81.0,74.0,72.0,74,3525.0,square3,r,0.1999,2,S,10.0
S10,46.0,76.0,79.0,76.0,66.0,79,3604.0,square2,f,0.2159,1,S,10.0
S10,47.0,67.0,81.0,84.0,60.0,81,3685.0,square2,f,0.1832,1,S,10.0
S10,48.0,73.0,83.0,75.0,66.0,83,3768.0,square2,f,0.0475,1,S,10.0
S10,49.0,66.0,77.0,74.0,71.0,77,3845.0,square2,f,0.1649,1,S,10.0
S9,0.0,36.0,36.0,32.0,32.0,36,36.0,square1,i,0.7201,0,S,9.0
S9,1.0,40.0,29.0,36.0,24.0,40,76.0,square1,i,0.0677,0,S,9.0
S9,2.0,31.0,43.0,22.0,29.0,22,98.0,square3,f,0.0873,2,S,9.0
S9,3.0,41.0,33.0,28.0,27.0,28,126.0,square3,f,0.2459,2,S,9.0
S9,4.0,34.0,29.0,32.0,31.0,31,157.0,square4,r,0.2493,3,S,9.0
S9,5.0,41.0,32.0,22.0,29.0,29,186.0,square4,r,0.2798,3,S,9.0
S9,6.0,44.0,30.0,21.0,28.0,30,216.0,square2,j,0.1304,1,S,9.0
S9,7.0,39.0,37.0,26.0,24.0,37,253.0,square2,j,0.0009,1,S,9.0
S9,8.0,41.0,33.0,23.0,20.0,41,294.0,square1,i,0.275,0,S,9.0
S9,9.0,30.0,35.0,24.0,27.0,30,324.0,square1,i,0.1675,0,S,9.0
S9,10.0,41.0,29.0,23.0,28.0,41,365.0,square1,i,0.1352,0,S,9.0
S9,11.0,37.0,38.0,22.0,33.0,37,402.0,square1,i,0.1646,0,S,9.0
S9,12.0,35.0,31.0,27.0,32.0,35,437.0,square1,i,0.1503,0,S,9.0
S9,13.0,38.0,37.0,30.0,29.0,38,475.0,square1,i,0.1833,0,S,9.0
S9,14.0,36.0,38.0,30.0,37.0,38,513.0,square2,j,0.1133,1,S,9.0
S9,15.0,40.0,29.0,27.0,24.0,29,542.0,square2,j,0.0582,1,S,9.0
S9,16.0,33.0,37.0,29.0,28.0,29,571.0,square3,f,0.543,2,S,9.0
S9,17.0,41.0,32.0,36.0,31.0,36,607.0,square3,f,0.244,2,S,9.0
S9,18.0,39.0,26.0,16.0,35.0,35,642.0,square4,r,0.0698,3,S,9.0
S9,19.0,35.0,30.0,23.0,27.0,27,669.0,square4,r,0.1958,3,S,9.0
S9,20.0,39.0,34.0,23.0,29.0,39,708.0,square1,i,0.1812,0,S,9.0
S9,21.0,35.0,37.0,28.0,31.0,35,743.0,square1,i,0.1813,0,S,9.0
S9,22.0,37.0,30.0,23.0,38.0,37,780.0,square1,i,0.1686,0,S,9.0
S9,23.0,37.0,34.0,27.0,34.0,37,817.0,square1,i,0.0668,0,S,9.0
S9,24.0,31.0,34.0,26.0,27.0,31,848.0,square1,i,0.2177,0,S,9.0
S9,25.0,38.0,40.0,29.0,24.0,38,886.0,square1,i,0.1976,0,S,9.0
S9,26.0,43.0,31.0,21.0,24.0,43,929.0,square1,i,0.1964,0,S,9.0
S9,27.0,30.0,31.0,23.0,28.0,30,959.0,square1,i,0.1954,0,S,9.0
S9,28.0,44.0,32.0,31.0,32.0,44,1003.0,square1,i,0.1644,0,S,9.0
S9,29.0,36.0,38.0,22.0,22.0,36,1039.0,square1,i,0.0021,0,S,9.0
S9,30.0,41.0,30.0,26.0,29.0,41,1080.0,square1,i,0.2474,0,S,9.0
S9,31.0,39.0,37.0,30.0,32.0,39,1119.0,square1,i,0.0161,0,S,9.0
S9,32.0,35.0,39.0,28.0,31.0,35,1154.0,square1,i,0.1488,0,S,9.0
S9,33.0,37.0,39.0,29.0,32.0,37,1191.0,square1,i,0.1582,0,S,9.0
S9,34.0,46.0,33.0,21.0,25.0,46,1237.0,square1,i,0.0022,0,S,9.0
S9,35.0,38.0,33.0,28.0,28.0,38,1275.0,square1,i,0.3361,0,S,9.0
S9,36.0,40.0,37.0,21.0,32.0,40,1315.0,square1,i,0.0302,0,S,9.0
S9,37.0,38.0,43.0,23.0,37.0,38,1353.0,square1,i,0.0142,0,S,9.0
S9,38.0,36.0,31.0,29.0,29.0,36,1389.0,square1,i,0.0378,0,S,9.0
S9,39.0,41.0,29.0,26.0,28.0,41,1430.0,square1,i,0.19,0,S,9.0
S9,40.0,32.0,36.0,26.0,28.0,32,1462.0,square1,i,0.0027,0,S,9.0
S9,41.0,40.0,37.0,35.0,28.0,40,1502.0,square1,i,0.0206,0,S,9.0
S9,42.0,43.0,32.0,26.0,37.0,26,1528.0,square3,f,0.1968,2,S,9.0
S9,43.0,40.0,31.0,23.0,31.0,31,1559.0,square4,r,0.1467,3,S,9.0
S9,44.0,42.0,38.0,24.0,40.0,38,1597.0,square2,j,0.0024,1,S,9.0
S9,45.0,36.0,35.0,30.0,33.0,36,1633.0,square1,i,0.2495,0,S,9.0
S9,46.0,38.0,30.0,33.0,26.0,38,1671.0,square1,i,0.6794,0,S,9.0
S9,47.0,39.0,37.0,25.0,26.0,37,1708.0,square2,j,0.163,1,S,9.0
S9,48.0,36.0,35.0,26.0,27.0,35,1743.0,square2,j,0.1299,1,S,9.0
S9,49.0,40.0,32.0,24.0,28.0,32,1775.0,square2,j,0.1641,1,S,9.0
S8,0.0,58.0,60.0,52.0,45.0,52,52.0,square3,j,1.2176,2,S,8.0
S8,1.0,55.0,57.0,56.0,52.0,56,108.0,square3,j,0.1159,2,S,8.0
S8,2.0,54.0,58.0,58.0,49.0,49,157.0,square4,f,0.1352,3,S,8.0
S8,3.0,55.0,62.0,52.0,53.0,53,210.0,square4,f,0.4833,3,S,8.0
S8,4.0,55.0,60.0,49.0,51.0,55,265.0,square1,r,0.217,0,S,8.0
S8,5.0,48.0,63.0,61.0,49.0,48,313.0,square1,r,0.2745,0,S,8.0
S8,6.0,58.0,63.0,59.0,55.0,63,376.0,square2,i,0.0647,1,S,8.0
S8,7.0,56.0,53.0,49.0,51.0,53,429.0,square2,i,0.2792,1,S,8.0
S8,8.0,61.0,63.0,66.0,49.0,66,495.0,square3,j,0.2669,2,S,8.0
S8,9.0,60.0,59.0,53.0,47.0,59,554.0,square2,i,0.2694,1,S,8.0
S8,10.0,55.0,63.0,52.0,55.0,52,606.0,square3,j,0.1353,2,S,8.0
S8,11.0,62.0,60.0,54.0,50.0,54,660.0,square3,j,0.3649,2,S,8.0
S8,12.0,58.0,64.0,51.0,52.0,52,712.0,square4,f,0.0837,3,S,8.0
S8,13.0,62.0,59.0,53.0,53.0,53,765.0,square3,j,0.0849,2,S,8.0
S8,14.0,51.0,62.0,61.0,54.0,62,827.0,square2,i,0.0155,1,S,8.0
S8,15.0,56.0,68.0,56.0,50.0,68,895.0,square2,i,0.1041,1,S,8.0
S8,16.0,58.0,64.0,56.0,50.0,64,959.0,square2,i,0.0627,1,S,8.0
S8,17.0,64.0,63.0,60.0,42.0,63,1022.0,square2,i,0.1995,1,S,8.0
S8,18.0,54.0,64.0,57.0,55.0,64,1086.0,square2,i,0.015,1,S,8.0
S8,19.0,56.0,53.0,57.0,53.0,53,1139.0,square2,i,0.1496,1,S,8.0
S8,20.0,59.0,64.0,56.0,49.0,59,1198.0,square1,r,0.1075,0,S,8.0
S8,21.0,54.0,59.0,55.0,48.0,54,1252.0,square1,r,0.04,0,S,8.0
S8,22.0,63.0,63.0,59.0,49.0,59,1311.0,square3,j,0.2013,2,S,8.0
S8,23.0,59.0,60.0,48.0,52.0,52,1363.0,square4,f,0.9034,3,S,8.0
S8,24.0,55.0,53.0,60.0,50.0,50,1413.0,square4,f,0.1489,3,S,8.0
S8,25.0,57.0,60.0,55.0,54.0,60,1473.0,square2,i,0.1929,1,S,8.0
S8,26.0,62.0,66.0,57.0,58.0,66,1539.0,square2,i,0.546,1,S,8.0
S8,27.0,58.0,55.0,52.0,48.0,55,1594.0,square2,i,0.1804,1,S,8.0
S8,28.0,53.0,59.0,53.0,55.0,59,1653.0,square2,i,0.0025,1,S,8.0
S8,29.0,60.0,58.0,57.0,53.0,58,1711.0,square2,i,0.0082,1,S,8.0
S8,30.0,57.0,67.0,52.0,56.0,52,1763.0,square3,j,0.0802,2,S,8.0
S8,31.0,60.0,58.0,52.0,50.0,52,1815.0,square3,j,0.132,2,S,8.0
S8,32.0,54.0,61.0,56.0,57.0,57,1872.0,square4,f,0.1675,3,S,8.0
S8,33.0,66.0,64.0,63.0,52.0,64,1936.0,square2,i,0.0172,1,S,8.0
S8,34.0,54.0,65.0,66.0,56.0,65,2001.0,square2,i,0.1686,1,S,8.0
S8,35.0,54.0,62.0,61.0,48.0,62,2063.0,square2,i,0.0026,1,S,8.0
S8,36.0,53.0,63.0,54.0,55.0,63,2126.0,square2,i,0.002,1,S,8.0
S8,37.0,64.0,58.0,57.0,51.0,58,2184.0,square2,i,0.1638,1,S,8.0
S8,38.0,68.0,65.0,59.0,57.0,65,2249.0,square2,i,0.016,1,S,8.0
S8,39.0,64.0,65.0,51.0,55.0,65,2314.0,square2,i,0.043,1,S,8.0
S8,40.0,63.0,61.0,57.0,47.0,61,2375.0,square2,i,0.0022,1,S,8.0
S8,41.0,65.0,58.0,55.0,49.0,58,2433.0,square2,i,0.1659,1,S,8.0
S8,42.0,52.0,60.0,51.0,56.0,60,2493.0,square2,i,0.0172,1,S,8.0
S8,43.0,63.0,57.0,48.0,50.0,57,2550.0,square2,i,0.115,1,S,8.0
S8,44.0,59.0,63.0,53.0,53.0,63,2613.0,square2,i,0.0022,1,S,8.0
S8,45.0,62.0,62.0,60.0,53.0,62,2675.0,square2,i,0.0295,1,S,8.0
S8,46.0,56.0,62.0,57.0,60.0,62,2737.0,square2,i,0.1668,1,S,8.0
S8,47.0,60.0,63.0,58.0,56.0,63,2800.0,square2,i,0.1303,1,S,8.0
S8,48.0,59.0,63.0,49.0,53.0,63,2863.0,square2,i,0.0274,1,S,8.0
S8,49.0,67.0,67.0,59.0,55.0,67,2930.0,square2,i,0.0684,1,S,8.0
V3,0.0,62.0,45.0,70.0,53.0,45,45.0,square2,r,1.2592,1,V,3.0
V3,1.0,63.0,47.0,76.0,60.0,63,108.0,square1,j,0.2122,0,V,3.0
V3,2.0,65.0,54.0,73.0,57.0,57,165.0,square4,i,0.1022,3,V,3.0
V3,3.0,68.0,51.0,71.0,51.0,71,236.0,square3,f,0.1812,2,V,3.0
V3,4.0,61.0,49.0,75.0,53.0,75,311.0,square3,f,0.2463,2,V,3.0
V3,5.0,65.0,47.0,74.0,50.0,74,385.0,square3,f,0.2132,2,V,3.0
V3,6.0,61.0,51.0,72.0,57.0,72,457.0,square3,f,0.1801,2,V,3.0
V3,7.0,67.0,49.0,75.0,55.0,49,506.0,square2,r,0.0022,1,V,3.0
V3,8.0,64.0,48.0,76.0,56.0,56,562.0,square4,i,0.3423,3,V,3.0
V3,9.0,67.0,49.0,71.0,56.0,67,629.0,square1,j,0.2329,0,V,3.0
V3,10.0,65.0,50.0,71.0,56.0,71,700.0,square3,f,0.0657,2,V,3.0
V3,11.0,63.0,43.0,78.0,58.0,78,778.0,square3,f,0.0939,2,V,3.0
V3,12.0,66.0,53.0,73.0,54.0,73,851.0,square3,f,0.0869,2,V,3.0
V3,13.0,64.0,46.0,78.0,51.0,78,929.0,square3,f,0.1155,2,V,3.0
V3,14.0,67.0,51.0,71.0,58.0,71,1000.0,square3,f,0.1806,2,V,3.0
V3,15.0,61.0,50.0,73.0,54.0,73,1073.0,square3,f,0.1632,2,V,3.0
V3,16.0,64.0,52.0,74.0,54.0,74,1147.0,square3,f,0.0025,2,V,3.0
V3,17.0,61.0,48.0,74.0,55.0,74,1221.0,square3,f,0.0476,2,V,3.0
V3,18.0,65.0,50.0,70.0,59.0,70,1291.0,square3,f,0.2175,2,V,3.0
V3,19.0,64.0,52.0,76.0,56.0,76,1367.0,square3,f,0.1518,2,V,3.0
V3,20.0,64.0,50.0,69.0,58.0,69,1436.0,square3,f,0.1509,2,V,3.0
V3,21.0,66.0,50.0,72.0,56.0,72,1508.0,square3,f,0.1515,2,V,3.0
V3,22.0,43.0,48.0,40.0,62.0,40,1548.0,square3,f,0.1668,2,V,3.0
V3,23.0,41.0,51.0,35.0,59.0,41,1589.0,square1,j,0.2865,0,V,3.0
V3,24.0,51.0,51.0,37.0,60.0,60,1649.0,square4,i,0.0499,3,V,3.0
V3,25.0,45.0,53.0,36.0,57.0,57,1706.0,square4,i,0.3022,3,V,3.0
V3,26.0,44.0,51.0,38.0,59.0,51,1757.0,square2,r,0.6796,1,V,3.0
V3,27.0,43.0,51.0,34.0,66.0,34,1791.0,square3,f,0.2014,2,V,3.0
V3,28.0,47.0,51.0,40.0,67.0,40,1831.0,square3,f,0.2922,2,V,3.0
V3,29.0,42.0,55.0,35.0,65.0,55,1886.0,square2,r,0.0236,1,V,3.0
V3,30.0,49.0,54.0,36.0,62.0,54,1940.0,square2,r,0.2122,1,V,3.0
V3,31.0,50.0,53.0,42.0,66.0,66,2006.0,square4,i,0.2179,3,V,3.0
V3,32.0,47.0,53.0,34.0,58.0,58,2064.0,square4,i,0.1515,3,V,3.0
V3,33.0,45.0,56.0,34.0,62.0,62,2126.0,square4,i,0.1755,3,V,3.0
V3,34.0,48.0,54.0,38.0,64.0,64,2190.0,square4,i,0.0318,3,V,3.0
V3,35.0,39.0,55.0,42.0,65.0,65,2255.0,square4,i,0.1518,3,V,3.0
V3,36.0,46.0,57.0,41.0,63.0,63,2318.0,square4,i,0.0677,3,V,3.0
V3,37.0,43.0,54.0,41.0,65.0,65,2383.0,square4,i,0.1986,3,V,3.0
V3,38.0,47.0,52.0,37.0,63.0,63,2446.0,square4,i,0.1521,3,V,3.0
V3,39.0,47.0,53.0,38.0,55.0,55,2501.0,square4,i,0.0024,3,V,3.0
V3,40.0,41.0,54.0,39.0,64.0,64,2565.0,square4,i,0.0264,3,V,3.0
V3,41.0,48.0,52.0,38.0,64.0,64,2629.0,square4,i,0.1674,3,V,3.0
V3,42.0,45.0,50.0,34.0,63.0,63,2692.0,square4,i,0.1602,3,V,3.0
V3,43.0,44.0,50.0,34.0,62.0,44,2736.0,square1,j,0.1847,0,V,3.0
V3,44.0,47.0,55.0,39.0,65.0,65,2801.0,square4,i,0.0891,3,V,3.0
V3,45.0,45.0,55.0,31.0,63.0,63,2864.0,square4,i,0.199,3,V,3.0
V3,46.0,42.0,52.0,38.0,64.0,64,2928.0,square4,i,0.1012,3,V,3.0
V3,47.0,44.0,53.0,37.0,55.0,55,2983.0,square4,i,0.0994,3,V,3.0
V3,48.0,44.0,49.0,37.0,58.0,58,3041.0,square4,i,0.0129,3,V,3.0
V3,49.0,48.0,58.0,35.0,54.0,54,3095.0,square4,i,0.0296,3,V,3.0
V3,50.0,42.0,28.0,30.0,52.0,52,3147.0,square4,i,0.2125,3,V,3.0
V3,51.0,46.0,29.0,32.0,51.0,51,3198.0,square4,i,0.1288,3,V,3.0
V3,52.0,37.0,20.0,36.0,50.0,50,3248.0,square4,i,0.0955,3,V,3.0
V3,53.0,44.0,22.0,34.0,55.0,55,3303.0,square4,i,0.1685,3,V,3.0
V3,54.0,37.0,27.0,26.0,50.0,27,3330.0,square2,r,0.1971,1,V,3.0
V3,55.0,41.0,21.0,39.0,53.0,41,3371.0,square1,j,0.2792,0,V,3.0
V3,56.0,40.0,20.0,38.0,51.0,38,3409.0,square3,f,0.0742,2,V,3.0
V3,57.0,44.0,28.0,31.0,57.0,57,3466.0,square4,i,0.0225,3,V,3.0
V3,58.0,46.0,20.0,28.0,49.0,49,3515.0,square4,i,0.0805,3,V,3.0
V3,59.0,44.0,24.0,30.0,55.0,55,3570.0,square4,i,0.9348,3,V,3.0
V3,60.0,42.0,29.0,29.0,51.0,51,3621.0,square4,i,0.0287,3,V,3.0
V3,61.0,41.0,21.0,30.0,46.0,46,3667.0,square4,i,0.0996,3,V,3.0
V3,62.0,41.0,27.0,31.0,49.0,49,3716.0,square4,i,0.1357,3,V,3.0
V3,63.0,42.0,27.0,34.0,51.0,51,3767.0,square4,i,0.2635,3,V,3.0
V3,64.0,41.0,24.0,30.0,47.0,24,3791.0,square2,r,0.315,1,V,3.0
V3,65.0,36.0,18.0,34.0,48.0,36,3827.0,square1,j,0.0302,0,V,3.0
V3,66.0,39.0,28.0,35.0,45.0,35,3862.0,square3,f,0.0158,2,V,3.0
V3,67.0,42.0,21.0,32.0,46.0,46,3908.0,square4,i,0.0675,3,V,3.0
V3,68.0,40.0,24.0,35.0,53.0,53,3961.0,square4,i,0.0699,3,V,3.0
V3,69.0,48.0,23.0,34.0,50.0,50,4011.0,square4,i,0.0846,3,V,3.0
V3,70.0,40.0,27.0,31.0,49.0,49,4060.0,square4,i,0.1497,3,V,3.0
V3,71.0,41.0,23.0,28.0,51.0,51,4111.0,square4,i,0.0655,3,V,3.0
V3,72.0,42.0,25.0,33.0,55.0,55,4166.0,square4,i,0.1348,3,V,3.0
V3,73.0,41.0,24.0,35.0,55.0,55,4221.0,square4,i,0.1705,3,V,3.0
V3,74.0,38.0,26.0,28.0,53.0,53,4274.0,square4,i,0.1838,3,V,3.0
V3,75.0,54.0,39.0,69.0,50.0,50,4324.0,square4,i,0.676,3,V,3.0
V3,76.0,55.0,42.0,64.0,53.0,53,4377.0,square4,i,0.1163,3,V,3.0
V3,77.0,59.0,37.0,66.0,44.0,44,4421.0,square4,i,0.13,3,V,3.0
V3,78.0,58.0,38.0,60.0,46.0,58,4479.0,square1,j,0.4149,0,V,3.0
V3,79.0,54.0,35.0,66.0,49.0,54,4533.0,square1,j,0.1123,0,V,3.0
V3,80.0,60.0,36.0,68.0,44.0,60,4593.0,square1,j,0.0983,0,V,3.0
V3,81.0,55.0,38.0,66.0,51.0,55,4648.0,square1,j,0.0892,0,V,3.0
V3,82.0,57.0,47.0,64.0,50.0,57,4705.0,square1,j,0.1458,0,V,3.0
V3,83.0,57.0,37.0,63.0,45.0,57,4762.0,square1,j,0.1466,0,V,3.0
V3,84.0,54.0,40.0,65.0,53.0,54,4816.0,square1,j,0.1329,0,V,3.0
V3,85.0,58.0,41.0,63.0,48.0,58,4874.0,square1,j,0.1542,0,V,3.0
V3,86.0,53.0,38.0,57.0,49.0,38,4912.0,square2,r,0.1126,1,V,3.0
V3,87.0,49.0,42.0,60.0,43.0,60,4972.0,square3,f,0.0959,2,V,3.0
V3,88.0,56.0,35.0,70.0,46.0,70,5042.0,square3,f,0.0845,2,V,3.0
V3,89.0,58.0,39.0,63.0,52.0,63,5105.0,square3,f,0.153,2,V,3.0
V3,90.0,59.0,43.0,63.0,45.0,63,5168.0,square3,f,0.1162,2,V,3.0
V3,91.0,54.0,37.0,69.0,49.0,69,5237.0,square3,f,0.0969,2,V,3.0
V3,92.0,56.0,41.0,61.0,47.0,56,5293.0,square1,j,0.1309,0,V,3.0
V3,93.0,58.0,35.0,68.0,47.0,47,5340.0,square4,i,0.1792,3,V,3.0
V3,94.0,61.0,37.0,67.0,51.0,67,5407.0,square3,f,0.0619,2,V,3.0
V3,95.0,57.0,32.0,64.0,47.0,64,5471.0,square3,f,0.0962,2,V,3.0
V3,96.0,53.0,38.0,63.0,48.0,63,5534.0,square3,f,0.1155,2,V,3.0
V3,97.0,57.0,44.0,71.0,50.0,71,5605.0,square3,f,0.0794,2,V,3.0
V3,98.0,56.0,39.0,70.0,47.0,70,5675.0,square3,f,0.076,2,V,3.0
V3,99.0,62.0,40.0,67.0,49.0,67,5742.0,square3,f,0.1469,2,V,3.0
V7,0.0,86.0,61.0,78.0,68.0,61,61.0,square2,j,0.8873,1,V,7.0
V7,1.0,95.0,62.0,79.0,70.0,70,131.0,square4,r,0.2652,3,V,7.0
V7,2.0,89.0,67.0,81.0,77.0,81,212.0,square3,i,0.0806,2,V,7.0
V7,3.0,90.0,56.0,85.0,72.0,90,302.0,square1,f,0.1357,0,V,7.0
V7,4.0,91.0,65.0,77.0,71.0,91,393.0,square1,f,0.081,0,V,7.0
V7,5.0,91.0,58.0,84.0,72.0,91,484.0,square1,f,0.1119,0,V,7.0
V7,6.0,94.0,65.0,87.0,72.0,94,578.0,square1,f,0.1792,0,V,7.0
V7,7.0,89.0,67.0,79.0,67.0,89,667.0,square1,f,0.097,0,V,7.0
V7,8.0,91.0,65.0,84.0,68.0,91,758.0,square1,f,0.178,0,V,7.0
V7,9.0,92.0,60.0,87.0,69.0,92,850.0,square1,f,0.0955,0,V,7.0
V7,10.0,90.0,67.0,81.0,76.0,90,940.0,square1,f,0.1663,0,V,7.0
V7,11.0,86.0,67.0,83.0,73.0,86,1026.0,square1,f,0.1463,0,V,7.0
V7,12.0,90.0,62.0,80.0,72.0,80,1106.0,square3,i,0.1299,2,V,7.0
V7,13.0,84.0,60.0,88.0,71.0,60,1166.0,square2,j,0.0028,1,V,7.0
V7,14.0,95.0,64.0,80.0,70.0,70,1236.0,square4,r,0.0799,3,V,7.0
V7,15.0,86.0,60.0,81.0,70.0,86,1322.0,square1,f,0.1372,0,V,7.0
V7,16.0,85.0,65.0,77.0,69.0,85,1407.0,square1,f,0.0361,0,V,7.0
V7,17.0,91.0,65.0,81.0,70.0,91,1498.0,square1,f,0.1296,0,V,7.0
V7,18.0,95.0,61.0,81.0,76.0,95,1593.0,square1,f,0.1669,0,V,7.0
V7,19.0,90.0,58.0,79.0,72.0,90,1683.0,square1,f,0.1265,0,V,7.0
V7,20.0,94.0,68.0,80.0,79.0,94,1777.0,square1,f,0.112,0,V,7.0
V7,21.0,92.0,66.0,82.0,70.0,92,1869.0,square1,f,0.115,0,V,7.0
V7,22.0,92.0,64.0,83.0,72.0,92,1961.0,square1,f,0.0017,0,V,7.0
V7,23.0,91.0,68.0,82.0,73.0,91,2052.0,square1,f,0.0023,0,V,7.0
V7,24.0,87.0,71.0,82.0,72.0,87,2139.0,square1,f,0.1342,0,V,7.0
V7,25.0,91.0,68.0,90.0,74.0,91,2230.0,square1,f,0.0036,0,V,7.0
V7,26.0,89.0,65.0,83.0,72.0,99999,2230.0,invalid,,,-1,V,7.0
V7,27.0,91.0,61.0,81.0,73.0,91,2321.0,square1,f,1.4709,0,V,7.0
V7,28.0,90.0,66.0,81.0,72.0,81,2402.0,square3,i,0.0832,2,V,7.0
V7,29.0,89.0,67.0,77.0,71.0,89,2491.0,square1,f,0.5455,0,V,7.0
V7,30.0,95.0,68.0,84.0,71.0,95,2586.0,square1,f,0.1145,0,V,7.0
V7,31.0,95.0,61.0,81.0,70.0,95,2681.0,square1,f,0.0509,0,V,7.0
V7,32.0,89.0,65.0,82.0,75.0,89,2770.0,square1,f,0.0631,0,V,7.0
V7,33.0,77.0,50.0,80.0,61.0,77,2847.0,square1,f,0.0794,0,V,7.0
V7,34.0,76.0,54.0,78.0,61.0,76,2923.0,square1,f,0.1737,0,V,7.0
V7,35.0,71.0,51.0,80.0,64.0,71,2994.0,square1,f,0.3511,0,V,7.0
V7,36.0,75.0,51.0,80.0,62.0,80,3074.0,square3,i,0.3028,2,V,7.0
V7,37.0,73.0,58.0,86.0,63.0,86,3160.0,square3,i,0.0632,2,V,7.0
V7,38.0,73.0,50.0,86.0,61.0,50,3210.0,square2,j,0.2104,1,V,7.0
V7,39.0,67.0,53.0,78.0,61.0,61,3271.0,square4,r,0.1485,3,V,7.0
V7,40.0,71.0,53.0,84.0,58.0,84,3355.0,square3,i,0.0154,2,V,7.0
V7,41.0,75.0,51.0,83.0,63.0,75,3430.0,square1,f,0.0018,0,V,7.0
V7,42.0,69.0,48.0,87.0,63.0,87,3517.0,square3,i,0.002,2,V,7.0
V7,43.0,70.0,58.0,81.0,60.0,81,3598.0,square3,i,0.0016,2,V,7.0
V7,44.0,68.0,56.0,76.0,63.0,76,3674.0,square3,i,0.0822,2,V,7.0
V7,45.0,74.0,59.0,76.0,56.0,76,3750.0,square3,i,0.0868,2,V,7.0
V7,46.0,72.0,54.0,77.0,61.0,77,3827.0,square3,i,0.178,2,V,7.0
V7,47.0,69.0,47.0,81.0,62.0,69,3896.0,square1,f,0.0297,0,V,7.0
V7,48.0,75.0,52.0,81.0,57.0,75,3971.0,square1,f,0.1529,0,V,7.0
V7,49.0,74.0,55.0,78.0,60.0,78,4049.0,square3,i,0.0635,2,V,7.0
V7,50.0,71.0,51.0,80.0,61.0,80,4129.0,square3,i,0.0138,2,V,7.0
V7,51.0,75.0,55.0,85.0,62.0,85,4214.0,square3,i,0.0122,2,V,7.0
V7,52.0,75.0,59.0,76.0,59.0,76,4290.0,square3,i,0.0017,2,V,7.0
V7,53.0,72.0,53.0,84.0,66.0,84,4374.0,square3,i,0.0702,2,V,7.0
V7,54.0,69.0,51.0,81.0,60.0,81,4455.0,square3,i,0.1627,2,V,7.0
V7,55.0,74.0,56.0,75.0,54.0,75,4530.0,square3,i,0.03,2,V,7.0
V7,56.0,76.0,51.0,83.0,58.0,83,4613.0,square3,i,0.0499,2,V,7.0
V7,57.0,71.0,53.0,80.0,64.0,80,4693.0,square3,i,0.0322,2,V,7.0
V7,58.0,81.0,56.0,79.0,61.0,79,4772.0,square3,i,0.113,2,V,7.0
V7,59.0,71.0,55.0,83.0,59.0,83,4855.0,square3,i,0.065,2,V,7.0
V7,60.0,73.0,53.0,83.0,64.0,83,4938.0,square3,i,0.0521,2,V,7.0
V7,61.0,70.0,53.0,77.0,63.0,70,5008.0,square1,f,0.0636,0,V,7.0
V7,62.0,71.0,54.0,76.0,61.0,61,5069.0,square4,r,0.002,3,V,7.0
V7,63.0,68.0,45.0,79.0,65.0,45,5114.0,square2,j,0.0515,1,V,7.0
V7,64.0,65.0,55.0,79.0,59.0,79,5193.0,square3,i,0.0122,2,V,7.0
V7,65.0,74.0,54.0,81.0,61.0,81,5274.0,square3,i,0.1828,2,V,7.0
V7,66.0,70.0,56.0,81.0,63.0,81,5355.0,square3,i,0.0658,2,V,7.0
V7,67.0,70.0,85.0,64.0,92.0,64,5419.0,square3,i,0.066,2,V,7.0
V7,68.0,73.0,85.0,68.0,92.0,68,5487.0,square3,i,0.0952,2,V,7.0
V7,69.0,75.0,83.0,70.0,91.0,75,5562.0,square1,f,0.0024,0,V,7.0
V7,70.0,75.0,85.0,69.0,91.0,75,5637.0,square1,f,0.015,0,V,7.0
V7,71.0,71.0,86.0,65.0,94.0,94,5731.0,square4,r,0.0737,3,V,7.0
V7,72.0,77.0,86.0,65.0,98.0,98,5829.0,square4,r,0.0027,3,V,7.0
V7,73.0,77.0,84.0,63.0,94.0,94,5923.0,square4,r,0.1377,3,V,7.0
V7,74.0,71.0,86.0,64.0,91.0,91,6014.0,square4,r,0.0711,3,V,7.0
V7,75.0,73.0,90.0,60.0,90.0,90,6104.0,square4,r,0.0658,3,V,7.0
V7,76.0,79.0,84.0,68.0,95.0,95,6199.0,square4,r,0.0675,3,V,7.0
V7,77.0,73.0,85.0,66.0,89.0,89,6288.0,square4,r,0.0363,3,V,7.0
V7,78.0,75.0,82.0,67.0,91.0,91,6379.0,square4,r,0.1298,3,V,7.0
V7,79.0,72.0,85.0,60.0,90.0,85,6464.0,square2,j,0.1072,1,V,7.0
V7,80.0,73.0,83.0,66.0,97.0,97,6561.0,square4,r,0.1249,3,V,7.0
V7,81.0,73.0,84.0,67.0,92.0,92,6653.0,square4,r,0.0967,3,V,7.0
V7,82.0,69.0,84.0,65.0,91.0,91,6744.0,square4,r,0.1144,3,V,7.0
V7,83.0,76.0,83.0,72.0,99.0,99,6843.0,square4,r,0.0694,3,V,7.0
V7,84.0,72.0,84.0,70.0,94.0,94,6937.0,square4,r,0.1141,3,V,7.0
V7,85.0,77.0,83.0,67.0,88.0,88,7025.0,square4,r,0.1349,3,V,7.0
V7,86.0,76.0,80.0,67.0,90.0,90,7115.0,square4,r,0.1347,3,V,7.0
V7,87.0,70.0,86.0,67.0,95.0,95,7210.0,square4,r,0.0958,3,V,7.0
V7,88.0,76.0,84.0,67.0,100.0,100,7310.0,square4,r,0.1075,3,V,7.0
V7,89.0,71.0,88.0,60.0,97.0,97,7407.0,square4,r,0.1615,3,V,7.0
V7,90.0,69.0,82.0,71.0,95.0,95,7502.0,square4,r,0.0406,3,V,7.0
V7,91.0,80.0,84.0,65.0,92.0,92,7594.0,square4,r,0.1486,3,V,7.0
V7,92.0,77.0,85.0,68.0,85.0,85,7679.0,square4,r,0.0023,3,V,7.0
V7,93.0,72.0,84.0,66.0,91.0,84,7763.0,square2,j,0.1072,1,V,7.0
V7,94.0,69.0,83.0,66.0,95.0,95,7858.0,square4,r,0.0022,3,V,7.0
V7,95.0,70.0,86.0,75.0,91.0,91,7949.0,square4,r,0.0496,3,V,7.0
V7,96.0,74.0,85.0,66.0,88.0,88,8037.0,square4,r,0.0795,3,V,7.0
V7,97.0,77.0,82.0,73.0,91.0,77,8114.0,square1,f,0.0592,0,V,7.0
V7,98.0,76.0,91.0,62.0,94.0,62,8176.0,square3,i,0.1148,2,V,7.0
V7,99.0,74.0,84.0,67.0,88.0,88,8264.0,square4,r,0.1854,3,V,7.0
V6,0.0,43.0,59.0,68.0,49.0,68,68.0,square3,j,0.7803,2,V,6.0
V6,1.0,43.0,62.0,71.0,50.0,43,111.0,square1,r,0.2133,0,V,6.0
V6,2.0,48.0,61.0,72.0,51.0,51,162.0,square4,i,0.0025,3,V,6.0
V6,3.0,46.0,55.0,71.0,51.0,55,217.0,square2,f,0.4962,1,V,6.0
V6,4.0,44.0,61.0,74.0,48.0,74,291.0,square3,j,0.9514,2,V,6.0
V6,5.0,45.0,62.0,70.0,51.0,70,361.0,square3,j,0.1503,2,V,6.0
V6,6.0,42.0,67.0,73.0,46.0,73,434.0,square3,j,0.1479,2,V,6.0
V6,7.0,44.0,63.0,71.0,53.0,71,505.0,square3,j,0.0146,2,V,6.0
V6,8.0,41.0,62.0,73.0,52.0,73,578.0,square3,j,0.0654,2,V,6.0
V6,9.0,46.0,59.0,72.0,54.0,72,650.0,square3,j,0.003,2,V,6.0
V6,10.0,45.0,59.0,70.0,53.0,45,695.0,square1,r,0.1784,0,V,6.0
V6,11.0,45.0,60.0,70.0,49.0,49,744.0,square4,i,0.1183,3,V,6.0
V6,12.0,45.0,66.0,64.0,48.0,66,810.0,square2,f,0.136,1,V,6.0
V6,13.0,45.0,61.0,69.0,47.0,69,879.0,square3,j,0.0513,2,V,6.0
V6,14.0,47.0,60.0,71.0,56.0,71,950.0,square3,j,0.1336,2,V,6.0
V6,15.0,46.0,64.0,67.0,52.0,67,1017.0,square3,j,0.0984,2,V,6.0
V6,16.0,50.0,60.0,69.0,54.0,69,1086.0,square3,j,0.0818,2,V,6.0
V6,17.0,43.0,60.0,70.0,53.0,70,1156.0,square3,j,0.0961,2,V,6.0
V6,18.0,46.0,63.0,72.0,55.0,72,1228.0,square3,j,0.0801,2,V,6.0
V6,19.0,46.0,65.0,73.0,51.0,73,1301.0,square3,j,0.0788,2,V,6.0
V6,20.0,44.0,63.0,66.0,51.0,66,1367.0,square3,j,0.0491,2,V,6.0
V6,21.0,43.0,63.0,70.0,49.0,70,1437.0,square3,j,0.1016,2,V,6.0
V6,22.0,45.0,63.0,71.0,50.0,71,1508.0,square3,j,0.1245,2,V,6.0
V6,23.0,45.0,38.0,28.0,60.0,28,1536.0,square3,j,0.0495,2,V,6.0
V6,24.0,46.0,33.0,33.0,53.0,33,1569.0,square3,j,0.0539,2,V,6.0
V6,25.0,45.0,36.0,32.0,63.0,36,1605.0,square2,f,0.1476,1,V,6.0
V6,26.0,52.0,37.0,28.0,57.0,52,1657.0,square1,r,0.1518,0,V,6.0
V6,27.0,45.0,33.0,30.0,62.0,62,1719.0,square4,i,0.0903,3,V,6.0
V6,28.0,43.0,37.0,24.0,51.0,51,1770.0,square4,i,0.0346,3,V,6.0
V6,29.0,48.0,39.0,34.0,61.0,61,1831.0,square4,i,0.1341,3,V,6.0
V6,30.0,48.0,44.0,35.0,59.0,59,1890.0,square4,i,0.1341,3,V,6.0
V6,31.0,50.0,39.0,34.0,53.0,53,1943.0,square4,i,0.118,3,V,6.0
V6,32.0,44.0,33.0,33.0,54.0,54,1997.0,square4,i,0.1628,3,V,6.0
V6,33.0,48.0,37.0,30.0,56.0,48,2045.0,square1,r,0.1138,0,V,6.0
V6,34.0,52.0,37.0,27.0,59.0,52,2097.0,square1,r,0.0686,0,V,6.0
V6,35.0,47.0,32.0,29.0,59.0,32,2129.0,square2,f,0.0298,1,V,6.0
V6,36.0,45.0,37.0,27.0,56.0,56,2185.0,square4,i,0.0483,3,V,6.0
V6,37.0,39.0,37.0,31.0,57.0,57,2242.0,square4,i,0.1635,3,V,6.0
V6,38.0,50.0,38.0,29.0,56.0,56,2298.0,square4,i,0.0347,3,V,6.0
V6,39.0,48.0,37.0,27.0,57.0,57,2355.0,square4,i,0.196,3,V,6.0
V6,40.0,53.0,37.0,29.0,57.0,57,2412.0,square4,i,0.2151,3,V,6.0
V6,41.0,41.0,34.0,33.0,58.0,58,2470.0,square4,i,0.0025,3,V,6.0
V6,42.0,50.0,37.0,31.0,57.0,57,2527.0,square4,i,0.0628,3,V,6.0
V6,43.0,48.0,34.0,30.0,58.0,48,2575.0,square1,r,0.1287,0,V,6.0
V6,44.0,44.0,37.0,33.0,60.0,33,2608.0,square3,j,0.1783,2,V,6.0
V6,45.0,44.0,32.0,33.0,55.0,55,2663.0,square4,i,0.1017,3,V,6.0
V6,46.0,44.0,36.0,33.0,59.0,59,2722.0,square4,i,0.4121,3,V,6.0
V6,47.0,42.0,34.0,29.0,52.0,52,2774.0,square4,i,0.1813,3,V,6.0
V6,48.0,46.0,41.0,28.0,60.0,60,2834.0,square4,i,0.1429,3,V,6.0
V6,49.0,46.0,40.0,27.0,55.0,55,2889.0,square4,i,0.0018,3,V,6.0
V6,50.0,46.0,41.0,32.0,55.0,55,2944.0,square4,i,0.0518,3,V,6.0
V6,51.0,41.0,39.0,30.0,55.0,55,2999.0,square4,i,0.1803,3,V,6.0
V6,52.0,47.0,37.0,31.0,55.0,55,3054.0,square4,i,0.0041,3,V,6.0
V6,53.0,57.0,36.0,30.0,58.0,58,3112.0,square4,i,0.0021,3,V,6.0
V6,54.0,42.0,38.0,28.0,50.0,50,3162.0,square4,i,0.0816,3,V,6.0
V6,55.0,56.0,42.0,67.0,46.0,46,3208.0,square4,i,0.0027,3,V,6.0
V6,56.0,54.0,37.0,68.0,46.0,46,3254.0,square4,i,0.1813,3,V,6.0
V6,57.0,57.0,40.0,64.0,52.0,40,3294.0,square2,f,0.0815,1,V,6.0
V6,58.0,53.0,45.0,68.0,45.0,53,3347.0,square1,r,0.0899,0,V,6.0
V6,59.0,59.0,41.0,69.0,49.0,59,3406.0,square1,r,0.0505,0,V,6.0
V6,60.0,62.0,41.0,71.0,51.0,62,3468.0,square1,r,0.1301,0,V,6.0
V6,61.0,58.0,50.0,72.0,51.0,58,3526.0,square1,r,0.0826,0,V,6.0
V6,62.0,61.0,43.0,65.0,47.0,61,3587.0,square1,r,0.1287,0,V,6.0
V6,63.0,55.0,40.0,67.0,51.0,55,3642.0,square1,r,0.1128,0,V,6.0
V6,64.0,56.0,43.0,67.0,47.0,56,3698.0,square1,r,0.0807,0,V,6.0
V6,65.0,62.0,46.0,67.0,48.0,62,3760.0,square1,r,0.0159,0,V,6.0
V6,66.0,55.0,44.0,67.0,48.0,55,3815.0,square1,r,0.0486,0,V,6.0
V6,67.0,61.0,46.0,70.0,49.0,61,3876.0,square1,r,0.133,0,V,6.0
V6,68.0,63.0,41.0,72.0,46.0,63,3939.0,square1,r,0.0024,0,V,6.0
V6,69.0,59.0,41.0,68.0,48.0,59,3998.0,square1,r,0.002,0,V,6.0
V6,70.0,59.0,37.0,70.0,45.0,70,4068.0,square3,j,0.0259,2,V,6.0
V6,71.0,83.0,64.0,56.0,70.0,56,4124.0,square3,j,0.1724,2,V,6.0
V6,72.0,82.0,59.0,53.0,75.0,53,4177.0,square3,j,0.0007,2,V,6.0
V6,73.0,85.0,67.0,58.0,73.0,58,4235.0,square3,j,0.1512,2,V,6.0
V6,74.0,79.0,67.0,61.0,73.0,61,4296.0,square3,j,0.0649,2,V,6.0
V6,75.0,84.0,62.0,53.0,69.0,84,4380.0,square1,r,0.0854,0,V,6.0
V6,76.0,81.0,60.0,55.0,76.0,81,4461.0,square1,r,0.1852,0,V,6.0
V6,77.0,84.0,61.0,60.0,72.0,84,4545.0,square1,r,0.1846,0,V,6.0
V6,78.0,90.0,61.0,54.0,74.0,74,4619.0,square4,i,0.1798,3,V,6.0
V6,79.0,80.0,64.0,51.0,75.0,75,4694.0,square4,i,0.1459,3,V,6.0
V6,80.0,85.0,62.0,56.0,78.0,62,4756.0,square2,f,0.8311,1,V,6.0
V6,81.0,86.0,65.0,58.0,69.0,86,4842.0,square1,r,0.002,0,V,6.0
V6,82.0,83.0,62.0,58.0,77.0,83,4925.0,square1,r,0.1635,0,V,6.0
V6,83.0,87.0,61.0,59.0,70.0,87,5012.0,square1,r,0.1975,0,V,6.0
V6,84.0,89.0,65.0,54.0,78.0,89,5101.0,square1,r,0.0457,0,V,6.0
V6,85.0,78.0,63.0,55.0,75.0,78,5179.0,square1,r,0.1817,0,V,6.0
V6,86.0,87.0,67.0,52.0,75.0,87,5266.0,square1,r,0.002,0,V,6.0
V6,87.0,86.0,62.0,60.0,75.0,86,5352.0,square1,r,0.0026,0,V,6.0
V6,88.0,79.0,67.0,56.0,76.0,79,5431.0,square1,r,0.1869,0,V,6.0
V6,89.0,83.0,61.0,57.0,75.0,83,5514.0,square1,r,0.1476,0,V,6.0
V6,90.0,83.0,67.0,51.0,76.0,83,5597.0,square1,r,0.0023,0,V,6.0
V6,91.0,83.0,63.0,55.0,69.0,83,5680.0,square1,r,0.0158,0,V,6.0
V6,92.0,89.0,56.0,53.0,68.0,89,5769.0,square1,r,0.2278,0,V,6.0
V6,93.0,84.0,61.0,59.0,74.0,84,5853.0,square1,r,0.0023,0,V,6.0
V6,94.0,77.0,58.0,58.0,76.0,77,5930.0,square1,r,0.1128,0,V,6.0
V6,95.0,82.0,60.0,53.0,74.0,82,6012.0,square1,r,0.1302,0,V,6.0
V6,96.0,87.0,61.0,56.0,71.0,61,6073.0,square2,f,0.1989,1,V,6.0
V6,97.0,83.0,66.0,55.0,75.0,83,6156.0,square1,r,0.0152,0,V,6.0
V6,98.0,81.0,63.0,55.0,76.0,76,6232.0,square4,i,0.0169,3,V,6.0
V6,99.0,92.0,63.0,61.0,78.0,92,6324.0,square1,r,0.0153,0,V,6.0
