block,Trial,square1,square2,square3,square4,currPoints,totalPoints,square,choiceKey.keys,choiceKey.rt,armNum,blockType,blockNum
prac,0.0,100.0,0.0,0.0,0.0,100,100.0,square1,,,0,p,0.0
prac,1.0,100.0,0.0,0.0,0.0,0,100.0,square4,,,3,p,0.0
prac,2.0,100.0,0.0,0.0,0.0,0,100.0,square3,,,2,p,0.0
prac,3.0,100.0,0.0,0.0,0.0,100,200.0,square1,,,0,p,0.0
prac,4.0,100.0,0.0,0.0,0.0,0,200.0,square2,,,1,p,0.0
prac,5.0,100.0,0.0,0.0,0.0,100,300.0,square1,,,0,p,0.0
prac,6.0,100.0,0.0,0.0,0.0,100,400.0,square1,,,0,p,0.0
prac,7.0,100.0,0.0,0.0,0.0,100,500.0,square1,,,0,p,0.0
prac,8.0,100.0,0.0,0.0,0.0,100,600.0,square1,,,0,p,0.0
prac,9.0,100.0,0.0,0.0,0.0,100,700.0,square1,,,0,p,0.0
NS11,0.0,78.0,37.0,30.0,78.0,30,30.0,square3,j,0.8232,2,N,11.0
NS11,1.0,85.0,34.0,30.0,76.0,34,64.0,square2,i,0.7766,1,N,11.0
NS11,2.0,79.0,33.0,36.0,77.0,79,143.0,square1,f,0.7465,0,N,11.0
NS11,3.0,82.0,33.0,28.0,72.0,72,215.0,square4,r,0.6786,3,N,11.0
NS11,4.0,82.0,34.0,33.0,76.0,34,249.0,square2,i,0.8014,1,N,11.0
NS11,5.0,78.0,38.0,32.0,83.0,38,287.0,square2,i,0.7804,1,N,11.0
NS11,6.0,78.0,37.0,34.0,77.0,34,321.0,square3,j,0.7702,2,N,11.0
NS11,7.0,80.0,30.0,33.0,74.0,80,401.0,square1,f,0.9034,0,N,11.0
NS11,8.0,79.0,32.0,30.0,73.0,30,431.0,square3,j,0.4783,2,N,11.0
NS11,9.0,81.0,41.0,34.0,61.0,34,465.0,square3,j,0.5764,2,N,11.0
NS11,10.0,76.0,38.0,25.0,64.0,25,490.0,square3,j,0.4854,2,N,11.0
NS11,11.0,79.0,34.0,27.0,65.0,65,555.0,square4,r,0.512,3,N,11.0
NS11,12.0,81.0,32.0,25.0,68.0,68,623.0,square4,r,0.426,3,N,11.0
NS11,13.0,84.0,36.0,24.0,64.0,64,687.0,square4,r,0.2591,3,N,11.0
NS11,14.0,80.0,30.0,24.0,61.0,61,748.0,square4,r,0.3689,3,N,11.0
NS11,15.0,86.0,33.0,22.0,66.0,66,814.0,square4,r,0.2611,3,N,11.0
NS11,16.0,85.0,32.0,20.0,64.0,64,878.0,square4,r,0.3079,3,N,11.0
NS11,17.0,83.0,32.0,22.0,71.0,71,949.0,square4,r,0.2029,3,N,11.0
NS11,18.0,80.0,31.0,19.0,66.0,66,1015.0,square4,r,0.2694,3,N,11.0
NS11,19.0,75.0,40.0,23.0,69.0,69,1084.0,square4,r,0.2343,3,N,11.0
NS11,20.0,73.0,37.0,14.0,67.0,73,1157.0,square1,f,0.4014,0,N,11.0
NS11,21.0,81.0,34.0,23.0,70.0,34,1191.0,square2,i,0.1267,1,N,11.0
NS11,22.0,77.0,39.0,16.0,73.0,77,1268.0,square1,f,0.0012,0,N,11.0
NS11,23.0,78.0,30.0,23.0,74.0,78,1346.0,square1,f,0.0373,0,N,11.0
NS11,24.0,80.0,32.0,26.0,68.0,80,1426.0,square1,f,0.1305,0,N,11.0
NS11,25.0,81.0,29.0,29.0,73.0,29,1455.0,square3,j,0.1278,2,N,11.0
NS11,26.0,77.0,31.0,26.0,69.0,77,1532.0,square1,f,0.0197,0,N,11.0
NS11,27.0,69.0,47.0,29.0,64.0,69,1601.0,square1,f,0.0609,0,N,11.0
NS11,28.0,69.0,39.0,28.0,71.0,69,1670.0,square1,f,0.628,0,N,11.0
NS11,29.0,71.0,41.0,24.0,66.0,71,1741.0,square1,f,0.2386,0,N,11.0
NS11,30.0,70.0,40.0,21.0,68.0,70,1811.0,square1,f,0.0328,0,N,11.0
NS11,31.0,72.0,44.0,21.0,68.0,72,1883.0,square1,f,0.0897,0,N,11.0
NS11,32.0,72.0,41.0,19.0,75.0,72,1955.0,square1,f,0.0371,0,N,11.0
NS11,33.0,66.0,48.0,21.0,72.0,66,2021.0,square1,f,0.0584,0,N,11.0
NS11,34.0,67.0,48.0,24.0,72.0,72,2093.0,square4,r,0.4712,3,N,11.0
NS11,35.0,58.0,52.0,14.0,73.0,58,2151.0,square1,f,0.281,0,N,11.0
NS11,36.0,61.0,52.0,23.0,70.0,70,2221.0,square4,r,0.1502,3,N,11.0
NS11,37.0,50.0,55.0,29.0,67.0,67,2288.0,square4,r,0.199,3,N,11.0
NS11,38.0,51.0,54.0,20.0,64.0,64,2352.0,square4,r,0.1294,3,N,11.0
NS11,39.0,54.0,49.0,26.0,63.0,63,2415.0,square4,r,0.0626,3,N,11.0
NS11,40.0,50.0,47.0,24.0,70.0,70,2485.0,square4,r,0.0443,3,N,11.0
NS11,41.0,54.0,46.0,23.0,63.0,46,2531.0,square2,i,0.0187,1,N,11.0
NS11,42.0,54.0,47.0,25.0,61.0,61,2592.0,square4,r,0.0014,3,N,11.0
NS11,43.0,46.0,49.0,33.0,72.0,33,2625.0,square3,j,0.5284,2,N,11.0
NS11,44.0,54.0,50.0,38.0,72.0,72,2697.0,square4,r,0.2272,3,N,11.0
NS11,45.0,56.0,53.0,39.0,81.0,81,2778.0,square4,r,0.27,3,N,11.0
NS11,46.0,57.0,55.0,33.0,77.0,77,2855.0,square4,r,0.1771,3,N,11.0
NS11,47.0,56.0,51.0,32.0,76.0,76,2931.0,square4,r,0.5938,3,N,11.0
NS11,48.0,58.0,49.0,29.0,85.0,85,3016.0,square4,r,0.2513,3,N,11.0
NS11,49.0,58.0,53.0,27.0,83.0,83,3099.0,square4,r,0.178,3,N,11.0
NS11,50.0,62.0,49.0,24.0,80.0,80,3179.0,square4,r,0.2944,3,N,11.0
NS11,51.0,57.0,55.0,23.0,77.0,77,3256.0,square4,r,0.1477,3,N,11.0
NS11,52.0,56.0,55.0,20.0,77.0,56,3312.0,square1,f,0.0123,0,N,11.0
NS11,53.0,59.0,56.0,20.0,78.0,78,3390.0,square4,r,0.1712,3,N,11.0
NS11,54.0,58.0,57.0,27.0,74.0,74,3464.0,square4,r,0.1039,3,N,11.0
NS11,55.0,60.0,55.0,24.0,79.0,79,3543.0,square4,r,0.2927,3,N,11.0
NS11,56.0,60.0,52.0,22.0,77.0,77,3620.0,square4,r,0.2123,3,N,11.0
NS11,57.0,58.0,55.0,22.0,72.0,72,3692.0,square4,r,0.0175,3,N,11.0
NS11,58.0,63.0,52.0,22.0,75.0,75,3767.0,square4,r,0.4032,3,N,11.0
NS11,59.0,62.0,56.0,17.0,70.0,70,3837.0,square4,r,0.1161,3,N,11.0
NS11,60.0,61.0,55.0,22.0,70.0,70,3907.0,square4,r,0.1602,3,N,11.0
NS11,61.0,57.0,52.0,21.0,76.0,76,3983.0,square4,r,0.0108,3,N,11.0
NS11,62.0,57.0,48.0,28.0,75.0,75,4058.0,square4,r,0.2671,3,N,11.0
NS11,63.0,57.0,58.0,30.0,68.0,68,4126.0,square4,r,0.0994,3,N,11.0
NS11,64.0,61.0,61.0,27.0,74.0,61,4187.0,square2,i,0.0721,1,N,11.0
NS11,65.0,67.0,63.0,40.0,71.0,71,4258.0,square4,r,0.1808,3,N,11.0
NS11,66.0,69.0,55.0,38.0,73.0,55,4313.0,square2,i,0.1136,1,N,11.0
NS11,67.0,72.0,57.0,36.0,65.0,36,4349.0,square3,j,0.1079,2,N,11.0
NS11,68.0,71.0,61.0,36.0,64.0,64,4413.0,square4,r,0.1435,3,N,11.0
NS11,69.0,74.0,66.0,37.0,58.0,74,4487.0,square1,f,0.1225,0,N,11.0
NS11,70.0,69.0,60.0,40.0,66.0,69,4556.0,square1,f,0.1132,0,N,11.0
NS11,71.0,71.0,58.0,40.0,64.0,71,4627.0,square1,f,0.2143,0,N,11.0
NS11,72.0,72.0,58.0,46.0,67.0,72,4699.0,square1,f,0.0749,0,N,11.0
NS11,73.0,72.0,56.0,47.0,65.0,72,4771.0,square1,f,0.0499,0,N,11.0
NS11,74.0,66.0,54.0,47.0,63.0,66,4837.0,square1,f,0.7193,0,N,11.0
NS11,75.0,75.0,53.0,43.0,58.0,75,4912.0,square1,f,0.236,0,N,11.0
NS11,76.0,75.0,48.0,40.0,59.0,59,4971.0,square4,r,0.1606,3,N,11.0
NS11,77.0,65.0,48.0,36.0,58.0,65,5036.0,square1,f,0.0429,0,N,11.0
NS11,78.0,70.0,45.0,37.0,59.0,70,5106.0,square1,f,0.1619,0,N,11.0
NS11,79.0,70.0,41.0,36.0,59.0,70,5176.0,square1,f,0.1391,0,N,11.0
NS11,80.0,73.0,43.0,39.0,59.0,73,5249.0,square1,f,0.1698,0,N,11.0
NS11,81.0,72.0,39.0,38.0,60.0,72,5321.0,square1,f,0.0727,0,N,11.0
NS11,82.0,72.0,39.0,44.0,65.0,72,5393.0,square1,f,0.0301,0,N,11.0
NS11,83.0,68.0,38.0,40.0,61.0,38,5431.0,square2,i,0.0197,1,N,11.0
NS11,84.0,69.0,36.0,36.0,64.0,69,5500.0,square1,f,0.5706,0,N,11.0
NS11,85.0,70.0,34.0,40.0,69.0,70,5570.0,square1,f,0.2374,0,N,11.0
NS11,86.0,70.0,32.0,36.0,71.0,70,5640.0,square1,f,0.0605,0,N,11.0
NS11,87.0,69.0,31.0,37.0,70.0,69,5709.0,square1,f,0.0307,0,N,11.0
NS11,88.0,69.0,34.0,41.0,67.0,69,5778.0,square1,f,0.1302,0,N,11.0
NS11,89.0,67.0,39.0,44.0,67.0,67,5845.0,square1,f,0.0524,0,N,11.0
NS11,90.0,64.0,33.0,36.0,69.0,69,5914.0,square4,r,0.1217,3,N,11.0
NS11,91.0,60.0,33.0,38.0,67.0,67,5981.0,square4,r,0.6373,3,N,11.0
NS11,92.0,60.0,33.0,37.0,68.0,68,6049.0,square4,r,0.1486,3,N,11.0
NS11,93.0,54.0,36.0,38.0,73.0,73,6122.0,square4,r,0.5206,3,N,11.0
NS11,94.0,58.0,35.0,39.0,68.0,68,6190.0,square4,r,0.2901,3,N,11.0
NS11,95.0,50.0,38.0,32.0,77.0,77,6267.0,square4,r,0.1519,3,N,11.0
NS11,96.0,53.0,42.0,30.0,71.0,71,6338.0,square4,r,0.022,3,N,11.0
NS11,97.0,54.0,38.0,32.0,75.0,75,6413.0,square4,r,0.5189,3,N,11.0
NS11,98.0,52.0,48.0,32.0,72.0,72,6485.0,square4,r,0.1877,3,N,11.0
NS11,99.0,55.0,45.0,33.0,73.0,73,6558.0,square4,r,0.4761,3,N,11.0
NS9,0.0,40.0,33.0,41.0,64.0,41,41.0,square3,i,1.1109,2,N,9.0
NS9,1.0,40.0,19.0,39.0,64.0,64,105.0,square4,j,0.0045,3,N,9.0
NS9,2.0,41.0,16.0,44.0,59.0,16,121.0,square2,f,0.4043,1,N,9.0
NS9,3.0,41.0,19.0,48.0,58.0,41,162.0,square1,r,0.1548,0,N,9.0
NS9,4.0,46.0,18.0,45.0,54.0,54,216.0,square4,j,0.0791,3,N,9.0
NS9,5.0,40.0,17.0,53.0,54.0,54,270.0,square4,j,0.0011,3,N,9.0
NS9,6.0,40.0,19.0,47.0,46.0,46,316.0,square4,j,0.4123,3,N,9.0
NS9,7.0,44.0,21.0,51.0,49.0,49,365.0,square4,j,0.2877,3,N,9.0
NS9,8.0,41.0,26.0,44.0,55.0,55,420.0,square4,j,0.2949,3,N,9.0
NS9,9.0,36.0,15.0,44.0,54.0,44,464.0,square3,i,0.3108,2,N,9.0
NS9,10.0,32.0,19.0,48.0,49.0,49,513.0,square4,j,0.2035,3,N,9.0
NS9,11.0,32.0,18.0,50.0,57.0,32,545.0,square1,r,0.1847,0,N,9.0
NS9,12.0,32.0,18.0,57.0,52.0,18,563.0,square2,f,0.0864,1,N,9.0
NS9,13.0,32.0,8.0,58.0,56.0,56,619.0,square4,j,0.5463,3,N,9.0
NS9,14.0,28.0,9.0,61.0,55.0,55,674.0,square4,j,0.327,3,N,9.0
NS9,15.0,31.0,11.0,64.0,48.0,48,722.0,square4,j,0.2547,3,N,9.0
NS9,16.0,34.0,13.0,68.0,47.0,47,769.0,square4,j,0.279,3,N,9.0
NS9,17.0,37.0,11.0,71.0,54.0,54,823.0,square4,j,0.281,3,N,9.0
NS9,18.0,35.0,10.0,71.0,50.0,50,873.0,square4,j,0.0831,3,N,9.0
NS9,19.0,32.0,21.0,77.0,49.0,49,922.0,square4,j,0.1149,3,N,9.0
NS9,20.0,41.0,22.0,74.0,48.0,48,970.0,square4,j,0.0781,3,N,9.0
NS9,21.0,40.0,21.0,75.0,50.0,50,1020.0,square4,j,0.2501,3,N,9.0
NS9,22.0,42.0,23.0,72.0,54.0,54,1074.0,square4,j,0.1507,3,N,9.0
NS9,23.0,43.0,22.0,75.0,45.0,45,1119.0,square4,j,0.0124,3,N,9.0
NS9,24.0,41.0,18.0,70.0,49.0,49,1168.0,square4,j,0.1327,3,N,9.0
NS9,25.0,38.0,21.0,75.0,53.0,53,1221.0,square4,j,0.1622,3,N,9.0
NS9,26.0,40.0,20.0,73.0,54.0,54,1275.0,square4,j,0.112,3,N,9.0
NS9,27.0,46.0,21.0,74.0,56.0,56,1331.0,square4,j,0.4486,3,N,9.0
NS9,28.0,51.0,25.0,72.0,58.0,58,1389.0,square4,j,0.0775,3,N,9.0
NS9,29.0,43.0,29.0,71.0,56.0,56,1445.0,square4,j,0.0938,3,N,9.0
NS9,30.0,38.0,26.0,71.0,52.0,52,1497.0,square4,j,0.1269,3,N,9.0
NS9,31.0,43.0,23.0,73.0,53.0,53,1550.0,square4,j,0.0481,3,N,9.0
NS9,32.0,43.0,24.0,76.0,52.0,52,1602.0,square4,j,0.1091,3,N,9.0
NS9,33.0,41.0,18.0,72.0,49.0,49,1651.0,square4,j,0.0119,3,N,9.0
NS9,34.0,36.0,26.0,68.0,55.0,55,1706.0,square4,j,0.1455,3,N,9.0
NS9,35.0,34.0,34.0,68.0,52.0,52,1758.0,square4,j,0.0776,3,N,9.0
NS9,36.0,34.0,43.0,70.0,49.0,49,1807.0,square4,j,0.0616,3,N,9.0
NS9,37.0,32.0,41.0,61.0,47.0,47,1854.0,square4,j,0.1176,3,N,9.0
NS9,38.0,28.0,41.0,65.0,47.0,47,1901.0,square4,j,0.0861,3,N,9.0
NS9,39.0,28.0,43.0,61.0,48.0,48,1949.0,square4,j,0.178,3,N,9.0
NS9,40.0,26.0,46.0,65.0,39.0,39,1988.0,square4,j,0.3109,3,N,9.0
NS9,41.0,21.0,38.0,62.0,41.0,21,2009.0,square1,r,0.413,0,N,9.0
NS9,42.0,18.0,37.0,59.0,42.0,18,2027.0,square1,r,0.0778,0,N,9.0
NS9,43.0,18.0,44.0,57.0,39.0,57,2084.0,square3,i,0.0346,2,N,9.0
NS9,44.0,19.0,43.0,58.0,36.0,58,2142.0,square3,i,0.1949,2,N,9.0
NS9,45.0,23.0,42.0,53.0,39.0,53,2195.0,square3,i,0.761,2,N,9.0
NS9,46.0,22.0,48.0,58.0,43.0,58,2253.0,square3,i,0.1787,2,N,9.0
NS9,47.0,20.0,47.0,51.0,44.0,51,2304.0,square3,i,0.061,2,N,9.0
NS9,48.0,21.0,43.0,57.0,40.0,57,2361.0,square3,i,0.2785,2,N,9.0
NS9,49.0,25.0,38.0,59.0,46.0,59,2420.0,square3,i,0.1513,2,N,9.0
NS9,50.0,27.0,41.0,49.0,52.0,49,2469.0,square3,i,0.0863,2,N,9.0
NS9,51.0,20.0,42.0,52.0,54.0,52,2521.0,square3,i,0.2819,2,N,9.0
NS9,52.0,18.0,41.0,51.0,48.0,51,2572.0,square3,i,0.1041,2,N,9.0
NS9,53.0,17.0,43.0,52.0,50.0,52,2624.0,square3,i,0.1503,2,N,9.0
NS9,54.0,27.0,37.0,55.0,56.0,55,2679.0,square3,i,0.1032,2,N,9.0
NS9,55.0,30.0,38.0,59.0,50.0,59,2738.0,square3,i,0.3168,2,N,9.0
NS9,56.0,32.0,49.0,54.0,59.0,54,2792.0,square3,i,0.2007,2,N,9.0
NS9,57.0,34.0,50.0,50.0,58.0,50,2842.0,square3,i,0.3621,2,N,9.0
NS9,58.0,28.0,49.0,54.0,51.0,54,2896.0,square3,i,0.1136,2,N,9.0
NS9,59.0,26.0,47.0,46.0,49.0,46,2942.0,square3,i,0.1319,2,N,9.0
NS9,60.0,30.0,47.0,50.0,51.0,50,2992.0,square3,i,0.1512,2,N,9.0
NS9,61.0,29.0,43.0,51.0,50.0,51,3043.0,square3,i,0.411,2,N,9.0
NS9,62.0,32.0,42.0,52.0,54.0,52,3095.0,square3,i,0.0961,2,N,9.0
NS9,63.0,35.0,45.0,57.0,46.0,57,3152.0,square3,i,0.0481,2,N,9.0
NS9,64.0,37.0,41.0,53.0,44.0,53,3205.0,square3,i,0.245,2,N,9.0
NS9,65.0,34.0,41.0,50.0,49.0,50,3255.0,square3,i,0.2158,2,N,9.0
NS9,66.0,38.0,43.0,46.0,53.0,46,3301.0,square3,i,0.0369,2,N,9.0
NS9,67.0,36.0,35.0,51.0,54.0,51,3352.0,square3,i,0.2345,2,N,9.0
NS9,68.0,43.0,38.0,48.0,57.0,48,3400.0,square3,i,0.0498,2,N,9.0
NS9,69.0,42.0,42.0,48.0,49.0,48,3448.0,square3,i,0.101,2,N,9.0
NS9,70.0,45.0,40.0,50.0,51.0,50,3498.0,square3,i,0.1194,2,N,9.0
NS9,71.0,49.0,42.0,48.0,52.0,48,3546.0,square3,i,0.1692,2,N,9.0
NS9,72.0,39.0,44.0,47.0,58.0,47,3593.0,square3,i,0.9836,2,N,9.0
NS9,73.0,40.0,45.0,45.0,62.0,45,3638.0,square3,i,0.112,2,N,9.0
NS9,74.0,46.0,48.0,47.0,56.0,47,3685.0,square3,i,0.1637,2,N,9.0
NS9,75.0,35.0,39.0,53.0,65.0,53,3738.0,square3,i,0.6,2,N,9.0
NS9,76.0,40.0,45.0,56.0,67.0,56,3794.0,square3,i,0.1437,2,N,9.0
NS9,77.0,38.0,46.0,54.0,69.0,54,3848.0,square3,i,0.6047,2,N,9.0
NS9,78.0,37.0,42.0,53.0,69.0,53,3901.0,square3,i,1.0121,2,N,9.0
NS9,79.0,40.0,44.0,53.0,70.0,53,3954.0,square3,i,0.6787,2,N,9.0
NS9,80.0,37.0,50.0,55.0,70.0,55,4009.0,square3,i,0.2657,2,N,9.0
NS9,81.0,33.0,54.0,54.0,63.0,54,4063.0,square3,i,0.1312,2,N,9.0
NS9,82.0,35.0,55.0,52.0,74.0,52,4115.0,square3,i,0.0758,2,N,9.0
NS9,83.0,34.0,48.0,56.0,75.0,56,4171.0,square3,i,1.0216,2,N,9.0
NS9,84.0,39.0,51.0,62.0,78.0,62,4233.0,square3,i,0.4337,2,N,9.0
NS9,85.0,38.0,57.0,55.0,77.0,55,4288.0,square3,i,0.3646,2,N,9.0
NS9,86.0,34.0,53.0,57.0,68.0,57,4345.0,square3,i,0.1685,2,N,9.0
NS9,87.0,35.0,48.0,55.0,69.0,55,4400.0,square3,i,0.3925,2,N,9.0
NS9,88.0,41.0,48.0,50.0,69.0,50,4450.0,square3,i,0.6285,2,N,9.0
NS9,89.0,38.0,54.0,55.0,70.0,55,4505.0,square3,i,0.0011,2,N,9.0
NS9,90.0,43.0,55.0,49.0,71.0,49,4554.0,square3,i,0.3534,2,N,9.0
NS9,91.0,41.0,46.0,54.0,78.0,54,4608.0,square3,i,0.2183,2,N,9.0
NS9,92.0,40.0,42.0,41.0,72.0,41,4649.0,square3,i,0.1381,2,N,9.0
NS9,93.0,39.0,43.0,47.0,70.0,47,4696.0,square3,i,0.0276,2,N,9.0
NS9,94.0,36.0,47.0,43.0,80.0,43,4739.0,square3,i,0.0944,2,N,9.0
NS9,95.0,37.0,46.0,43.0,75.0,43,4782.0,square3,i,1.2487,2,N,9.0
NS9,96.0,39.0,47.0,47.0,75.0,47,4829.0,square3,i,0.551,2,N,9.0
NS9,97.0,35.0,41.0,49.0,80.0,99999,4829.0,invalid,,,-1,N,9.0
NS9,98.0,33.0,45.0,56.0,74.0,74,4903.0,square4,j,1.2645,3,N,9.0
NS9,99.0,34.0,42.0,58.0,74.0,74,4977.0,square4,j,0.3598,3,N,9.0
NS2,0.0,44.0,66.0,42.0,38.0,42,42.0,square3,j,0.8486,2,N,2.0
NS2,1.0,44.0,66.0,47.0,43.0,66,108.0,square2,i,0.1244,1,N,2.0
NS2,2.0,42.0,62.0,53.0,43.0,42,150.0,square1,f,0.0841,0,N,2.0
NS2,3.0,46.0,58.0,48.0,46.0,46,196.0,square4,r,0.3674,3,N,2.0
NS2,4.0,47.0,61.0,51.0,42.0,61,257.0,square2,i,0.5073,1,N,2.0
NS2,5.0,51.0,58.0,50.0,50.0,58,315.0,square2,i,0.3685,1,N,2.0
NS2,6.0,52.0,58.0,43.0,48.0,58,373.0,square2,i,0.1016,1,N,2.0
NS2,7.0,50.0,52.0,43.0,50.0,52,425.0,square2,i,0.1181,1,N,2.0
NS2,8.0,54.0,58.0,41.0,46.0,58,483.0,square2,i,0.0836,1,N,2.0
NS2,9.0,52.0,59.0,42.0,46.0,59,542.0,square2,i,0.0942,1,N,2.0
NS2,10.0,50.0,52.0,37.0,48.0,52,594.0,square2,i,0.1082,1,N,2.0
NS2,11.0,45.0,56.0,38.0,43.0,56,650.0,square2,i,0.0676,1,N,2.0
NS2,12.0,50.0,56.0,37.0,48.0,56,706.0,square2,i,0.0014,1,N,2.0
NS2,13.0,47.0,63.0,36.0,49.0,63,769.0,square2,i,0.3668,1,N,2.0
NS2,14.0,51.0,56.0,39.0,49.0,56,825.0,square2,i,0.225,1,N,2.0
NS2,15.0,46.0,64.0,39.0,50.0,64,889.0,square2,i,0.1339,1,N,2.0
NS2,16.0,51.0,61.0,37.0,47.0,61,950.0,square2,i,0.0011,1,N,2.0
NS2,17.0,59.0,68.0,46.0,53.0,68,1018.0,square2,i,0.0343,1,N,2.0
NS2,18.0,53.0,65.0,42.0,49.0,65,1083.0,square2,i,0.5677,1,N,2.0
NS2,19.0,52.0,67.0,47.0,49.0,67,1150.0,square2,i,0.3682,1,N,2.0
NS2,20.0,56.0,64.0,45.0,48.0,64,1214.0,square2,i,0.0047,1,N,2.0
NS2,21.0,57.0,73.0,46.0,44.0,73,1287.0,square2,i,0.2346,1,N,2.0
NS2,22.0,54.0,76.0,36.0,47.0,76,1363.0,square2,i,0.0338,1,N,2.0
NS2,23.0,55.0,77.0,35.0,42.0,77,1440.0,square2,i,0.1011,1,N,2.0
NS2,24.0,53.0,68.0,35.0,46.0,68,1508.0,square2,i,0.1196,1,N,2.0
NS2,25.0,55.0,73.0,29.0,45.0,73,1581.0,square2,i,0.0056,1,N,2.0
NS2,26.0,52.0,69.0,30.0,49.0,69,1650.0,square2,i,0.1037,1,N,2.0
NS2,27.0,52.0,62.0,33.0,52.0,62,1712.0,square2,i,1.063,1,N,2.0
NS2,28.0,58.0,62.0,33.0,47.0,62,1774.0,square2,i,0.034,1,N,2.0
NS2,29.0,56.0,65.0,38.0,46.0,65,1839.0,square2,i,0.0676,1,N,2.0
NS2,30.0,56.0,66.0,37.0,50.0,66,1905.0,square2,i,0.0184,1,N,2.0
NS2,31.0,50.0,64.0,35.0,45.0,64,1969.0,square2,i,0.1018,1,N,2.0
NS2,32.0,56.0,62.0,38.0,45.0,62,2031.0,square2,i,0.0299,1,N,2.0
NS2,33.0,59.0,58.0,34.0,48.0,58,2089.0,square2,i,0.3933,1,N,2.0
NS2,34.0,55.0,59.0,36.0,48.0,36,2125.0,square3,j,0.3337,2,N,2.0
NS2,35.0,54.0,57.0,33.0,48.0,54,2179.0,square1,f,0.08,0,N,2.0
NS2,36.0,53.0,58.0,34.0,51.0,51,2230.0,square4,r,0.4844,3,N,2.0
NS2,37.0,46.0,53.0,32.0,55.0,46,2276.0,square1,f,0.1244,0,N,2.0
NS2,38.0,46.0,59.0,37.0,49.0,59,2335.0,square2,i,0.184,1,N,2.0
NS2,39.0,53.0,59.0,36.0,48.0,59,2394.0,square2,i,0.3779,1,N,2.0
NS2,40.0,46.0,60.0,37.0,42.0,60,2454.0,square2,i,0.1681,1,N,2.0
NS2,41.0,51.0,57.0,42.0,41.0,57,2511.0,square2,i,0.1173,1,N,2.0
NS2,42.0,49.0,53.0,46.0,41.0,53,2564.0,square2,i,0.0546,1,N,2.0
NS2,43.0,49.0,57.0,43.0,39.0,57,2621.0,square2,i,0.1779,1,N,2.0
NS2,44.0,48.0,55.0,48.0,37.0,55,2676.0,square2,i,0.3594,1,N,2.0
NS2,45.0,49.0,52.0,34.0,36.0,34,2710.0,square3,j,0.1513,2,N,2.0
NS2,46.0,50.0,46.0,39.0,34.0,50,2760.0,square1,f,0.1278,0,N,2.0
NS2,47.0,55.0,48.0,39.0,26.0,26,2786.0,square4,r,0.1116,3,N,2.0
NS2,48.0,55.0,42.0,41.0,31.0,42,2828.0,square2,i,0.0012,1,N,2.0
NS2,49.0,55.0,41.0,36.0,36.0,41,2869.0,square2,i,0.1261,1,N,2.0
NS2,50.0,50.0,43.0,43.0,36.0,43,2912.0,square2,i,0.401,1,N,2.0
NS2,51.0,49.0,40.0,44.0,32.0,44,2956.0,square3,j,0.084,2,N,2.0
NS2,52.0,54.0,45.0,40.0,32.0,40,2996.0,square3,j,0.1508,2,N,2.0
NS2,53.0,55.0,44.0,42.0,38.0,42,3038.0,square3,j,0.1445,2,N,2.0
NS2,54.0,57.0,44.0,42.0,37.0,44,3082.0,square2,i,0.1684,1,N,2.0
NS2,55.0,56.0,47.0,35.0,29.0,56,3138.0,square1,f,0.2183,0,N,2.0
NS2,56.0,56.0,45.0,31.0,36.0,56,3194.0,square1,f,0.3343,0,N,2.0
NS2,57.0,48.0,43.0,33.0,36.0,48,3242.0,square1,f,0.2514,0,N,2.0
NS2,58.0,46.0,44.0,30.0,40.0,46,3288.0,square1,f,0.3671,0,N,2.0
NS2,59.0,45.0,36.0,33.0,37.0,45,3333.0,square1,f,0.2135,0,N,2.0
NS2,60.0,45.0,37.0,32.0,38.0,45,3378.0,square1,f,0.3352,0,N,2.0
NS2,61.0,47.0,37.0,31.0,37.0,47,3425.0,square1,f,0.0848,0,N,2.0
NS2,62.0,46.0,36.0,28.0,34.0,46,3471.0,square1,f,0.4841,0,N,2.0
NS2,63.0,53.0,36.0,26.0,43.0,36,3507.0,square2,i,0.1507,1,N,2.0
NS2,64.0,53.0,37.0,24.0,45.0,24,3531.0,square3,j,0.1509,2,N,2.0
NS2,65.0,49.0,34.0,27.0,49.0,49,3580.0,square4,r,0.0939,3,N,2.0
NS2,66.0,50.0,30.0,26.0,57.0,57,3637.0,square4,r,0.1843,3,N,2.0
NS2,67.0,49.0,28.0,32.0,55.0,55,3692.0,square4,r,0.4342,3,N,2.0
NS2,68.0,53.0,23.0,35.0,55.0,55,3747.0,square4,r,0.3512,3,N,2.0
NS2,69.0,49.0,29.0,33.0,51.0,51,3798.0,square4,r,0.2677,3,N,2.0
NS2,70.0,54.0,27.0,30.0,60.0,60,3858.0,square4,r,0.1172,3,N,2.0
NS2,71.0,57.0,28.0,31.0,59.0,59,3917.0,square4,r,0.1399,3,N,2.0
NS2,72.0,55.0,25.0,29.0,61.0,61,3978.0,square4,r,0.1402,3,N,2.0
NS2,73.0,63.0,29.0,31.0,56.0,56,4034.0,square4,r,0.1207,3,N,2.0
NS2,74.0,59.0,34.0,34.0,58.0,58,4092.0,square4,r,0.1059,3,N,2.0
NS2,75.0,58.0,37.0,31.0,53.0,53,4145.0,square4,r,0.1004,3,N,2.0
NS2,76.0,62.0,41.0,25.0,53.0,53,4198.0,square4,r,0.1509,3,N,2.0
NS2,77.0,60.0,37.0,30.0,52.0,52,4250.0,square4,r,0.2178,3,N,2.0
NS2,78.0,63.0,37.0,37.0,50.0,50,4300.0,square4,r,0.0755,3,N,2.0
NS2,79.0,66.0,44.0,32.0,47.0,47,4347.0,square4,r,0.063,3,N,2.0
NS2,80.0,65.0,41.0,30.0,45.0,45,4392.0,square4,r,0.0797,3,N,2.0
NS2,81.0,60.0,37.0,26.0,49.0,60,4452.0,square1,f,0.0528,0,N,2.0
NS2,82.0,68.0,38.0,28.0,46.0,68,4520.0,square1,f,0.0726,0,N,2.0
NS2,83.0,63.0,42.0,30.0,49.0,63,4583.0,square1,f,0.5018,0,N,2.0
NS2,84.0,71.0,41.0,37.0,51.0,71,4654.0,square1,f,0.3174,0,N,2.0
NS2,85.0,63.0,47.0,29.0,40.0,63,4717.0,square1,f,0.0838,0,N,2.0
NS2,86.0,67.0,42.0,36.0,44.0,67,4784.0,square1,f,0.1513,0,N,2.0
NS2,87.0,62.0,45.0,31.0,41.0,62,4846.0,square1,f,0.168,0,N,2.0
NS2,88.0,63.0,39.0,32.0,44.0,63,4909.0,square1,f,0.251,0,N,2.0
NS2,89.0,66.0,39.0,37.0,39.0,66,4975.0,square1,f,0.1741,0,N,2.0
NS2,90.0,53.0,38.0,35.0,40.0,53,5028.0,square1,f,0.1832,0,N,2.0
NS2,91.0,57.0,39.0,38.0,43.0,57,5085.0,square1,f,0.1419,0,N,2.0
NS2,92.0,53.0,36.0,40.0,47.0,53,5138.0,square1,f,0.0013,0,N,2.0
NS2,93.0,47.0,39.0,43.0,38.0,47,5185.0,square1,f,0.1372,0,N,2.0
NS2,94.0,45.0,33.0,46.0,40.0,46,5231.0,square3,j,0.0168,2,N,2.0
NS2,95.0,49.0,38.0,53.0,36.0,53,5284.0,square3,j,0.1681,2,N,2.0
NS2,96.0,50.0,39.0,46.0,34.0,46,5330.0,square3,j,0.2678,2,N,2.0
NS2,97.0,57.0,37.0,44.0,41.0,44,5374.0,square3,j,0.0837,2,N,2.0
NS2,98.0,55.0,43.0,39.0,43.0,39,5413.0,square3,j,0.2286,2,N,2.0
NS2,99.0,56.0,46.0,41.0,41.0,41,5454.0,square3,j,0.1123,2,N,2.0
V7,0.0,86.0,61.0,78.0,68.0,99999,0.0,invalid,,,-1,V,7.0
V7,1.0,95.0,62.0,79.0,70.0,62,62.0,square2,j,0.4102,1,V,7.0
V7,2.0,89.0,67.0,81.0,77.0,67,129.0,square2,j,0.3346,1,V,7.0
V7,3.0,90.0,56.0,85.0,72.0,56,185.0,square2,j,0.2252,1,V,7.0
V7,4.0,91.0,65.0,77.0,71.0,91,276.0,square1,i,0.3211,0,V,7.0
V7,5.0,91.0,58.0,84.0,72.0,84,360.0,square3,r,0.151,2,V,7.0
V7,6.0,94.0,65.0,87.0,72.0,72,432.0,square4,f,0.0722,3,V,7.0
V7,7.0,89.0,67.0,79.0,67.0,89,521.0,square1,i,0.1916,0,V,7.0
V7,8.0,91.0,65.0,84.0,68.0,91,612.0,square1,i,0.3169,0,V,7.0
V7,9.0,92.0,60.0,87.0,69.0,92,704.0,square1,i,0.1514,0,V,7.0
V7,10.0,90.0,67.0,81.0,76.0,90,794.0,square1,i,0.1016,0,V,7.0
V7,11.0,86.0,67.0,83.0,73.0,86,880.0,square1,i,0.3073,0,V,7.0
V7,12.0,90.0,62.0,80.0,72.0,90,970.0,square1,i,0.081,0,V,7.0
V7,13.0,84.0,60.0,88.0,71.0,84,1054.0,square1,i,0.1266,0,V,7.0
V7,14.0,95.0,64.0,80.0,70.0,95,1149.0,square1,i,0.2047,0,V,7.0
V7,15.0,86.0,60.0,81.0,70.0,86,1235.0,square1,i,0.0013,0,V,7.0
V7,16.0,85.0,65.0,77.0,69.0,85,1320.0,square1,i,0.0687,0,V,7.0
V7,17.0,91.0,65.0,81.0,70.0,91,1411.0,square1,i,0.3951,0,V,7.0
V7,18.0,95.0,61.0,81.0,76.0,95,1506.0,square1,i,0.053,0,V,7.0
V7,19.0,90.0,58.0,79.0,72.0,90,1596.0,square1,i,0.326,0,V,7.0
V7,20.0,94.0,68.0,80.0,79.0,94,1690.0,square1,i,0.0423,0,V,7.0
V7,21.0,92.0,66.0,82.0,70.0,92,1782.0,square1,i,0.28,0,V,7.0
V7,22.0,92.0,64.0,83.0,72.0,92,1874.0,square1,i,0.0834,0,V,7.0
V7,23.0,91.0,68.0,82.0,73.0,91,1965.0,square1,i,0.3673,0,V,7.0
V7,24.0,87.0,71.0,82.0,72.0,87,2052.0,square1,i,0.068,0,V,7.0
V7,25.0,91.0,68.0,90.0,74.0,91,2143.0,square1,i,0.2945,0,V,7.0
V7,26.0,89.0,65.0,83.0,72.0,89,2232.0,square1,i,0.2686,0,V,7.0
V7,27.0,91.0,61.0,81.0,73.0,91,2323.0,square1,i,0.3544,0,V,7.0
V7,28.0,90.0,66.0,81.0,72.0,90,2413.0,square1,i,0.1178,0,V,7.0
V7,29.0,89.0,67.0,77.0,71.0,89,2502.0,square1,i,0.2839,0,V,7.0
V7,30.0,95.0,68.0,84.0,71.0,95,2597.0,square1,i,0.2512,0,V,7.0
V7,31.0,95.0,61.0,81.0,70.0,95,2692.0,square1,i,0.2362,0,V,7.0
V7,32.0,89.0,65.0,82.0,75.0,89,2781.0,square1,i,0.1729,0,V,7.0
V7,33.0,77.0,50.0,80.0,61.0,77,2858.0,square1,i,0.3274,0,V,7.0
V7,34.0,76.0,54.0,78.0,61.0,76,2934.0,square1,i,0.0277,0,V,7.0
V7,35.0,71.0,51.0,80.0,64.0,71,3005.0,square1,i,0.1253,0,V,7.0
V7,36.0,75.0,51.0,80.0,62.0,62,3067.0,square4,f,0.167,3,V,7.0
V7,37.0,73.0,58.0,86.0,63.0,86,3153.0,square3,r,0.1607,2,V,7.0
V7,38.0,73.0,50.0,86.0,61.0,86,3239.0,square3,r,0.2594,2,V,7.0
V7,39.0,67.0,53.0,78.0,61.0,53,3292.0,square2,j,0.0838,1,V,7.0
V7,40.0,71.0,53.0,84.0,58.0,84,3376.0,square3,r,0.1877,2,V,7.0
V7,41.0,75.0,51.0,83.0,63.0,83,3459.0,square3,r,0.3283,2,V,7.0
V7,42.0,69.0,48.0,87.0,63.0,87,3546.0,square3,r,0.1641,2,V,7.0
V7,43.0,70.0,58.0,81.0,60.0,81,3627.0,square3,r,0.2366,2,V,7.0
V7,44.0,68.0,56.0,76.0,63.0,76,3703.0,square3,r,0.1297,2,V,7.0
V7,45.0,74.0,59.0,76.0,56.0,76,3779.0,square3,r,0.3163,2,V,7.0
V7,46.0,72.0,54.0,77.0,61.0,72,3851.0,square1,i,0.1653,0,V,7.0
V7,47.0,69.0,47.0,81.0,62.0,69,3920.0,square1,i,0.5393,0,V,7.0
V7,48.0,75.0,52.0,81.0,57.0,52,3972.0,square2,j,0.0971,1,V,7.0
V7,49.0,74.0,55.0,78.0,60.0,60,4032.0,square4,f,0.1679,3,V,7.0
V7,50.0,71.0,51.0,80.0,61.0,80,4112.0,square3,r,0.0301,2,V,7.0
V7,51.0,75.0,55.0,85.0,62.0,85,4197.0,square3,r,0.186,2,V,7.0
V7,52.0,75.0,59.0,76.0,59.0,76,4273.0,square3,r,0.0847,2,V,7.0
V7,53.0,72.0,53.0,84.0,66.0,84,4357.0,square3,r,0.3807,2,V,7.0
V7,54.0,69.0,51.0,81.0,60.0,81,4438.0,square3,r,0.4217,2,V,7.0
V7,55.0,74.0,56.0,75.0,54.0,75,4513.0,square3,r,0.3028,2,V,7.0
V7,56.0,76.0,51.0,83.0,58.0,83,4596.0,square3,r,0.2625,2,V,7.0
V7,57.0,71.0,53.0,80.0,64.0,80,4676.0,square3,r,0.3958,2,V,7.0
V7,58.0,81.0,56.0,79.0,61.0,79,4755.0,square3,r,0.2949,2,V,7.0
V7,59.0,71.0,55.0,83.0,59.0,59,4814.0,square4,f,0.2451,3,V,7.0
V7,60.0,73.0,53.0,83.0,64.0,53,4867.0,square2,j,0.3779,1,V,7.0
V7,61.0,70.0,53.0,77.0,63.0,70,4937.0,square1,i,0.0487,0,V,7.0
V7,62.0,71.0,54.0,76.0,61.0,71,5008.0,square1,i,0.1987,0,V,7.0
V7,63.0,68.0,45.0,79.0,65.0,79,5087.0,square3,r,0.0906,2,V,7.0
V7,64.0,65.0,55.0,79.0,59.0,79,5166.0,square3,r,0.3286,2,V,7.0
V7,65.0,74.0,54.0,81.0,61.0,81,5247.0,square3,r,0.1292,2,V,7.0
V7,66.0,70.0,56.0,81.0,63.0,81,5328.0,square3,r,0.0151,2,V,7.0
V7,67.0,70.0,85.0,64.0,92.0,64,5392.0,square3,r,0.045,2,V,7.0
V7,68.0,73.0,85.0,68.0,92.0,68,5460.0,square3,r,0.4622,2,V,7.0
V7,69.0,75.0,83.0,70.0,91.0,91,5551.0,square4,f,0.0654,3,V,7.0
V7,70.0,75.0,85.0,69.0,91.0,91,5642.0,square4,f,0.3065,3,V,7.0
V7,71.0,71.0,86.0,65.0,94.0,94,5736.0,square4,f,0.2692,3,V,7.0
V7,72.0,77.0,86.0,65.0,98.0,98,5834.0,square4,f,0.0636,3,V,7.0
V7,73.0,77.0,84.0,63.0,94.0,94,5928.0,square4,f,0.4005,3,V,7.0
V7,74.0,71.0,86.0,64.0,91.0,91,6019.0,square4,f,0.3283,3,V,7.0
V7,75.0,73.0,90.0,60.0,90.0,90,6109.0,square4,f,0.0857,3,V,7.0
V7,76.0,79.0,84.0,68.0,95.0,95,6204.0,square4,f,0.0953,3,V,7.0
V7,77.0,73.0,85.0,66.0,89.0,89,6293.0,square4,f,0.463,3,V,7.0
V7,78.0,75.0,82.0,67.0,91.0,91,6384.0,square4,f,0.1684,3,V,7.0
V7,79.0,72.0,85.0,60.0,90.0,90,6474.0,square4,f,0.2114,3,V,7.0
V7,80.0,73.0,83.0,66.0,97.0,97,6571.0,square4,f,0.0617,3,V,7.0
V7,81.0,73.0,84.0,67.0,92.0,92,6663.0,square4,f,0.3045,3,V,7.0
V7,82.0,69.0,84.0,65.0,91.0,91,6754.0,square4,f,0.2353,3,V,7.0
V7,83.0,76.0,83.0,72.0,99.0,99,6853.0,square4,f,0.3522,3,V,7.0
V7,84.0,72.0,84.0,70.0,94.0,94,6947.0,square4,f,0.2143,3,V,7.0
V7,85.0,77.0,83.0,67.0,88.0,88,7035.0,square4,f,0.2537,3,V,7.0
V7,86.0,76.0,80.0,67.0,90.0,90,7125.0,square4,f,0.2522,3,V,7.0
V7,87.0,70.0,86.0,67.0,95.0,95,7220.0,square4,f,0.0987,3,V,7.0
V7,88.0,76.0,84.0,67.0,100.0,100,7320.0,square4,f,0.3553,3,V,7.0
V7,89.0,71.0,88.0,60.0,97.0,97,7417.0,square4,f,0.1214,3,V,7.0
V7,90.0,69.0,82.0,71.0,95.0,95,7512.0,square4,f,0.2034,3,V,7.0
V7,91.0,80.0,84.0,65.0,92.0,92,7604.0,square4,f,0.0117,3,V,7.0
V7,92.0,77.0,85.0,68.0,85.0,85,7689.0,square4,f,0.2487,3,V,7.0
V7,93.0,72.0,84.0,66.0,91.0,91,7780.0,square4,f,0.2005,3,V,7.0
V7,94.0,69.0,83.0,66.0,95.0,95,7875.0,square4,f,0.0989,3,V,7.0
V7,95.0,70.0,86.0,75.0,91.0,91,7966.0,square4,f,0.3476,3,V,7.0
V7,96.0,74.0,85.0,66.0,88.0,88,8054.0,square4,f,0.0806,3,V,7.0
V7,97.0,77.0,82.0,73.0,91.0,91,8145.0,square4,f,0.1855,3,V,7.0
V7,98.0,76.0,91.0,62.0,94.0,94,8239.0,square4,f,0.0617,3,V,7.0
V7,99.0,74.0,84.0,67.0,88.0,88,8327.0,square4,f,0.0121,3,V,7.0
V10,0.0,28.0,21.0,37.0,46.0,46,46.0,square4,j,1.0667,3,V,10.0
V10,1.0,26.0,19.0,41.0,49.0,41,87.0,square3,i,0.0176,2,V,10.0
V10,2.0,29.0,20.0,43.0,48.0,20,107.0,square2,r,0.1173,1,V,10.0
V10,3.0,27.0,27.0,37.0,44.0,27,134.0,square1,f,0.0143,0,V,10.0
V10,4.0,28.0,16.0,36.0,47.0,47,181.0,square4,j,0.2336,3,V,10.0
V10,5.0,33.0,25.0,42.0,54.0,54,235.0,square4,j,0.1056,3,V,10.0
V10,6.0,28.0,19.0,35.0,45.0,35,270.0,square3,i,0.268,2,V,10.0
V10,7.0,30.0,24.0,35.0,49.0,49,319.0,square4,j,0.0685,3,V,10.0
V10,8.0,37.0,29.0,41.0,47.0,47,366.0,square4,j,0.1503,3,V,10.0
V10,9.0,28.0,21.0,41.0,48.0,48,414.0,square4,j,0.0339,3,V,10.0
V10,10.0,27.0,22.0,39.0,42.0,42,456.0,square4,j,0.3053,3,V,10.0
V10,11.0,32.0,16.0,41.0,48.0,48,504.0,square4,j,0.2173,3,V,10.0
V10,12.0,34.0,15.0,33.0,49.0,49,553.0,square4,j,0.1674,3,V,10.0
V10,13.0,36.0,19.0,41.0,45.0,45,598.0,square4,j,0.4337,3,V,10.0
V10,14.0,28.0,23.0,35.0,53.0,53,651.0,square4,j,0.7533,3,V,10.0
V10,15.0,26.0,28.0,40.0,50.0,50,701.0,square4,j,0.317,3,V,10.0
V10,16.0,30.0,25.0,42.0,47.0,42,743.0,square3,i,0.0842,2,V,10.0
V10,17.0,31.0,19.0,38.0,50.0,31,774.0,square1,f,0.3397,0,V,10.0
V10,18.0,34.0,21.0,35.0,48.0,21,795.0,square2,r,0.1874,1,V,10.0
V10,19.0,31.0,24.0,39.0,46.0,46,841.0,square4,j,0.1011,3,V,10.0
V10,20.0,28.0,22.0,42.0,47.0,47,888.0,square4,j,0.2669,3,V,10.0
V10,21.0,24.0,20.0,41.0,47.0,47,935.0,square4,j,0.2843,3,V,10.0
V10,22.0,32.0,22.0,34.0,44.0,44,979.0,square4,j,0.3219,3,V,10.0
V10,23.0,29.0,23.0,37.0,47.0,47,1026.0,square4,j,0.1675,3,V,10.0
V10,24.0,25.0,25.0,38.0,46.0,46,1072.0,square4,j,0.1472,3,V,10.0
V10,25.0,30.0,24.0,41.0,45.0,45,1117.0,square4,j,0.3345,3,V,10.0
V10,26.0,32.0,17.0,38.0,49.0,49,1166.0,square4,j,0.3722,3,V,10.0
V10,27.0,34.0,21.0,38.0,47.0,47,1213.0,square4,j,0.3538,3,V,10.0
V10,28.0,29.0,21.0,37.0,45.0,45,1258.0,square4,j,0.3012,3,V,10.0
V10,29.0,30.0,20.0,31.0,47.0,31,1289.0,square3,i,0.3456,2,V,10.0
V10,30.0,28.0,21.0,35.0,44.0,28,1317.0,square1,f,0.3711,0,V,10.0
V10,31.0,36.0,25.0,14.0,8.0,25,1342.0,square2,r,0.1797,1,V,10.0
V10,32.0,38.0,27.0,19.0,11.0,11,1353.0,square4,j,0.1885,3,V,10.0
V10,33.0,39.0,21.0,20.0,13.0,13,1366.0,square4,j,0.3839,3,V,10.0
V10,34.0,34.0,24.0,20.0,10.0,20,1386.0,square3,i,0.1452,2,V,10.0
V10,35.0,44.0,29.0,17.0,11.0,44,1430.0,square1,f,0.5212,0,V,10.0
V10,36.0,33.0,30.0,17.0,9.0,30,1460.0,square2,r,0.3883,1,V,10.0
V10,37.0,31.0,27.0,12.0,6.0,31,1491.0,square1,f,0.3208,0,V,10.0
V10,38.0,34.0,29.0,15.0,10.0,34,1525.0,square1,f,0.3006,0,V,10.0
V10,39.0,35.0,21.0,19.0,5.0,35,1560.0,square1,f,0.2279,0,V,10.0
V10,40.0,32.0,26.0,18.0,6.0,32,1592.0,square1,f,0.4042,0,V,10.0
V10,41.0,34.0,32.0,13.0,9.0,34,1626.0,square1,f,0.2007,0,V,10.0
V10,42.0,35.0,30.0,16.0,8.0,35,1661.0,square1,f,0.2177,0,V,10.0
V10,43.0,38.0,32.0,16.0,8.0,38,1699.0,square1,f,0.2835,0,V,10.0
V10,44.0,34.0,20.0,18.0,3.0,20,1719.0,square2,r,0.2173,1,V,10.0
V10,45.0,38.0,22.0,23.0,9.0,23,1742.0,square3,i,0.1511,2,V,10.0
V10,46.0,36.0,28.0,16.0,10.0,10,1752.0,square4,j,0.0044,3,V,10.0
V10,47.0,36.0,27.0,13.0,8.0,36,1788.0,square1,f,0.3852,0,V,10.0
V10,48.0,35.0,27.0,14.0,12.0,35,1823.0,square1,f,0.3905,0,V,10.0
V10,49.0,33.0,28.0,16.0,10.0,33,1856.0,square1,f,0.0011,0,V,10.0
V10,50.0,31.0,29.0,19.0,8.0,31,1887.0,square1,f,0.7111,0,V,10.0
V10,51.0,32.0,21.0,20.0,12.0,32,1919.0,square1,f,0.2894,0,V,10.0
V10,52.0,29.0,25.0,21.0,10.0,29,1948.0,square1,f,0.2012,0,V,10.0
V10,53.0,39.0,29.0,23.0,2.0,39,1987.0,square1,f,0.2676,0,V,10.0
V10,54.0,33.0,28.0,19.0,7.0,33,2020.0,square1,f,0.2669,0,V,10.0
V10,55.0,34.0,24.0,15.0,8.0,34,2054.0,square1,f,0.0743,0,V,10.0
V10,56.0,35.0,20.0,21.0,9.0,35,2089.0,square1,f,0.3508,0,V,10.0
V10,57.0,33.0,27.0,19.0,7.0,33,2122.0,square1,f,0.4173,0,V,10.0
V10,58.0,38.0,24.0,16.0,7.0,38,2160.0,square1,f,0.1515,0,V,10.0
V10,59.0,34.0,29.0,15.0,5.0,34,2194.0,square1,f,0.3479,0,V,10.0
V10,60.0,34.0,22.0,19.0,9.0,34,2228.0,square1,f,0.4274,0,V,10.0
V10,61.0,39.0,31.0,20.0,10.0,39,2267.0,square1,f,0.4259,0,V,10.0
V10,62.0,35.0,24.0,18.0,6.0,35,2302.0,square1,f,0.0757,0,V,10.0
V10,63.0,35.0,26.0,18.0,9.0,35,2337.0,square1,f,0.5175,0,V,10.0
V10,64.0,31.0,55.0,23.0,23.0,31,2368.0,square1,f,0.3347,0,V,10.0
V10,65.0,35.0,50.0,22.0,27.0,35,2403.0,square1,f,0.3162,0,V,10.0
V10,66.0,35.0,53.0,25.0,29.0,35,2438.0,square1,f,0.2534,0,V,10.0
V10,67.0,38.0,44.0,17.0,29.0,38,2476.0,square1,f,0.2344,0,V,10.0
V10,68.0,36.0,48.0,22.0,27.0,36,2512.0,square1,f,0.0843,0,V,10.0
V10,69.0,41.0,53.0,17.0,28.0,41,2553.0,square1,f,0.2349,0,V,10.0
V10,70.0,40.0,48.0,23.0,28.0,40,2593.0,square1,f,0.1402,0,V,10.0
V10,71.0,39.0,43.0,24.0,20.0,39,2632.0,square1,f,0.3965,0,V,10.0
V10,72.0,36.0,49.0,19.0,25.0,25,2657.0,square4,j,0.3754,3,V,10.0
V10,73.0,39.0,49.0,23.0,32.0,23,2680.0,square3,i,0.2053,2,V,10.0
V10,74.0,36.0,44.0,17.0,29.0,44,2724.0,square2,r,0.1509,1,V,10.0
V10,75.0,37.0,46.0,20.0,30.0,46,2770.0,square2,r,0.5937,1,V,10.0
V10,76.0,38.0,47.0,23.0,30.0,47,2817.0,square2,r,0.4674,1,V,10.0
V10,77.0,36.0,49.0,22.0,32.0,49,2866.0,square2,r,0.1679,1,V,10.0
V10,78.0,41.0,44.0,19.0,27.0,44,2910.0,square2,r,0.3902,1,V,10.0
V10,79.0,41.0,48.0,22.0,27.0,48,2958.0,square2,r,0.1848,1,V,10.0
V10,80.0,34.0,44.0,26.0,29.0,44,3002.0,square2,r,0.2033,1,V,10.0
V10,81.0,38.0,47.0,18.0,29.0,47,3049.0,square2,r,0.1356,1,V,10.0
V10,82.0,43.0,43.0,23.0,28.0,43,3092.0,square2,r,0.2338,1,V,10.0
V10,83.0,34.0,51.0,23.0,26.0,34,3126.0,square1,f,0.2011,0,V,10.0
V10,84.0,36.0,46.0,18.0,25.0,46,3172.0,square2,r,0.0013,1,V,10.0
V10,85.0,39.0,46.0,25.0,26.0,46,3218.0,square2,r,0.2842,1,V,10.0
V10,86.0,39.0,50.0,27.0,27.0,50,3268.0,square2,r,0.0223,1,V,10.0
V10,87.0,38.0,46.0,20.0,30.0,46,3314.0,square2,r,0.0571,1,V,10.0
V10,88.0,37.0,49.0,22.0,28.0,49,3363.0,square2,r,0.3631,1,V,10.0
V10,89.0,34.0,51.0,25.0,26.0,51,3414.0,square2,r,0.1008,1,V,10.0
V10,90.0,41.0,49.0,22.0,29.0,49,3463.0,square2,r,0.1747,1,V,10.0
V10,91.0,37.0,45.0,26.0,32.0,45,3508.0,square2,r,0.1336,1,V,10.0
V10,92.0,42.0,42.0,27.0,28.0,42,3550.0,square2,r,0.0895,1,V,10.0
V10,93.0,41.0,48.0,19.0,36.0,48,3598.0,square2,r,0.1214,1,V,10.0
V10,94.0,43.0,49.0,23.0,31.0,49,3647.0,square2,r,0.1013,1,V,10.0
V10,95.0,39.0,46.0,18.0,27.0,46,3693.0,square2,r,0.1166,1,V,10.0
V10,96.0,37.0,48.0,24.0,27.0,48,3741.0,square2,r,0.451,1,V,10.0
V10,97.0,42.0,50.0,23.0,31.0,50,3791.0,square2,r,0.2332,1,V,10.0
V10,98.0,33.0,47.0,25.0,32.0,47,3838.0,square2,r,0.0672,1,V,10.0
V10,99.0,39.0,48.0,23.0,32.0,48,3886.0,square2,r,0.2342,1,V,10.0
V8,0.0,49.0,55.0,64.0,74.0,64,64.0,square3,j,0.9149,2,V,8.0
V8,1.0,51.0,54.0,70.0,81.0,51,115.0,square1,i,0.1022,0,V,8.0
V8,2.0,46.0,62.0,70.0,77.0,77,192.0,square4,r,0.164,3,V,8.0
V8,3.0,46.0,56.0,67.0,75.0,56,248.0,square2,f,0.1171,1,V,8.0
V8,4.0,50.0,59.0,67.0,83.0,83,331.0,square4,r,0.0707,3,V,8.0
V8,5.0,51.0,54.0,65.0,78.0,78,409.0,square4,r,0.4843,3,V,8.0
V8,6.0,45.0,57.0,66.0,80.0,80,489.0,square4,r,0.8341,3,V,8.0
V8,7.0,46.0,64.0,68.0,77.0,77,566.0,square4,r,0.2708,3,V,8.0
V8,8.0,50.0,57.0,66.0,73.0,73,639.0,square4,r,0.042,3,V,8.0
V8,9.0,46.0,56.0,71.0,72.0,56,695.0,square2,f,0.3239,1,V,8.0
V8,10.0,56.0,58.0,67.0,75.0,67,762.0,square3,j,0.1084,2,V,8.0
V8,11.0,50.0,61.0,69.0,74.0,50,812.0,square1,i,0.0846,0,V,8.0
V8,12.0,59.0,59.0,69.0,77.0,77,889.0,square4,r,0.1342,3,V,8.0
V8,13.0,50.0,56.0,72.0,77.0,77,966.0,square4,r,0.3508,3,V,8.0
V8,14.0,48.0,55.0,65.0,80.0,80,1046.0,square4,r,0.1511,3,V,8.0
V8,15.0,48.0,58.0,65.0,76.0,76,1122.0,square4,r,0.1852,3,V,8.0
V8,16.0,49.0,58.0,67.0,75.0,75,1197.0,square4,r,0.2573,3,V,8.0
V8,17.0,51.0,56.0,68.0,76.0,76,1273.0,square4,r,0.0508,3,V,8.0
V8,18.0,52.0,63.0,69.0,80.0,80,1353.0,square4,r,0.317,3,V,8.0
V8,19.0,54.0,54.0,71.0,79.0,79,1432.0,square4,r,0.1884,3,V,8.0
V8,20.0,48.0,53.0,62.0,77.0,77,1509.0,square4,r,0.3381,3,V,8.0
V8,21.0,44.0,61.0,66.0,77.0,77,1586.0,square4,r,0.2746,3,V,8.0
V8,22.0,52.0,58.0,64.0,78.0,78,1664.0,square4,r,0.4681,3,V,8.0
V8,23.0,50.0,49.0,67.0,79.0,79,1743.0,square4,r,0.2345,3,V,8.0
V8,24.0,49.0,59.0,69.0,74.0,74,1817.0,square4,r,0.468,3,V,8.0
V8,25.0,46.0,61.0,65.0,81.0,81,1898.0,square4,r,0.3843,3,V,8.0
V8,26.0,49.0,58.0,63.0,35.0,35,1933.0,square4,r,0.352,3,V,8.0
V8,27.0,48.0,51.0,66.0,41.0,51,1984.0,square2,f,0.344,1,V,8.0
V8,28.0,46.0,55.0,65.0,38.0,65,2049.0,square3,j,0.2555,2,V,8.0
V8,29.0,47.0,58.0,69.0,40.0,47,2096.0,square1,i,0.0617,0,V,8.0
V8,30.0,42.0,55.0,67.0,43.0,67,2163.0,square3,j,0.0882,2,V,8.0
V8,31.0,49.0,56.0,64.0,36.0,64,2227.0,square3,j,0.3844,2,V,8.0
V8,32.0,49.0,55.0,69.0,38.0,69,2296.0,square3,j,0.1679,2,V,8.0
V8,33.0,44.0,52.0,65.0,48.0,65,2361.0,square3,j,0.4009,2,V,8.0
V8,34.0,44.0,57.0,70.0,45.0,70,2431.0,square3,j,0.3176,2,V,8.0
V8,35.0,44.0,54.0,68.0,38.0,68,2499.0,square3,j,0.1842,2,V,8.0
V8,36.0,45.0,56.0,64.0,40.0,64,2563.0,square3,j,0.0675,2,V,8.0
V8,37.0,47.0,57.0,66.0,37.0,66,2629.0,square3,j,0.1347,2,V,8.0
V8,38.0,49.0,50.0,66.0,37.0,66,2695.0,square3,j,0.1687,2,V,8.0
V8,39.0,51.0,56.0,61.0,39.0,61,2756.0,square3,j,0.1344,2,V,8.0
V8,40.0,47.0,59.0,66.0,41.0,47,2803.0,square1,i,0.0553,0,V,8.0
V8,41.0,42.0,56.0,69.0,42.0,56,2859.0,square2,f,0.0011,1,V,8.0
V8,42.0,47.0,57.0,72.0,35.0,35,2894.0,square4,r,0.184,3,V,8.0
V8,43.0,47.0,57.0,63.0,44.0,63,2957.0,square3,j,0.0508,2,V,8.0
V8,44.0,45.0,58.0,67.0,42.0,67,3024.0,square3,j,0.2207,2,V,8.0
V8,45.0,44.0,56.0,66.0,43.0,66,3090.0,square3,j,0.101,2,V,8.0
V8,46.0,46.0,53.0,70.0,37.0,70,3160.0,square3,j,0.0675,2,V,8.0
V8,47.0,54.0,53.0,71.0,41.0,71,3231.0,square3,j,0.0343,2,V,8.0
V8,48.0,49.0,53.0,69.0,37.0,69,3300.0,square3,j,0.022,2,V,8.0
V8,49.0,39.0,57.0,65.0,47.0,65,3365.0,square3,j,0.384,2,V,8.0
V8,50.0,48.0,55.0,65.0,41.0,65,3430.0,square3,j,0.0679,2,V,8.0
V8,51.0,45.0,61.0,68.0,43.0,68,3498.0,square3,j,0.1677,2,V,8.0
V8,52.0,53.0,52.0,68.0,37.0,68,3566.0,square3,j,0.1923,2,V,8.0
V8,53.0,47.0,55.0,66.0,46.0,66,3632.0,square3,j,0.1837,2,V,8.0
V8,54.0,49.0,53.0,61.0,39.0,61,3693.0,square3,j,0.0352,2,V,8.0
V8,55.0,53.0,70.0,55.0,72.0,55,3748.0,square3,j,0.0172,2,V,8.0
V8,56.0,57.0,63.0,48.0,73.0,48,3796.0,square3,j,0.4341,2,V,8.0
V8,57.0,53.0,71.0,45.0,80.0,71,3867.0,square2,f,0.3675,1,V,8.0
V8,58.0,57.0,69.0,52.0,73.0,73,3940.0,square4,r,0.1341,3,V,8.0
V8,59.0,58.0,67.0,54.0,73.0,58,3998.0,square1,i,0.6173,0,V,8.0
V8,60.0,55.0,66.0,47.0,76.0,76,4074.0,square4,r,0.0672,3,V,8.0
V8,61.0,56.0,65.0,54.0,72.0,65,4139.0,square2,f,0.1373,1,V,8.0
V8,62.0,56.0,65.0,49.0,75.0,75,4214.0,square4,r,0.2007,3,V,8.0
V8,63.0,61.0,65.0,44.0,78.0,78,4292.0,square4,r,0.3175,3,V,8.0
V8,64.0,54.0,66.0,48.0,75.0,75,4367.0,square4,r,0.2414,3,V,8.0
V8,65.0,59.0,65.0,46.0,79.0,79,4446.0,square4,r,0.3174,3,V,8.0
V8,66.0,51.0,62.0,46.0,73.0,73,4519.0,square4,r,0.0952,3,V,8.0
V8,67.0,60.0,70.0,45.0,76.0,76,4595.0,square4,r,0.0838,3,V,8.0
V8,68.0,63.0,64.0,47.0,73.0,73,4668.0,square4,r,0.131,3,V,8.0
V8,69.0,58.0,66.0,43.0,77.0,77,4745.0,square4,r,0.2722,3,V,8.0
V8,70.0,59.0,65.0,49.0,73.0,73,4818.0,square4,r,0.4746,3,V,8.0
V8,71.0,60.0,64.0,49.0,79.0,79,4897.0,square4,r,0.1348,3,V,8.0
V8,72.0,96.0,68.0,78.0,67.0,67,4964.0,square4,r,0.034,3,V,8.0
V8,73.0,96.0,68.0,79.0,64.0,64,5028.0,square4,r,0.2673,3,V,8.0
V8,74.0,92.0,67.0,81.0,62.0,67,5095.0,square2,f,0.0674,1,V,8.0
V8,75.0,96.0,72.0,83.0,62.0,72,5167.0,square2,f,0.284,1,V,8.0
V8,76.0,94.0,70.0,77.0,57.0,70,5237.0,square2,f,0.2359,1,V,8.0
V8,77.0,91.0,68.0,81.0,59.0,68,5305.0,square2,f,0.0012,1,V,8.0
V8,78.0,90.0,73.0,80.0,63.0,73,5378.0,square2,f,0.3007,1,V,8.0
V8,79.0,90.0,73.0,83.0,61.0,73,5451.0,square2,f,0.2514,1,V,8.0
V8,80.0,95.0,75.0,81.0,66.0,66,5517.0,square4,r,0.2174,3,V,8.0
V8,81.0,92.0,72.0,81.0,57.0,72,5589.0,square2,f,0.1173,1,V,8.0
V8,82.0,91.0,71.0,80.0,61.0,71,5660.0,square2,f,0.2213,1,V,8.0
V8,83.0,90.0,66.0,83.0,62.0,90,5750.0,square1,i,0.3012,0,V,8.0
V8,84.0,93.0,67.0,87.0,65.0,93,5843.0,square1,i,0.3683,0,V,8.0
V8,85.0,85.0,70.0,80.0,62.0,85,5928.0,square1,i,0.2349,0,V,8.0
V8,86.0,84.0,72.0,85.0,62.0,84,6012.0,square1,i,0.322,0,V,8.0
V8,87.0,91.0,68.0,82.0,65.0,91,6103.0,square1,i,0.285,0,V,8.0
V8,88.0,93.0,67.0,83.0,61.0,93,6196.0,square1,i,0.3301,0,V,8.0
V8,89.0,95.0,68.0,78.0,66.0,95,6291.0,square1,i,0.118,0,V,8.0
V8,90.0,91.0,73.0,80.0,60.0,91,6382.0,square1,i,0.1173,0,V,8.0
V8,91.0,93.0,68.0,81.0,64.0,93,6475.0,square1,i,0.0011,0,V,8.0
V8,92.0,90.0,75.0,82.0,67.0,90,6565.0,square1,i,0.0011,0,V,8.0
V8,93.0,92.0,70.0,82.0,66.0,92,6657.0,square1,i,0.3846,0,V,8.0
V8,94.0,90.0,71.0,78.0,63.0,90,6747.0,square1,i,0.085,0,V,8.0
V8,95.0,88.0,65.0,78.0,63.0,88,6835.0,square1,i,0.1341,0,V,8.0
V8,96.0,89.0,72.0,85.0,62.0,89,6924.0,square1,i,0.254,0,V,8.0
V8,97.0,92.0,72.0,77.0,67.0,77,7001.0,square3,j,0.243,2,V,8.0
V8,98.0,86.0,63.0,82.0,62.0,86,7087.0,square1,i,0.0686,0,V,8.0
V8,99.0,90.0,66.0,75.0,61.0,90,7177.0,square1,i,0.371,0,V,8.0
