block,Trial,square1,square2,square3,square4,currPoints,totalPoints,square,choiceKey.keys,choiceKey.rt,armNum,blockType,blockNum
prac,0.0,100.0,0.0,0.0,0.0,99999,0.0,invalid,,,-1,p,0.0
prac,1.0,100.0,0.0,0.0,0.0,99999,0.0,invalid,,,-1,p,0.0
prac,2.0,100.0,0.0,0.0,0.0,99999,0.0,invalid,,,-1,p,0.0
prac,3.0,100.0,0.0,0.0,0.0,99999,0.0,invalid,,,-1,p,0.0
prac,4.0,100.0,0.0,0.0,0.0,99999,0.0,invalid,,,-1,p,0.0
prac,5.0,100.0,0.0,0.0,0.0,99999,0.0,invalid,,,-1,p,0.0
prac,6.0,100.0,0.0,0.0,0.0,99999,0.0,invalid,,,-1,p,0.0
prac,7.0,100.0,0.0,0.0,0.0,99999,0.0,invalid,,,-1,p,0.0
prac,8.0,100.0,0.0,0.0,0.0,99999,0.0,invalid,,,-1,p,0.0
prac,9.0,100.0,0.0,0.0,0.0,99999,0.0,invalid,,,-1,p,0.0
V12,0.0,47.0,30.0,38.0,55.0,55,55.0,square4,r,0.607,3,V,12.0
V12,1.0,46.0,33.0,39.0,57.0,39,94.0,square3,i,0.0014,2,V,12.0
V12,2.0,51.0,29.0,42.0,52.0,51,145.0,square1,f,0.3806,0,V,12.0
V12,3.0,52.0,30.0,38.0,62.0,30,175.0,square2,j,0.2497,1,V,12.0
V12,4.0,48.0,30.0,39.0,62.0,62,237.0,square4,r,0.2976,3,V,12.0
V12,5.0,55.0,34.0,43.0,61.0,43,280.0,square3,i,0.2994,2,V,12.0
V12,6.0,45.0,35.0,42.0,56.0,45,325.0,square1,f,0.8341,0,V,12.0
V12,7.0,48.0,29.0,35.0,57.0,29,354.0,square2,j,0.3328,1,V,12.0
V12,8.0,46.0,33.0,38.0,59.0,59,413.0,square4,r,0.3815,3,V,12.0
V12,9.0,44.0,31.0,42.0,56.0,42,455.0,square3,i,0.4487,2,V,12.0
V12,10.0,48.0,34.0,45.0,55.0,48,503.0,square1,f,0.4149,0,V,12.0
V12,11.0,45.0,32.0,41.0,55.0,32,535.0,square2,j,0.1347,1,V,12.0
V12,12.0,52.0,26.0,42.0,57.0,57,592.0,square4,r,0.1627,3,V,12.0
V12,13.0,56.0,31.0,41.0,54.0,54,646.0,square4,r,0.3347,3,V,12.0
V12,14.0,44.0,34.0,40.0,64.0,64,710.0,square4,r,0.066,3,V,12.0
V12,15.0,48.0,32.0,39.0,61.0,61,771.0,square4,r,0.269,3,V,12.0
V12,16.0,49.0,33.0,37.0,58.0,58,829.0,square4,r,0.2509,3,V,12.0
V12,17.0,45.0,33.0,43.0,57.0,57,886.0,square4,r,0.0067,3,V,12.0
V12,18.0,45.0,28.0,40.0,58.0,58,944.0,square4,r,0.5678,3,V,12.0
V12,19.0,42.0,33.0,43.0,59.0,59,1003.0,square4,r,0.169,3,V,12.0
V12,20.0,46.0,30.0,38.0,62.0,62,1065.0,square4,r,0.2665,3,V,12.0
V12,21.0,46.0,35.0,40.0,55.0,40,1105.0,square3,i,0.6012,2,V,12.0
V12,22.0,46.0,34.0,36.0,63.0,63,1168.0,square4,r,0.1689,3,V,12.0
V12,23.0,54.0,34.0,42.0,56.0,56,1224.0,square4,r,0.299,3,V,12.0
V12,24.0,44.0,30.0,41.0,59.0,59,1283.0,square4,r,0.8701,3,V,12.0
V12,25.0,49.0,33.0,37.0,64.0,64,1347.0,square4,r,0.0667,3,V,12.0
V12,26.0,52.0,34.0,39.0,57.0,57,1404.0,square4,r,0.5502,3,V,12.0
V12,27.0,50.0,26.0,37.0,55.0,55,1459.0,square4,r,0.3825,3,V,12.0
V12,28.0,41.0,29.0,46.0,21.0,21,1480.0,square4,r,0.1311,3,V,12.0
V12,29.0,41.0,28.0,51.0,20.0,20,1500.0,square4,r,0.1666,3,V,12.0
V12,30.0,32.0,31.0,46.0,22.0,22,1522.0,square4,r,0.2867,3,V,12.0
V12,31.0,38.0,28.0,45.0,22.0,38,1560.0,square1,f,0.5988,0,V,12.0
V12,32.0,35.0,27.0,44.0,16.0,27,1587.0,square2,j,0.3821,1,V,12.0
V12,33.0,39.0,29.0,49.0,21.0,21,1608.0,square4,r,0.3162,3,V,12.0
V12,34.0,39.0,28.0,49.0,15.0,15,1623.0,square4,r,0.3321,3,V,12.0
V12,35.0,36.0,29.0,50.0,17.0,50,1673.0,square3,i,0.298,2,V,12.0
V12,36.0,41.0,28.0,48.0,12.0,48,1721.0,square3,i,0.3152,2,V,12.0
V12,37.0,34.0,29.0,46.0,25.0,46,1767.0,square3,i,0.1995,2,V,12.0
V12,38.0,38.0,28.0,51.0,19.0,51,1818.0,square3,i,0.3501,2,V,12.0
V12,39.0,39.0,31.0,45.0,13.0,45,1863.0,square3,i,0.2579,2,V,12.0
V12,40.0,35.0,28.0,46.0,26.0,46,1909.0,square3,i,0.3166,2,V,12.0
V12,41.0,38.0,27.0,46.0,20.0,46,1955.0,square3,i,0.2674,2,V,12.0
V12,42.0,40.0,26.0,50.0,23.0,50,2005.0,square3,i,0.2001,2,V,12.0
V12,43.0,33.0,30.0,45.0,18.0,45,2050.0,square3,i,0.2551,2,V,12.0
V12,44.0,39.0,31.0,46.0,22.0,46,2096.0,square3,i,0.2833,2,V,12.0
V12,45.0,32.0,26.0,42.0,20.0,42,2138.0,square3,i,0.4166,2,V,12.0
V12,46.0,36.0,29.0,43.0,24.0,43,2181.0,square3,i,0.3555,2,V,12.0
V12,47.0,37.0,30.0,46.0,21.0,37,2218.0,square1,f,0.6655,0,V,12.0
V12,48.0,37.0,27.0,44.0,19.0,44,2262.0,square3,i,0.0016,2,V,12.0
V12,49.0,36.0,33.0,55.0,16.0,55,2317.0,square3,i,0.1525,2,V,12.0
V12,50.0,45.0,28.0,44.0,18.0,28,2345.0,square2,j,0.7337,1,V,12.0
V12,51.0,35.0,32.0,49.0,19.0,49,2394.0,square3,i,0.152,2,V,12.0
V12,52.0,36.0,56.0,31.0,52.0,31,2425.0,square3,i,0.3169,2,V,12.0
V12,53.0,36.0,57.0,29.0,45.0,29,2454.0,square3,i,0.318,2,V,12.0
V12,54.0,38.0,61.0,28.0,51.0,38,2492.0,square1,f,0.3492,0,V,12.0
V12,55.0,35.0,60.0,29.0,47.0,47,2539.0,square4,r,0.0157,3,V,12.0
V12,56.0,34.0,62.0,29.0,46.0,46,2585.0,square4,r,0.2678,3,V,12.0
V12,57.0,43.0,57.0,32.0,46.0,46,2631.0,square4,r,0.1345,3,V,12.0
V12,58.0,40.0,59.0,32.0,50.0,50,2681.0,square4,r,0.2984,3,V,12.0
V12,59.0,41.0,62.0,33.0,48.0,48,2729.0,square4,r,0.3216,3,V,12.0
V12,60.0,36.0,61.0,32.0,49.0,49,2778.0,square4,r,0.2677,3,V,12.0
V12,61.0,39.0,56.0,32.0,44.0,44,2822.0,square4,r,0.0344,3,V,12.0
V12,62.0,39.0,57.0,30.0,46.0,46,2868.0,square4,r,0.0319,3,V,12.0
V12,63.0,42.0,53.0,29.0,46.0,46,2914.0,square4,r,1.0516,3,V,12.0
V12,64.0,35.0,57.0,32.0,50.0,50,2964.0,square4,r,0.283,3,V,12.0
V12,65.0,44.0,58.0,32.0,49.0,49,3013.0,square4,r,0.1999,3,V,12.0
V12,66.0,44.0,56.0,29.0,52.0,52,3065.0,square4,r,0.0134,3,V,12.0
V12,67.0,41.0,60.0,30.0,49.0,49,3114.0,square4,r,0.1339,3,V,12.0
V12,68.0,42.0,58.0,32.0,45.0,58,3172.0,square2,j,0.0513,1,V,12.0
V12,69.0,36.0,60.0,33.0,50.0,50,3222.0,square4,r,0.0814,3,V,12.0
V12,70.0,36.0,57.0,27.0,46.0,27,3249.0,square3,i,0.0327,2,V,12.0
V12,71.0,41.0,59.0,32.0,48.0,41,3290.0,square1,f,0.0675,0,V,12.0
V12,72.0,34.0,59.0,31.0,49.0,49,3339.0,square4,r,0.0369,3,V,12.0
V12,73.0,71.0,53.0,65.0,49.0,49,3388.0,square4,r,0.7501,3,V,12.0
V12,74.0,69.0,49.0,63.0,45.0,45,3433.0,square4,r,0.0879,3,V,12.0
V12,75.0,72.0,51.0,56.0,46.0,46,3479.0,square4,r,0.0077,3,V,12.0
V12,76.0,72.0,48.0,58.0,43.0,43,3522.0,square4,r,0.0328,3,V,12.0
V12,77.0,74.0,57.0,59.0,44.0,44,3566.0,square4,r,0.9843,3,V,12.0
V12,78.0,69.0,55.0,63.0,50.0,50,3616.0,square4,r,0.7509,3,V,12.0
V12,79.0,73.0,53.0,58.0,43.0,43,3659.0,square4,r,0.022,3,V,12.0
V12,80.0,71.0,47.0,65.0,40.0,40,3699.0,square4,r,0.4687,3,V,12.0
V12,81.0,66.0,49.0,57.0,40.0,40,3739.0,square4,r,0.7341,3,V,12.0
V12,82.0,71.0,53.0,57.0,48.0,48,3787.0,square4,r,0.3671,3,V,12.0
V12,83.0,70.0,50.0,56.0,49.0,49,3836.0,square4,r,0.3005,3,V,12.0
V12,84.0,69.0,45.0,64.0,43.0,43,3879.0,square4,r,0.0546,3,V,12.0
V12,85.0,64.0,48.0,54.0,42.0,42,3921.0,square4,r,0.706,3,V,12.0
V12,86.0,71.0,49.0,63.0,44.0,44,3965.0,square4,r,0.1668,3,V,12.0
V12,87.0,72.0,52.0,55.0,42.0,55,4020.0,square3,i,0.0996,2,V,12.0
V12,88.0,64.0,48.0,59.0,44.0,59,4079.0,square3,i,0.351,2,V,12.0
V12,89.0,69.0,48.0,62.0,45.0,62,4141.0,square3,i,0.1846,2,V,12.0
V12,90.0,68.0,56.0,60.0,42.0,60,4201.0,square3,i,0.2007,2,V,12.0
V12,91.0,69.0,52.0,62.0,45.0,62,4263.0,square3,i,0.1513,2,V,12.0
V12,92.0,65.0,50.0,64.0,47.0,64,4327.0,square3,i,0.3015,2,V,12.0
V12,93.0,68.0,51.0,62.0,43.0,62,4389.0,square3,i,0.2347,2,V,12.0
V12,94.0,68.0,52.0,60.0,38.0,60,4449.0,square3,i,0.1387,2,V,12.0
V12,95.0,71.0,52.0,58.0,47.0,58,4507.0,square3,i,0.2666,2,V,12.0
V12,96.0,66.0,49.0,59.0,44.0,59,4566.0,square3,i,0.0841,2,V,12.0
V12,97.0,74.0,47.0,54.0,47.0,54,4620.0,square3,i,0.2034,2,V,12.0
V12,98.0,68.0,43.0,64.0,41.0,64,4684.0,square3,i,0.1319,2,V,12.0
V12,99.0,71.0,53.0,62.0,44.0,62,4746.0,square3,i,0.1268,2,V,12.0
V4,0.0,63.0,38.0,47.0,55.0,63,63.0,square1,r,0.6017,0,V,4.0
V4,1.0,66.0,42.0,43.0,59.0,42,105.0,square2,i,0.3659,1,V,4.0
V4,2.0,66.0,39.0,57.0,59.0,57,162.0,square3,f,0.1992,2,V,4.0
V4,3.0,66.0,37.0,51.0,59.0,59,221.0,square4,j,0.1826,3,V,4.0
V4,4.0,69.0,37.0,50.0,55.0,55,276.0,square4,j,0.3179,3,V,4.0
V4,5.0,64.0,44.0,46.0,62.0,44,320.0,square2,i,0.182,1,V,4.0
V4,6.0,75.0,43.0,49.0,57.0,75,395.0,square1,r,0.0497,0,V,4.0
V4,7.0,62.0,41.0,52.0,59.0,52,447.0,square3,f,0.3502,2,V,4.0
V4,8.0,65.0,41.0,44.0,60.0,65,512.0,square1,r,0.1699,0,V,4.0
V4,9.0,68.0,35.0,44.0,64.0,35,547.0,square2,i,0.2023,1,V,4.0
V4,10.0,67.0,44.0,48.0,61.0,61,608.0,square4,j,0.0979,3,V,4.0
V4,11.0,61.0,40.0,48.0,56.0,48,656.0,square3,f,0.0835,2,V,4.0
V4,12.0,68.0,41.0,49.0,55.0,68,724.0,square1,r,0.1213,0,V,4.0
V4,13.0,63.0,42.0,47.0,60.0,60,784.0,square4,j,0.1496,3,V,4.0
V4,14.0,63.0,40.0,51.0,55.0,63,847.0,square1,r,0.0017,0,V,4.0
V4,15.0,62.0,41.0,52.0,62.0,41,888.0,square2,i,0.1852,1,V,4.0
V4,16.0,69.0,37.0,47.0,60.0,47,935.0,square3,f,0.2011,2,V,4.0
V4,17.0,66.0,40.0,48.0,56.0,66,1001.0,square1,r,0.167,0,V,4.0
V4,18.0,67.0,43.0,47.0,59.0,67,1068.0,square1,r,0.0019,0,V,4.0
V4,19.0,64.0,42.0,51.0,59.0,64,1132.0,square1,r,0.2343,0,V,4.0
V4,20.0,67.0,40.0,47.0,58.0,67,1199.0,square1,r,0.0346,0,V,4.0
V4,21.0,60.0,41.0,50.0,59.0,60,1259.0,square1,r,0.2339,0,V,4.0
V4,22.0,66.0,43.0,54.0,55.0,66,1325.0,square1,r,0.0436,0,V,4.0
V4,23.0,67.0,37.0,50.0,62.0,67,1392.0,square1,r,1.7842,0,V,4.0
V4,24.0,67.0,37.0,49.0,60.0,37,1429.0,square2,i,0.8255,1,V,4.0
V4,25.0,67.0,39.0,55.0,52.0,52,1481.0,square4,j,0.5658,3,V,4.0
V4,26.0,64.0,39.0,51.0,63.0,64,1545.0,square1,r,0.2169,0,V,4.0
V4,27.0,68.0,36.0,55.0,60.0,36,1581.0,square2,i,0.349,1,V,4.0
V4,28.0,67.0,40.0,46.0,54.0,46,1627.0,square3,f,0.3668,2,V,4.0
V4,29.0,67.0,41.0,50.0,57.0,67,1694.0,square1,r,0.1331,0,V,4.0
V4,30.0,66.0,39.0,49.0,53.0,53,1747.0,square4,j,0.033,3,V,4.0
V4,31.0,70.0,38.0,48.0,58.0,70,1817.0,square1,r,0.2339,0,V,4.0
V4,32.0,63.0,40.0,53.0,61.0,40,1857.0,square2,i,0.1155,1,V,4.0
V4,33.0,66.0,41.0,51.0,56.0,66,1923.0,square1,r,0.0148,0,V,4.0
V4,34.0,64.0,39.0,46.0,57.0,46,1969.0,square3,f,0.6155,2,V,4.0
V4,35.0,69.0,36.0,50.0,58.0,69,2038.0,square1,r,0.1485,0,V,4.0
V4,36.0,60.0,43.0,53.0,54.0,60,2098.0,square1,r,0.533,0,V,4.0
V4,37.0,52.0,78.0,68.0,66.0,78,2176.0,square2,i,0.4337,1,V,4.0
V4,38.0,44.0,81.0,68.0,62.0,81,2257.0,square2,i,0.3024,1,V,4.0
V4,39.0,59.0,71.0,70.0,63.0,71,2328.0,square2,i,0.3924,1,V,4.0
V4,40.0,53.0,77.0,73.0,59.0,77,2405.0,square2,i,0.3671,1,V,4.0
V4,41.0,53.0,76.0,74.0,66.0,76,2481.0,square2,i,0.7531,1,V,4.0
V4,42.0,51.0,79.0,73.0,59.0,79,2560.0,square2,i,0.3649,1,V,4.0
V4,43.0,48.0,76.0,68.0,65.0,76,2636.0,square2,i,0.4507,1,V,4.0
V4,44.0,57.0,83.0,78.0,63.0,99999,2636.0,invalid,,,-1,V,4.0
V4,45.0,54.0,74.0,69.0,61.0,74,2710.0,square2,i,0.1723,1,V,4.0
V4,46.0,53.0,85.0,66.0,62.0,85,2795.0,square2,i,0.1323,1,V,4.0
V4,47.0,56.0,83.0,68.0,57.0,83,2878.0,square2,i,0.1155,1,V,4.0
V4,48.0,49.0,74.0,73.0,59.0,74,2952.0,square2,i,0.03,1,V,4.0
V4,49.0,54.0,74.0,70.0,60.0,74,3026.0,square2,i,0.1719,1,V,4.0
V4,50.0,47.0,83.0,69.0,60.0,69,3095.0,square3,f,0.0816,2,V,4.0
V4,51.0,54.0,78.0,73.0,56.0,54,3149.0,square1,r,0.0836,0,V,4.0
V4,52.0,52.0,76.0,71.0,58.0,52,3201.0,square1,r,0.1169,0,V,4.0
V4,53.0,51.0,82.0,76.0,63.0,82,3283.0,square2,i,0.0994,1,V,4.0
V4,54.0,57.0,76.0,69.0,64.0,76,3359.0,square2,i,0.0494,1,V,4.0
V4,55.0,49.0,75.0,68.0,59.0,75,3434.0,square2,i,0.1358,1,V,4.0
V4,56.0,55.0,81.0,66.0,65.0,81,3515.0,square2,i,0.2852,1,V,4.0
V4,57.0,58.0,80.0,72.0,63.0,80,3595.0,square2,i,0.5746,1,V,4.0
V4,58.0,49.0,81.0,66.0,62.0,49,3644.0,square1,r,0.4715,0,V,4.0
V4,59.0,57.0,78.0,73.0,59.0,78,3722.0,square2,i,0.0665,1,V,4.0
V4,60.0,48.0,79.0,66.0,59.0,79,3801.0,square2,i,0.0657,1,V,4.0
V4,61.0,53.0,80.0,72.0,60.0,80,3881.0,square2,i,0.0679,1,V,4.0
V4,62.0,53.0,79.0,70.0,61.0,79,3960.0,square2,i,0.2829,1,V,4.0
V4,63.0,81.0,66.0,90.0,66.0,66,4026.0,square2,i,0.0506,1,V,4.0
V4,64.0,80.0,64.0,85.0,76.0,64,4090.0,square2,i,0.1158,1,V,4.0
V4,65.0,77.0,61.0,92.0,74.0,61,4151.0,square2,i,0.1668,1,V,4.0
V4,66.0,89.0,65.0,91.0,73.0,65,4216.0,square2,i,0.4336,1,V,4.0
V4,67.0,86.0,64.0,92.0,70.0,70,4286.0,square4,j,0.1858,3,V,4.0
V4,68.0,82.0,60.0,91.0,77.0,82,4368.0,square1,r,0.2174,0,V,4.0
V4,69.0,78.0,69.0,90.0,70.0,69,4437.0,square2,i,0.1186,1,V,4.0
V4,70.0,85.0,64.0,95.0,73.0,95,4532.0,square3,f,0.1466,2,V,4.0
V4,71.0,85.0,61.0,88.0,69.0,88,4620.0,square3,f,0.2208,2,V,4.0
V4,72.0,86.0,63.0,87.0,75.0,87,4707.0,square3,f,0.0997,2,V,4.0
V4,73.0,86.0,69.0,92.0,70.0,92,4799.0,square3,f,0.0832,2,V,4.0
V4,74.0,81.0,62.0,90.0,69.0,90,4889.0,square3,f,0.1487,2,V,4.0
V4,75.0,83.0,66.0,88.0,74.0,88,4977.0,square3,f,0.2026,2,V,4.0
V4,76.0,80.0,64.0,92.0,75.0,92,5069.0,square3,f,0.1344,2,V,4.0
V4,77.0,81.0,65.0,91.0,74.0,91,5160.0,square3,f,0.0018,2,V,4.0
V4,78.0,78.0,70.0,89.0,73.0,89,5249.0,square3,f,0.0669,2,V,4.0
V4,79.0,84.0,66.0,85.0,75.0,85,5334.0,square3,f,0.119,2,V,4.0
V4,80.0,83.0,65.0,93.0,74.0,93,5427.0,square3,f,0.1156,2,V,4.0
V4,81.0,86.0,59.0,91.0,74.0,91,5518.0,square3,f,0.051,2,V,4.0
V4,82.0,87.0,64.0,92.0,73.0,92,5610.0,square3,f,0.2355,2,V,4.0
V4,83.0,83.0,68.0,86.0,70.0,86,5696.0,square3,f,0.1169,2,V,4.0
V4,84.0,82.0,62.0,87.0,73.0,87,5783.0,square3,f,0.1338,2,V,4.0
V4,85.0,85.0,61.0,90.0,70.0,61,5844.0,square2,i,0.1213,1,V,4.0
V4,86.0,84.0,66.0,97.0,71.0,71,5915.0,square4,j,0.0653,3,V,4.0
V4,87.0,82.0,64.0,87.0,71.0,87,6002.0,square3,f,0.1155,2,V,4.0
V4,88.0,80.0,67.0,93.0,72.0,93,6095.0,square3,f,0.1464,2,V,4.0
V4,89.0,78.0,64.0,92.0,75.0,92,6187.0,square3,f,0.1494,2,V,4.0
V4,90.0,75.0,66.0,88.0,72.0,88,6275.0,square3,f,0.0684,2,V,4.0
V4,91.0,82.0,59.0,91.0,76.0,91,6366.0,square3,f,0.0852,2,V,4.0
V4,92.0,84.0,62.0,91.0,70.0,84,6450.0,square1,r,0.0344,0,V,4.0
V4,93.0,80.0,61.0,94.0,76.0,80,6530.0,square1,r,0.0339,0,V,4.0
V4,94.0,83.0,64.0,88.0,72.0,83,6613.0,square1,r,0.8663,0,V,4.0
V4,95.0,82.0,60.0,94.0,69.0,82,6695.0,square1,r,0.0508,0,V,4.0
V4,96.0,84.0,63.0,92.0,72.0,92,6787.0,square3,f,0.1652,2,V,4.0
V4,97.0,84.0,62.0,85.0,70.0,85,6872.0,square3,f,0.1995,2,V,4.0
V4,98.0,81.0,64.0,93.0,72.0,93,6965.0,square3,f,0.0022,2,V,4.0
V4,99.0,80.0,61.0,92.0,75.0,92,7057.0,square3,f,0.0518,2,V,4.0
V1,0.0,46.0,61.0,52.0,71.0,71,71.0,square4,r,0.994,3,V,1.0
V1,1.0,45.0,63.0,54.0,78.0,54,125.0,square3,i,0.0172,2,V,1.0
V1,2.0,51.0,58.0,59.0,77.0,51,176.0,square1,f,0.1177,0,V,1.0
V1,3.0,53.0,65.0,56.0,75.0,65,241.0,square2,j,0.0509,1,V,1.0
V1,4.0,49.0,68.0,53.0,72.0,72,313.0,square4,r,0.1675,3,V,1.0
V1,5.0,47.0,70.0,59.0,76.0,76,389.0,square4,r,0.0507,3,V,1.0
V1,6.0,55.0,63.0,54.0,76.0,76,465.0,square4,r,0.0843,3,V,1.0
V1,7.0,47.0,67.0,55.0,74.0,74,539.0,square4,r,0.0338,3,V,1.0
V1,8.0,47.0,65.0,46.0,76.0,76,615.0,square4,r,0.2347,3,V,1.0
V1,9.0,46.0,68.0,59.0,78.0,78,693.0,square4,r,0.1065,3,V,1.0
V1,10.0,58.0,67.0,58.0,79.0,79,772.0,square4,r,0.0345,3,V,1.0
V1,11.0,44.0,61.0,54.0,72.0,72,844.0,square4,r,0.0348,3,V,1.0
V1,12.0,44.0,65.0,56.0,75.0,75,919.0,square4,r,0.068,3,V,1.0
V1,13.0,47.0,63.0,53.0,73.0,73,992.0,square4,r,0.201,3,V,1.0
V1,14.0,49.0,66.0,56.0,75.0,75,1067.0,square4,r,0.1516,3,V,1.0
V1,15.0,49.0,66.0,52.0,79.0,52,1119.0,square3,i,0.007,2,V,1.0
V1,16.0,51.0,61.0,48.0,72.0,72,1191.0,square4,r,0.1011,3,V,1.0
V1,17.0,46.0,61.0,59.0,71.0,71,1262.0,square4,r,0.201,3,V,1.0
V1,18.0,45.0,61.0,53.0,72.0,72,1334.0,square4,r,0.1346,3,V,1.0
V1,19.0,49.0,63.0,54.0,76.0,76,1410.0,square4,r,0.0348,3,V,1.0
V1,20.0,46.0,66.0,52.0,72.0,72,1482.0,square4,r,0.3386,3,V,1.0
V1,21.0,50.0,65.0,51.0,73.0,73,1555.0,square4,r,0.101,3,V,1.0
V1,22.0,56.0,62.0,56.0,77.0,77,1632.0,square4,r,0.4014,3,V,1.0
V1,23.0,45.0,67.0,54.0,83.0,83,1715.0,square4,r,1.1684,3,V,1.0
V1,24.0,46.0,69.0,57.0,71.0,71,1786.0,square4,r,0.0682,3,V,1.0
V1,25.0,41.0,65.0,55.0,76.0,55,1841.0,square3,i,0.0505,2,V,1.0
V1,26.0,51.0,60.0,55.0,74.0,51,1892.0,square1,f,0.0243,0,V,1.0
V1,27.0,52.0,63.0,56.0,73.0,63,1955.0,square2,j,0.0171,1,V,1.0
V1,28.0,50.0,68.0,50.0,76.0,76,2031.0,square4,r,0.0013,3,V,1.0
V1,29.0,51.0,60.0,54.0,74.0,74,2105.0,square4,r,0.0694,3,V,1.0
V1,30.0,35.0,67.0,57.0,40.0,40,2145.0,square4,r,0.0838,3,V,1.0
V1,31.0,38.0,60.0,52.0,35.0,52,2197.0,square3,i,0.6753,2,V,1.0
V1,32.0,37.0,67.0,52.0,41.0,37,2234.0,square1,f,0.0337,0,V,1.0
V1,33.0,37.0,62.0,53.0,42.0,62,2296.0,square2,j,0.0923,1,V,1.0
V1,34.0,35.0,58.0,54.0,43.0,58,2354.0,square2,j,0.0169,1,V,1.0
V1,35.0,40.0,60.0,50.0,44.0,60,2414.0,square2,j,0.2231,1,V,1.0
V1,36.0,39.0,66.0,50.0,39.0,66,2480.0,square2,j,0.0013,1,V,1.0
V1,37.0,32.0,59.0,54.0,38.0,38,2518.0,square4,r,0.0536,3,V,1.0
V1,38.0,32.0,64.0,50.0,39.0,64,2582.0,square2,j,0.0509,1,V,1.0
V1,39.0,37.0,60.0,45.0,40.0,60,2642.0,square2,j,0.5507,1,V,1.0
V1,40.0,35.0,61.0,54.0,43.0,61,2703.0,square2,j,0.0165,1,V,1.0
V1,41.0,33.0,62.0,49.0,42.0,62,2765.0,square2,j,0.0516,1,V,1.0
V1,42.0,31.0,70.0,52.0,42.0,52,2817.0,square3,i,0.1917,2,V,1.0
V1,43.0,37.0,59.0,48.0,41.0,59,2876.0,square2,j,0.1409,1,V,1.0
V1,44.0,39.0,63.0,53.0,44.0,63,2939.0,square2,j,0.1669,1,V,1.0
V1,45.0,37.0,62.0,48.0,41.0,62,3001.0,square2,j,0.0509,1,V,1.0
V1,46.0,34.0,65.0,52.0,39.0,65,3066.0,square2,j,0.3519,1,V,1.0
V1,47.0,42.0,59.0,52.0,43.0,59,3125.0,square2,j,0.3841,1,V,1.0
V1,48.0,39.0,62.0,50.0,38.0,62,3187.0,square2,j,0.2523,1,V,1.0
V1,49.0,33.0,63.0,49.0,40.0,63,3250.0,square2,j,0.2345,1,V,1.0
V1,50.0,38.0,66.0,54.0,37.0,66,3316.0,square2,j,0.0012,1,V,1.0
V1,51.0,33.0,66.0,50.0,37.0,66,3382.0,square2,j,0.17,1,V,1.0
V1,52.0,41.0,65.0,55.0,44.0,65,3447.0,square2,j,0.0012,1,V,1.0
V1,53.0,75.0,50.0,46.0,60.0,50,3497.0,square2,j,0.1681,1,V,1.0
V1,54.0,74.0,53.0,45.0,61.0,53,3550.0,square2,j,0.3881,1,V,1.0
V1,55.0,74.0,54.0,43.0,65.0,43,3593.0,square3,i,0.3511,2,V,1.0
V1,56.0,73.0,54.0,44.0,56.0,56,3649.0,square4,r,0.1045,3,V,1.0
V1,57.0,67.0,58.0,52.0,63.0,67,3716.0,square1,f,0.0012,0,V,1.0
V1,58.0,72.0,51.0,43.0,62.0,72,3788.0,square1,f,0.2509,0,V,1.0
V1,59.0,68.0,47.0,49.0,56.0,68,3856.0,square1,f,0.0013,0,V,1.0
V1,60.0,72.0,55.0,46.0,65.0,72,3928.0,square1,f,0.1179,0,V,1.0
V1,61.0,76.0,50.0,46.0,62.0,76,4004.0,square1,f,0.0519,0,V,1.0
V1,62.0,77.0,58.0,46.0,66.0,77,4081.0,square1,f,0.1178,0,V,1.0
V1,63.0,72.0,53.0,48.0,66.0,72,4153.0,square1,f,0.2008,0,V,1.0
V1,64.0,70.0,49.0,49.0,60.0,70,4223.0,square1,f,0.0339,0,V,1.0
V1,65.0,68.0,49.0,46.0,66.0,68,4291.0,square1,f,0.0681,0,V,1.0
V1,66.0,77.0,52.0,41.0,64.0,77,4368.0,square1,f,0.0841,0,V,1.0
V1,67.0,74.0,56.0,42.0,69.0,74,4442.0,square1,f,0.0177,0,V,1.0
V1,68.0,77.0,50.0,46.0,68.0,77,4519.0,square1,f,0.0005,0,V,1.0
V1,69.0,76.0,48.0,45.0,63.0,76,4595.0,square1,f,0.1721,0,V,1.0
V1,70.0,71.0,53.0,50.0,65.0,71,4666.0,square1,f,0.3849,0,V,1.0
V1,71.0,70.0,56.0,44.0,59.0,70,4736.0,square1,f,0.1513,0,V,1.0
V1,72.0,74.0,54.0,55.0,61.0,74,4810.0,square1,f,0.2176,0,V,1.0
V1,73.0,73.0,53.0,47.0,61.0,73,4883.0,square1,f,0.188,0,V,1.0
V1,74.0,71.0,53.0,51.0,65.0,71,4954.0,square1,f,0.1682,0,V,1.0
V1,75.0,72.0,51.0,48.0,64.0,72,5026.0,square1,f,0.0168,0,V,1.0
V1,76.0,72.0,53.0,49.0,62.0,72,5098.0,square1,f,0.2669,0,V,1.0
V1,77.0,62.0,76.0,64.0,86.0,62,5160.0,square1,f,0.0347,0,V,1.0
V1,78.0,61.0,74.0,63.0,87.0,61,5221.0,square1,f,0.2177,0,V,1.0
V1,79.0,56.0,78.0,67.0,89.0,67,5288.0,square3,i,0.1172,2,V,1.0
V1,80.0,59.0,75.0,63.0,84.0,63,5351.0,square3,i,0.1171,2,V,1.0
V1,81.0,63.0,74.0,68.0,82.0,68,5419.0,square3,i,0.0345,2,V,1.0
V1,82.0,59.0,75.0,67.0,80.0,80,5499.0,square4,r,0.0346,3,V,1.0
V1,83.0,58.0,77.0,63.0,82.0,82,5581.0,square4,r,0.0012,3,V,1.0
V1,84.0,57.0,76.0,64.0,87.0,87,5668.0,square4,r,0.1029,3,V,1.0
V1,85.0,61.0,73.0,66.0,83.0,83,5751.0,square4,r,0.0343,3,V,1.0
V1,86.0,60.0,71.0,66.0,85.0,85,5836.0,square4,r,0.217,3,V,1.0
V1,87.0,61.0,80.0,73.0,84.0,84,5920.0,square4,r,0.1341,3,V,1.0
V1,88.0,67.0,77.0,67.0,85.0,85,6005.0,square4,r,0.0565,3,V,1.0
V1,89.0,60.0,79.0,63.0,86.0,86,6091.0,square4,r,0.0894,3,V,1.0
V1,90.0,60.0,74.0,66.0,88.0,88,6179.0,square4,r,0.0344,3,V,1.0
V1,91.0,57.0,81.0,61.0,79.0,79,6258.0,square4,r,0.1,3,V,1.0
V1,92.0,61.0,78.0,61.0,84.0,84,6342.0,square4,r,0.0678,3,V,1.0
V1,93.0,64.0,72.0,69.0,83.0,83,6425.0,square4,r,0.134,3,V,1.0
V1,94.0,64.0,73.0,68.0,83.0,83,6508.0,square4,r,0.1508,3,V,1.0
V1,95.0,61.0,69.0,68.0,87.0,87,6595.0,square4,r,0.0012,3,V,1.0
V1,96.0,55.0,77.0,65.0,88.0,88,6683.0,square4,r,0.2347,3,V,1.0
V1,97.0,61.0,75.0,63.0,82.0,82,6765.0,square4,r,0.1673,3,V,1.0
V1,98.0,59.0,71.0,66.0,82.0,82,6847.0,square4,r,0.084,3,V,1.0
V1,99.0,61.0,69.0,67.0,84.0,84,6931.0,square4,r,0.0571,3,V,1.0
S11,0.0,49.0,53.0,49.0,45.0,49,49.0,square1,r,1.1694,0,S,11.0
S11,1.0,54.0,56.0,42.0,50.0,50,99.0,square4,i,0.0844,3,S,11.0
S11,2.0,39.0,51.0,39.0,43.0,51,150.0,square2,f,0.1337,1,S,11.0
S11,3.0,53.0,50.0,38.0,43.0,38,188.0,square3,j,0.1002,2,S,11.0
S11,4.0,47.0,54.0,39.0,48.0,47,235.0,square1,r,0.0841,0,S,11.0
S11,5.0,47.0,52.0,40.0,46.0,46,281.0,square4,i,0.0845,3,S,11.0
S11,6.0,47.0,46.0,44.0,54.0,46,327.0,square2,f,0.1582,1,S,11.0
S11,7.0,48.0,51.0,35.0,51.0,35,362.0,square3,j,0.1176,2,S,11.0
S11,8.0,52.0,49.0,36.0,43.0,52,414.0,square1,r,0.0893,0,S,11.0
S11,9.0,47.0,53.0,41.0,55.0,55,469.0,square4,i,0.0838,3,S,11.0
S11,10.0,44.0,48.0,41.0,43.0,48,517.0,square2,f,0.1337,1,S,11.0
S11,11.0,41.0,54.0,38.0,43.0,43,560.0,square4,i,0.067,3,S,11.0
S11,12.0,45.0,54.0,44.0,45.0,45,605.0,square4,i,0.0843,3,S,11.0
S11,13.0,54.0,52.0,44.0,50.0,54,659.0,square1,r,0.0509,0,S,11.0
S11,14.0,57.0,58.0,36.0,45.0,45,704.0,square4,i,0.3185,3,S,11.0
S11,15.0,48.0,54.0,43.0,49.0,48,752.0,square1,r,0.0366,0,S,11.0
S11,16.0,58.0,47.0,42.0,46.0,58,810.0,square1,r,0.0359,0,S,11.0
S11,17.0,41.0,61.0,42.0,53.0,41,851.0,square1,r,0.1677,0,S,11.0
S11,18.0,51.0,58.0,33.0,39.0,51,902.0,square1,r,0.0342,0,S,11.0
S11,19.0,48.0,49.0,37.0,42.0,37,939.0,square3,j,0.0012,2,S,11.0
S11,20.0,52.0,52.0,45.0,46.0,52,991.0,square1,r,0.0237,0,S,11.0
S11,21.0,47.0,53.0,44.0,51.0,47,1038.0,square1,r,0.1011,0,S,11.0
S11,22.0,49.0,54.0,37.0,41.0,49,1087.0,square1,r,0.0715,0,S,11.0
S11,23.0,52.0,54.0,41.0,45.0,52,1139.0,square1,r,0.1009,0,S,11.0
S11,24.0,42.0,56.0,41.0,45.0,42,1181.0,square1,r,0.0511,0,S,11.0
S11,25.0,52.0,56.0,42.0,44.0,52,1233.0,square1,r,0.1729,0,S,11.0
S11,26.0,43.0,56.0,41.0,45.0,45,1278.0,square4,i,0.0509,3,S,11.0
S11,27.0,48.0,50.0,40.0,43.0,48,1326.0,square1,r,0.0715,0,S,11.0
S11,28.0,46.0,49.0,38.0,48.0,46,1372.0,square1,r,0.1678,0,S,11.0
S11,29.0,46.0,55.0,40.0,42.0,46,1418.0,square1,r,0.0012,0,S,11.0
S11,30.0,46.0,56.0,43.0,37.0,46,1464.0,square1,r,0.3844,0,S,11.0
S11,31.0,42.0,49.0,44.0,42.0,49,1513.0,square2,f,0.201,1,S,11.0
S11,32.0,51.0,52.0,36.0,40.0,51,1564.0,square1,r,0.6347,0,S,11.0
S11,33.0,44.0,53.0,39.0,43.0,44,1608.0,square1,r,0.1178,0,S,11.0
S11,34.0,52.0,52.0,43.0,49.0,49,1657.0,square4,i,0.0544,3,S,11.0
S11,35.0,53.0,51.0,38.0,45.0,45,1702.0,square4,i,0.1036,3,S,11.0
S11,36.0,50.0,44.0,42.0,48.0,48,1750.0,square4,i,0.0065,3,S,11.0
S11,37.0,49.0,51.0,40.0,48.0,49,1799.0,square1,r,0.1003,0,S,11.0
S11,38.0,47.0,47.0,39.0,38.0,47,1846.0,square1,r,0.0343,0,S,11.0
S11,39.0,51.0,55.0,40.0,42.0,55,1901.0,square2,f,0.0845,1,S,11.0
S11,40.0,50.0,52.0,41.0,44.0,52,1953.0,square2,f,0.0509,1,S,11.0
S11,41.0,47.0,50.0,46.0,50.0,50,2003.0,square2,f,0.1846,1,S,11.0
S11,42.0,52.0,48.0,41.0,47.0,48,2051.0,square2,f,0.1506,1,S,11.0
S11,43.0,50.0,56.0,34.0,42.0,56,2107.0,square2,f,0.1007,1,S,11.0
S11,44.0,42.0,48.0,37.0,49.0,48,2155.0,square2,f,0.5515,1,S,11.0
S11,45.0,47.0,47.0,41.0,40.0,47,2202.0,square2,f,0.0175,1,S,11.0
S11,46.0,50.0,56.0,40.0,44.0,56,2258.0,square2,f,0.1011,1,S,11.0
S11,47.0,46.0,48.0,38.0,47.0,48,2306.0,square2,f,0.1341,1,S,11.0
S11,48.0,45.0,54.0,44.0,41.0,45,2351.0,square1,r,0.1674,0,S,11.0
S11,49.0,44.0,53.0,41.0,41.0,41,2392.0,square4,i,0.151,3,S,11.0
S3,0.0,38.0,48.0,42.0,57.0,57,57.0,square4,r,0.7883,3,S,3.0
S3,1.0,29.0,43.0,51.0,57.0,43,100.0,square2,i,0.083,1,S,3.0
S3,2.0,41.0,49.0,46.0,49.0,46,146.0,square3,f,0.0903,2,S,3.0
S3,3.0,44.0,50.0,45.0,52.0,44,190.0,square1,j,0.0012,0,S,3.0
S3,4.0,37.0,51.0,45.0,58.0,58,248.0,square4,r,0.1223,3,S,3.0
S3,5.0,47.0,43.0,42.0,49.0,49,297.0,square4,r,0.0164,3,S,3.0
S3,6.0,44.0,53.0,51.0,58.0,58,355.0,square4,r,0.0013,3,S,3.0
S3,7.0,39.0,47.0,46.0,54.0,39,394.0,square1,j,0.0336,0,S,3.0
S3,8.0,43.0,53.0,41.0,52.0,52,446.0,square4,r,0.0383,3,S,3.0
S3,9.0,42.0,46.0,41.0,53.0,46,492.0,square2,i,0.1339,1,S,3.0
S3,10.0,37.0,49.0,49.0,55.0,55,547.0,square4,r,0.0999,3,S,3.0
S3,11.0,40.0,47.0,36.0,59.0,59,606.0,square4,r,0.1526,3,S,3.0
S3,12.0,46.0,51.0,39.0,56.0,56,662.0,square4,r,0.1008,3,S,3.0
S3,13.0,39.0,48.0,45.0,57.0,57,719.0,square4,r,0.084,3,S,3.0
S3,14.0,39.0,55.0,43.0,47.0,47,766.0,square4,r,0.0368,3,S,3.0
S3,15.0,46.0,46.0,47.0,52.0,52,818.0,square4,r,0.2008,3,S,3.0
S3,16.0,42.0,49.0,50.0,55.0,55,873.0,square4,r,0.1013,3,S,3.0
S3,17.0,45.0,45.0,56.0,47.0,47,920.0,square4,r,0.0883,3,S,3.0
S3,18.0,46.0,43.0,45.0,50.0,50,970.0,square4,r,0.0839,3,S,3.0
S3,19.0,41.0,47.0,50.0,55.0,55,1025.0,square4,r,0.0846,3,S,3.0
S3,20.0,45.0,52.0,49.0,52.0,52,1077.0,square4,r,0.1891,3,S,3.0
S3,21.0,40.0,43.0,47.0,46.0,46,1123.0,square4,r,0.1342,3,S,3.0
S3,22.0,45.0,46.0,44.0,47.0,47,1170.0,square4,r,0.2506,3,S,3.0
S3,23.0,36.0,50.0,42.0,46.0,46,1216.0,square4,r,0.2226,3,S,3.0
S3,24.0,42.0,54.0,49.0,55.0,55,1271.0,square4,r,0.2674,3,S,3.0
S3,25.0,43.0,51.0,44.0,54.0,44,1315.0,square3,f,0.0711,2,S,3.0
S3,26.0,49.0,50.0,52.0,52.0,50,1365.0,square2,i,0.1218,1,S,3.0
S3,27.0,47.0,52.0,44.0,50.0,47,1412.0,square1,j,0.2008,0,S,3.0
S3,28.0,37.0,48.0,40.0,47.0,47,1459.0,square4,r,0.0011,3,S,3.0
S3,29.0,50.0,43.0,50.0,57.0,43,1502.0,square2,i,0.1506,1,S,3.0
S3,30.0,50.0,50.0,46.0,47.0,46,1548.0,square3,f,0.1509,2,S,3.0
S3,31.0,37.0,53.0,49.0,56.0,53,1601.0,square2,i,0.1029,1,S,3.0
S3,32.0,42.0,50.0,43.0,58.0,58,1659.0,square4,r,0.0341,3,S,3.0
S3,33.0,44.0,49.0,46.0,59.0,59,1718.0,square4,r,0.3837,3,S,3.0
S3,34.0,42.0,50.0,50.0,58.0,58,1776.0,square4,r,0.101,3,S,3.0
S3,35.0,43.0,46.0,45.0,50.0,50,1826.0,square4,r,0.0394,3,S,3.0
S3,36.0,46.0,52.0,50.0,48.0,48,1874.0,square4,r,0.1,3,S,3.0
S3,37.0,48.0,50.0,49.0,52.0,52,1926.0,square4,r,0.105,3,S,3.0
S3,38.0,39.0,43.0,50.0,55.0,50,1976.0,square3,f,0.151,2,S,3.0
S3,39.0,50.0,53.0,46.0,57.0,53,2029.0,square2,i,0.2022,1,S,3.0
S3,40.0,41.0,46.0,48.0,55.0,41,2070.0,square1,j,0.0012,0,S,3.0
S3,41.0,49.0,49.0,40.0,56.0,56,2126.0,square4,r,0.0012,3,S,3.0
S3,42.0,47.0,49.0,43.0,48.0,48,2174.0,square4,r,0.0846,3,S,3.0
S3,43.0,46.0,43.0,41.0,58.0,58,2232.0,square4,r,0.0013,3,S,3.0
S3,44.0,46.0,52.0,51.0,55.0,52,2284.0,square2,i,0.0343,1,S,3.0
S3,45.0,46.0,41.0,46.0,49.0,49,2333.0,square4,r,0.0341,3,S,3.0
S3,46.0,32.0,56.0,40.0,50.0,50,2383.0,square4,r,0.184,3,S,3.0
S3,47.0,42.0,49.0,44.0,51.0,51,2434.0,square4,r,0.1401,3,S,3.0
S3,48.0,36.0,45.0,38.0,50.0,45,2479.0,square2,i,0.1392,1,S,3.0
S3,49.0,45.0,48.0,47.0,52.0,48,2527.0,square2,i,0.1676,1,S,3.0
S5,0.0,90.0,70.0,79.0,84.0,90,90.0,square1,r,0.9391,0,S,5.0
S5,1.0,92.0,77.0,83.0,81.0,92,182.0,square1,r,0.1175,0,S,5.0
S5,2.0,83.0,72.0,81.0,76.0,83,265.0,square1,r,0.2349,0,S,5.0
S5,3.0,87.0,72.0,79.0,81.0,87,352.0,square1,r,0.0345,0,S,5.0
S5,4.0,86.0,81.0,78.0,72.0,86,438.0,square1,r,0.0501,0,S,5.0
S5,5.0,89.0,70.0,79.0,83.0,89,527.0,square1,r,0.2179,0,S,5.0
S5,6.0,86.0,69.0,81.0,81.0,86,613.0,square1,r,0.1841,0,S,5.0
S5,7.0,82.0,72.0,86.0,80.0,82,695.0,square1,r,0.2508,0,S,5.0
S5,8.0,84.0,67.0,80.0,77.0,67,762.0,square2,j,0.0343,1,S,5.0
S5,9.0,92.0,80.0,86.0,84.0,86,848.0,square3,i,0.0853,2,S,5.0
S5,10.0,82.0,71.0,80.0,80.0,82,930.0,square1,r,0.0507,0,S,5.0
S5,11.0,80.0,75.0,79.0,75.0,75,1005.0,square4,f,0.0014,3,S,5.0
S5,12.0,84.0,75.0,80.0,82.0,84,1089.0,square1,r,0.1669,0,S,5.0
S5,13.0,85.0,74.0,74.0,81.0,85,1174.0,square1,r,0.0666,0,S,5.0
S5,14.0,81.0,79.0,85.0,81.0,81,1255.0,square1,r,0.2049,0,S,5.0
S5,15.0,81.0,75.0,76.0,77.0,81,1336.0,square1,r,0.2897,0,S,5.0
S5,16.0,86.0,74.0,78.0,74.0,86,1422.0,square1,r,0.1009,0,S,5.0
S5,17.0,81.0,77.0,81.0,77.0,81,1503.0,square1,r,0.1552,0,S,5.0
S5,18.0,87.0,70.0,84.0,82.0,87,1590.0,square1,r,0.1336,0,S,5.0
S5,19.0,84.0,76.0,83.0,76.0,84,1674.0,square1,r,0.0504,0,S,5.0
S5,20.0,79.0,78.0,82.0,76.0,82,1756.0,square3,i,0.0173,2,S,5.0
S5,21.0,86.0,68.0,80.0,72.0,80,1836.0,square3,i,0.1512,2,S,5.0
S5,22.0,93.0,80.0,85.0,84.0,85,1921.0,square3,i,0.0343,2,S,5.0
S5,23.0,87.0,73.0,76.0,70.0,76,1997.0,square3,i,0.1014,2,S,5.0
S5,24.0,85.0,69.0,81.0,78.0,81,2078.0,square3,i,0.0012,2,S,5.0
S5,25.0,89.0,77.0,77.0,76.0,77,2155.0,square3,i,0.0012,2,S,5.0
S5,26.0,84.0,71.0,81.0,75.0,75,2230.0,square4,f,0.1511,3,S,5.0
S5,27.0,84.0,75.0,82.0,71.0,71,2301.0,square4,f,0.0343,3,S,5.0
S5,28.0,83.0,72.0,82.0,78.0,83,2384.0,square1,r,0.0677,0,S,5.0
S5,29.0,91.0,67.0,79.0,74.0,91,2475.0,square1,r,0.0014,0,S,5.0
S5,30.0,82.0,69.0,81.0,77.0,82,2557.0,square1,r,0.134,0,S,5.0
S5,31.0,82.0,72.0,80.0,78.0,82,2639.0,square1,r,0.1844,0,S,5.0
S5,32.0,83.0,73.0,91.0,80.0,83,2722.0,square1,r,0.1344,0,S,5.0
S5,33.0,83.0,68.0,85.0,78.0,83,2805.0,square1,r,0.1339,0,S,5.0
S5,34.0,89.0,79.0,83.0,77.0,79,2884.0,square2,j,0.0012,1,S,5.0
S5,35.0,88.0,72.0,79.0,80.0,72,2956.0,square2,j,0.0344,1,S,5.0
S5,36.0,90.0,74.0,84.0,76.0,90,3046.0,square1,r,0.1511,0,S,5.0
S5,37.0,85.0,75.0,80.0,82.0,85,3131.0,square1,r,0.1558,0,S,5.0
S5,38.0,78.0,74.0,85.0,79.0,78,3209.0,square1,r,0.2175,0,S,5.0
S5,39.0,87.0,73.0,87.0,85.0,87,3296.0,square1,r,0.1207,0,S,5.0
S5,40.0,83.0,67.0,81.0,80.0,83,3379.0,square1,r,0.2018,0,S,5.0
S5,41.0,82.0,69.0,88.0,80.0,82,3461.0,square1,r,0.0677,0,S,5.0
S5,42.0,85.0,78.0,91.0,80.0,85,3546.0,square1,r,0.0551,0,S,5.0
S5,43.0,89.0,74.0,78.0,74.0,89,3635.0,square1,r,0.0382,0,S,5.0
S5,44.0,90.0,74.0,77.0,85.0,90,3725.0,square1,r,0.1178,0,S,5.0
S5,45.0,89.0,68.0,81.0,78.0,89,3814.0,square1,r,0.1679,0,S,5.0
S5,46.0,86.0,70.0,86.0,68.0,86,3900.0,square1,r,0.0341,0,S,5.0
S5,47.0,90.0,77.0,85.0,84.0,90,3990.0,square1,r,0.1176,0,S,5.0
S5,48.0,76.0,66.0,82.0,79.0,76,4066.0,square1,r,0.0175,0,S,5.0
S5,49.0,84.0,73.0,82.0,75.0,84,4150.0,square1,r,0.1177,0,S,5.0
S6,0.0,40.0,29.0,39.0,26.0,39,39.0,square3,r,1.0018,2,S,6.0
S6,1.0,34.0,40.0,31.0,25.0,40,79.0,square2,i,0.0502,1,S,6.0
S6,2.0,37.0,31.0,25.0,30.0,37,116.0,square1,f,0.1218,0,S,6.0
S6,3.0,39.0,37.0,30.0,27.0,27,143.0,square4,j,0.0075,3,S,6.0
S6,4.0,42.0,40.0,28.0,32.0,28,171.0,square3,r,0.1338,2,S,6.0
S6,5.0,35.0,35.0,39.0,29.0,35,206.0,square2,i,0.017,1,S,6.0
S6,6.0,48.0,30.0,37.0,33.0,48,254.0,square1,f,0.1341,0,S,6.0
S6,7.0,47.0,34.0,31.0,29.0,29,283.0,square4,j,0.1513,3,S,6.0
S6,8.0,43.0,35.0,30.0,25.0,30,313.0,square3,r,0.0012,2,S,6.0
S6,9.0,36.0,38.0,35.0,35.0,36,349.0,square1,f,0.0509,0,S,6.0
S6,10.0,38.0,35.0,31.0,21.0,21,370.0,square4,j,0.1171,3,S,6.0
S6,11.0,30.0,36.0,31.0,20.0,31,401.0,square3,r,0.0012,2,S,6.0
S6,12.0,37.0,40.0,33.0,22.0,37,438.0,square1,f,0.024,0,S,6.0
S6,13.0,32.0,41.0,35.0,29.0,32,470.0,square1,f,0.1342,0,S,6.0
S6,14.0,41.0,29.0,30.0,32.0,41,511.0,square1,f,0.2841,0,S,6.0
S6,15.0,43.0,37.0,31.0,27.0,43,554.0,square1,f,0.0344,0,S,6.0
S6,16.0,34.0,34.0,35.0,31.0,34,588.0,square1,f,0.0506,0,S,6.0
S6,17.0,47.0,40.0,29.0,28.0,29,617.0,square3,r,0.1735,2,S,6.0
S6,18.0,37.0,38.0,34.0,35.0,34,651.0,square3,r,0.0013,2,S,6.0
S6,19.0,36.0,39.0,31.0,26.0,36,687.0,square1,f,0.2678,0,S,6.0
S6,20.0,44.0,40.0,31.0,25.0,44,731.0,square1,f,0.3845,0,S,6.0
S6,21.0,39.0,41.0,35.0,24.0,39,770.0,square1,f,0.0012,0,S,6.0
S6,22.0,41.0,38.0,41.0,31.0,41,811.0,square1,f,0.0037,0,S,6.0
S6,23.0,37.0,31.0,30.0,32.0,37,848.0,square1,f,0.0006,0,S,6.0
S6,24.0,48.0,34.0,34.0,21.0,48,896.0,square1,f,0.0509,0,S,6.0
S6,25.0,42.0,45.0,26.0,29.0,42,938.0,square1,f,0.0503,0,S,6.0
S6,26.0,40.0,39.0,36.0,28.0,40,978.0,square1,f,0.1023,0,S,6.0
S6,27.0,42.0,33.0,29.0,29.0,33,1011.0,square2,i,0.0998,1,S,6.0
S6,28.0,41.0,30.0,29.0,29.0,41,1052.0,square1,f,0.1504,0,S,6.0
S6,29.0,42.0,40.0,32.0,27.0,32,1084.0,square3,r,0.1836,2,S,6.0
S6,30.0,42.0,36.0,30.0,26.0,42,1126.0,square1,f,0.0391,0,S,6.0
S6,31.0,42.0,34.0,35.0,29.0,42,1168.0,square1,f,0.0218,0,S,6.0
S6,32.0,35.0,36.0,31.0,23.0,35,1203.0,square1,f,0.0912,0,S,6.0
S6,33.0,35.0,31.0,35.0,30.0,30,1233.0,square4,j,0.1013,3,S,6.0
S6,34.0,40.0,38.0,31.0,27.0,40,1273.0,square1,f,0.0842,0,S,6.0
S6,35.0,42.0,37.0,34.0,34.0,42,1315.0,square1,f,0.1392,0,S,6.0
S6,36.0,37.0,46.0,31.0,34.0,37,1352.0,square1,f,0.051,0,S,6.0
S6,37.0,38.0,40.0,30.0,26.0,38,1390.0,square1,f,0.2167,0,S,6.0
S6,38.0,36.0,34.0,31.0,33.0,36,1426.0,square1,f,0.1845,0,S,6.0
S6,39.0,44.0,37.0,33.0,31.0,44,1470.0,square1,f,0.0719,0,S,6.0
S6,40.0,40.0,38.0,31.0,25.0,40,1510.0,square1,f,0.484,0,S,6.0
S6,41.0,49.0,35.0,35.0,28.0,49,1559.0,square1,f,0.0549,0,S,6.0
S6,42.0,44.0,40.0,32.0,28.0,44,1603.0,square1,f,0.2007,0,S,6.0
S6,43.0,43.0,36.0,33.0,26.0,43,1646.0,square1,f,0.0381,0,S,6.0
S6,44.0,38.0,33.0,34.0,26.0,38,1684.0,square1,f,0.1011,0,S,6.0
S6,45.0,32.0,35.0,30.0,28.0,32,1716.0,square1,f,0.6844,0,S,6.0
S6,46.0,38.0,36.0,34.0,30.0,38,1754.0,square1,f,0.2683,0,S,6.0
S6,47.0,44.0,35.0,32.0,31.0,44,1798.0,square1,f,0.0675,0,S,6.0
S6,48.0,40.0,40.0,31.0,33.0,33,1831.0,square4,j,0.2382,3,S,6.0
S6,49.0,41.0,29.0,29.0,29.0,41,1872.0,square1,f,0.3846,0,S,6.0
S7,0.0,68.0,73.0,62.0,57.0,73,73.0,square2,r,0.9831,1,S,7.0
S7,1.0,74.0,67.0,66.0,59.0,66,139.0,square3,f,0.0681,2,S,7.0
S7,2.0,68.0,69.0,65.0,60.0,60,199.0,square4,i,0.1008,3,S,7.0
S7,3.0,74.0,68.0,65.0,63.0,74,273.0,square1,j,0.0849,0,S,7.0
S7,4.0,68.0,74.0,67.0,63.0,74,347.0,square2,r,0.001,1,S,7.0
S7,5.0,68.0,67.0,61.0,57.0,67,414.0,square2,r,0.0301,1,S,7.0
S7,6.0,72.0,64.0,65.0,51.0,64,478.0,square2,r,0.0262,1,S,7.0
S7,7.0,69.0,63.0,69.0,63.0,63,541.0,square2,r,0.0164,1,S,7.0
S7,8.0,71.0,68.0,63.0,54.0,68,609.0,square2,r,0.1331,1,S,7.0
S7,9.0,81.0,66.0,68.0,62.0,66,675.0,square2,r,0.0666,1,S,7.0
S7,10.0,72.0,73.0,68.0,61.0,61,736.0,square4,i,0.0997,3,S,7.0
S7,11.0,72.0,72.0,62.0,58.0,58,794.0,square4,i,0.0011,3,S,7.0
S7,12.0,66.0,66.0,62.0,61.0,61,855.0,square4,i,0.0497,3,S,7.0
S7,13.0,73.0,75.0,75.0,68.0,73,928.0,square1,j,0.7439,0,S,7.0
S7,14.0,71.0,73.0,72.0,66.0,71,999.0,square1,j,0.0668,0,S,7.0
S7,15.0,75.0,68.0,68.0,65.0,75,1074.0,square1,j,0.1494,0,S,7.0
S7,16.0,67.0,65.0,62.0,56.0,67,1141.0,square1,j,0.0677,0,S,7.0
S7,17.0,72.0,67.0,63.0,64.0,72,1213.0,square1,j,0.7507,0,S,7.0
S7,18.0,73.0,69.0,66.0,65.0,73,1286.0,square1,j,0.2525,0,S,7.0
S7,19.0,75.0,70.0,62.0,58.0,62,1348.0,square3,f,0.5349,2,S,7.0
S7,20.0,76.0,63.0,67.0,62.0,67,1415.0,square3,f,0.4439,2,S,7.0
S7,21.0,79.0,76.0,63.0,64.0,63,1478.0,square3,f,0.667,2,S,7.0
S7,22.0,67.0,72.0,63.0,62.0,63,1541.0,square3,f,0.6431,2,S,7.0
S7,23.0,69.0,71.0,70.0,62.0,70,1611.0,square3,f,0.6037,2,S,7.0
S7,24.0,74.0,67.0,70.0,62.0,67,1678.0,square2,r,0.0458,1,S,7.0
S7,25.0,70.0,67.0,72.0,62.0,67,1745.0,square2,r,0.0428,1,S,7.0
S7,26.0,72.0,62.0,74.0,65.0,65,1810.0,square4,i,0.0704,3,S,7.0
S7,27.0,69.0,70.0,68.0,62.0,68,1878.0,square3,f,0.2328,2,S,7.0
S7,28.0,65.0,66.0,60.0,62.0,62,1940.0,square4,i,0.1334,3,S,7.0
S7,29.0,70.0,64.0,60.0,68.0,70,2010.0,square1,j,0.1853,0,S,7.0
S7,30.0,69.0,69.0,64.0,57.0,69,2079.0,square2,r,0.2003,1,S,7.0
S7,31.0,77.0,67.0,65.0,60.0,60,2139.0,square4,i,0.137,3,S,7.0
S7,32.0,67.0,75.0,65.0,58.0,65,2204.0,square3,f,0.084,2,S,7.0
S7,33.0,74.0,66.0,66.0,60.0,74,2278.0,square1,j,0.1671,0,S,7.0
S7,34.0,72.0,72.0,66.0,61.0,72,2350.0,square2,r,0.0159,1,S,7.0
S7,35.0,67.0,68.0,64.0,62.0,62,2412.0,square4,i,0.0179,3,S,7.0
S7,36.0,64.0,63.0,70.0,58.0,64,2476.0,square1,j,0.0525,0,S,7.0
S7,37.0,80.0,72.0,64.0,53.0,64,2540.0,square3,f,0.117,2,S,7.0
S7,38.0,78.0,69.0,76.0,67.0,69,2609.0,square2,r,0.1006,1,S,7.0
S7,39.0,69.0,66.0,60.0,67.0,67,2676.0,square4,i,0.1122,3,S,7.0
S7,40.0,72.0,71.0,63.0,66.0,72,2748.0,square1,j,0.8608,0,S,7.0
S7,41.0,80.0,73.0,65.0,63.0,65,2813.0,square3,f,0.5013,2,S,7.0
S7,42.0,77.0,60.0,65.0,59.0,60,2873.0,square2,r,0.287,1,S,7.0
S7,43.0,70.0,72.0,70.0,63.0,70,2943.0,square3,f,0.0364,2,S,7.0
S7,44.0,77.0,70.0,66.0,58.0,77,3020.0,square1,j,0.1671,0,S,7.0
S7,45.0,75.0,69.0,73.0,58.0,58,3078.0,square4,i,0.4341,3,S,7.0
S7,46.0,74.0,71.0,63.0,63.0,74,3152.0,square1,j,0.5183,0,S,7.0
S7,47.0,73.0,75.0,71.0,64.0,73,3225.0,square1,j,0.4767,0,S,7.0
S7,48.0,78.0,79.0,64.0,58.0,78,3303.0,square1,j,0.6058,0,S,7.0
S7,49.0,75.0,72.0,66.0,72.0,75,3378.0,square1,j,0.0837,0,S,7.0
S8,0.0,58.0,60.0,52.0,45.0,58,58.0,square1,r,1.0385,0,S,8.0
S8,1.0,55.0,57.0,56.0,52.0,56,114.0,square3,i,0.1005,2,S,8.0
S8,2.0,54.0,58.0,58.0,49.0,58,172.0,square2,f,0.0053,1,S,8.0
S8,3.0,55.0,62.0,52.0,53.0,53,225.0,square4,j,0.0673,3,S,8.0
S8,4.0,55.0,60.0,49.0,51.0,55,280.0,square1,r,0.122,0,S,8.0
S8,5.0,48.0,63.0,61.0,49.0,61,341.0,square3,i,0.0073,2,S,8.0
S8,6.0,58.0,63.0,59.0,55.0,63,404.0,square2,f,0.1007,1,S,8.0
S8,7.0,56.0,53.0,49.0,51.0,51,455.0,square4,j,0.0013,3,S,8.0
S8,8.0,61.0,63.0,66.0,49.0,61,516.0,square1,r,0.0012,0,S,8.0
S8,9.0,60.0,59.0,53.0,47.0,59,575.0,square2,f,0.1348,1,S,8.0
S8,10.0,55.0,63.0,52.0,55.0,63,638.0,square2,f,0.1344,1,S,8.0
S8,11.0,62.0,60.0,54.0,50.0,60,698.0,square2,f,0.1512,1,S,8.0
S8,12.0,58.0,64.0,51.0,52.0,64,762.0,square2,f,0.3505,1,S,8.0
S8,13.0,62.0,59.0,53.0,53.0,59,821.0,square2,f,0.2512,1,S,8.0
S8,14.0,51.0,62.0,61.0,54.0,62,883.0,square2,f,0.1015,1,S,8.0
S8,15.0,56.0,68.0,56.0,50.0,68,951.0,square2,f,0.1192,1,S,8.0
S8,16.0,58.0,64.0,56.0,50.0,64,1015.0,square2,f,0.0345,1,S,8.0
S8,17.0,64.0,63.0,60.0,42.0,63,1078.0,square2,f,0.0835,1,S,8.0
S8,18.0,54.0,64.0,57.0,55.0,64,1142.0,square2,f,0.1008,1,S,8.0
S8,19.0,56.0,53.0,57.0,53.0,53,1195.0,square2,f,0.1172,1,S,8.0
S8,20.0,59.0,64.0,56.0,49.0,64,1259.0,square2,f,0.0342,1,S,8.0
S8,21.0,54.0,59.0,55.0,48.0,54,1313.0,square1,r,0.1846,0,S,8.0
S8,22.0,63.0,63.0,59.0,49.0,63,1376.0,square1,r,0.051,0,S,8.0
S8,23.0,59.0,60.0,48.0,52.0,59,1435.0,square1,r,0.1029,0,S,8.0
S8,24.0,55.0,53.0,60.0,50.0,55,1490.0,square1,r,0.0012,0,S,8.0
S8,25.0,57.0,60.0,55.0,54.0,57,1547.0,square1,r,0.3346,0,S,8.0
S8,26.0,62.0,66.0,57.0,58.0,66,1613.0,square2,f,0.0373,1,S,8.0
S8,27.0,58.0,55.0,52.0,48.0,58,1671.0,square1,r,0.1508,0,S,8.0
S8,28.0,53.0,59.0,53.0,55.0,59,1730.0,square2,f,0.0389,1,S,8.0
S8,29.0,60.0,58.0,57.0,53.0,57,1787.0,square3,i,0.6008,2,S,8.0
S8,30.0,57.0,67.0,52.0,56.0,56,1843.0,square4,j,0.5011,3,S,8.0
S8,31.0,60.0,58.0,52.0,50.0,60,1903.0,square1,r,0.0891,0,S,8.0
S8,32.0,54.0,61.0,56.0,57.0,61,1964.0,square2,f,0.7683,1,S,8.0
S8,33.0,66.0,64.0,63.0,52.0,66,2030.0,square1,r,0.2178,0,S,8.0
S8,34.0,54.0,65.0,66.0,56.0,65,2095.0,square2,f,0.2217,1,S,8.0
S8,35.0,54.0,62.0,61.0,48.0,54,2149.0,square1,r,0.4513,0,S,8.0
S8,36.0,53.0,63.0,54.0,55.0,63,2212.0,square2,f,0.8351,1,S,8.0
S8,37.0,64.0,58.0,57.0,51.0,64,2276.0,square1,r,0.351,0,S,8.0
S8,38.0,68.0,65.0,59.0,57.0,65,2341.0,square2,f,0.0508,1,S,8.0
S8,39.0,64.0,65.0,51.0,55.0,51,2392.0,square3,i,0.1677,2,S,8.0
S8,40.0,63.0,61.0,57.0,47.0,47,2439.0,square4,j,0.0013,3,S,8.0
S8,41.0,65.0,58.0,55.0,49.0,65,2504.0,square1,r,0.1511,0,S,8.0
S8,42.0,52.0,60.0,51.0,56.0,60,2564.0,square2,f,0.1009,1,S,8.0
S8,43.0,63.0,57.0,48.0,50.0,63,2627.0,square1,r,0.1009,0,S,8.0
S8,44.0,59.0,63.0,53.0,53.0,63,2690.0,square2,f,0.2506,1,S,8.0
S8,45.0,62.0,62.0,60.0,53.0,62,2752.0,square1,r,0.034,0,S,8.0
S8,46.0,56.0,62.0,57.0,60.0,62,2814.0,square2,f,0.0509,1,S,8.0
S8,47.0,60.0,63.0,58.0,56.0,60,2874.0,square1,r,0.0672,0,S,8.0
S8,48.0,59.0,63.0,49.0,53.0,63,2937.0,square2,f,0.0881,1,S,8.0
S8,49.0,67.0,67.0,59.0,55.0,67,3004.0,square1,r,0.0863,0,S,8.0
