block,Trial,square1,square2,square3,square4,currPoints,totalPoints,square,choiceKey.keys,choiceKey.rt,armNum,blockType,blockNum
prac,0.0,100.0,0.0,0.0,0.0,0,0.0,square3,,,2,p,0.0
prac,1.0,100.0,0.0,0.0,0.0,0,0.0,square4,,,3,p,0.0
prac,2.0,100.0,0.0,0.0,0.0,0,0.0,square3,,,2,p,0.0
prac,3.0,100.0,0.0,0.0,0.0,0,0.0,square2,,,1,p,0.0
prac,4.0,100.0,0.0,0.0,0.0,100,100.0,square1,,,0,p,0.0
prac,5.0,100.0,0.0,0.0,0.0,100,200.0,square1,,,0,p,0.0
prac,6.0,100.0,0.0,0.0,0.0,100,300.0,square1,,,0,p,0.0
prac,7.0,100.0,0.0,0.0,0.0,100,400.0,square1,,,0,p,0.0
prac,8.0,100.0,0.0,0.0,0.0,100,500.0,square1,,,0,p,0.0
prac,9.0,100.0,0.0,0.0,0.0,100,600.0,square1,,,0,p,0.0
V2,0.0,33.0,24.0,43.0,18.0,43,43.0,square3,f,0.7901,2,V,2.0
V2,1.0,33.0,29.0,42.0,21.0,29,72.0,square2,r,0.5324,1,V,2.0
V2,2.0,37.0,26.0,45.0,22.0,37,109.0,square1,i,0.2749,0,V,2.0
V2,3.0,39.0,26.0,41.0,20.0,20,129.0,square4,j,0.0796,3,V,2.0
V2,4.0,29.0,32.0,45.0,19.0,45,174.0,square3,f,0.1496,2,V,2.0
V2,5.0,33.0,28.0,44.0,17.0,44,218.0,square3,f,0.239,2,V,2.0
V2,6.0,32.0,24.0,49.0,20.0,49,267.0,square3,f,0.2162,2,V,2.0
V2,7.0,32.0,21.0,42.0,13.0,42,309.0,square3,f,0.2646,2,V,2.0
V2,8.0,35.0,23.0,45.0,19.0,45,354.0,square3,f,0.243,2,V,2.0
V2,9.0,33.0,28.0,46.0,17.0,46,400.0,square3,f,0.2441,2,V,2.0
V2,10.0,39.0,27.0,45.0,21.0,45,445.0,square3,f,0.1674,2,V,2.0
V2,11.0,30.0,23.0,44.0,22.0,44,489.0,square3,f,0.2468,2,V,2.0
V2,12.0,31.0,26.0,43.0,16.0,43,532.0,square3,f,0.1277,2,V,2.0
V2,13.0,35.0,26.0,43.0,22.0,43,575.0,square3,f,0.2669,2,V,2.0
V2,14.0,35.0,29.0,46.0,19.0,46,621.0,square3,f,0.2568,2,V,2.0
V2,15.0,36.0,22.0,44.0,20.0,44,665.0,square3,f,0.2596,2,V,2.0
V2,16.0,33.0,27.0,45.0,19.0,27,692.0,square2,r,0.1133,1,V,2.0
V2,17.0,35.0,25.0,41.0,15.0,41,733.0,square3,f,0.4752,2,V,2.0
V2,18.0,37.0,27.0,51.0,21.0,51,784.0,square3,f,0.2164,2,V,2.0
V2,19.0,33.0,25.0,43.0,18.0,43,827.0,square3,f,0.119,2,V,2.0
V2,20.0,39.0,25.0,43.0,20.0,43,870.0,square3,f,0.2122,2,V,2.0
V2,21.0,27.0,32.0,43.0,24.0,43,913.0,square3,f,0.2253,2,V,2.0
V2,22.0,35.0,27.0,50.0,13.0,50,963.0,square3,f,0.2036,2,V,2.0
V2,23.0,36.0,25.0,39.0,17.0,39,1002.0,square3,f,0.1949,2,V,2.0
V2,24.0,32.0,45.0,39.0,59.0,39,1041.0,square3,f,0.2541,2,V,2.0
V2,25.0,26.0,43.0,37.0,55.0,37,1078.0,square3,f,0.2361,2,V,2.0
V2,26.0,23.0,45.0,39.0,58.0,39,1117.0,square3,f,0.2254,2,V,2.0
V2,27.0,30.0,44.0,40.0,56.0,40,1157.0,square3,f,0.1987,2,V,2.0
V2,28.0,34.0,48.0,41.0,54.0,41,1198.0,square3,f,0.1544,2,V,2.0
V2,29.0,29.0,42.0,35.0,54.0,35,1233.0,square3,f,0.3001,2,V,2.0
V2,30.0,22.0,39.0,39.0,55.0,39,1272.0,square3,f,0.1781,2,V,2.0
V2,31.0,32.0,48.0,35.0,50.0,35,1307.0,square3,f,0.2035,2,V,2.0
V2,32.0,27.0,47.0,40.0,58.0,40,1347.0,square3,f,0.2258,2,V,2.0
V2,33.0,28.0,46.0,31.0,54.0,31,1378.0,square3,f,0.16,2,V,2.0
V2,34.0,28.0,44.0,41.0,49.0,41,1419.0,square3,f,0.0986,2,V,2.0
V2,35.0,31.0,44.0,33.0,59.0,33,1452.0,square3,f,0.0648,2,V,2.0
V2,36.0,29.0,48.0,30.0,55.0,30,1482.0,square3,f,0.2298,2,V,2.0
V2,37.0,25.0,45.0,32.0,51.0,32,1514.0,square3,f,0.1195,2,V,2.0
V2,38.0,29.0,48.0,33.0,54.0,54,1568.0,square4,j,0.4551,3,V,2.0
V2,39.0,29.0,44.0,33.0,54.0,54,1622.0,square4,j,0.1279,3,V,2.0
V2,40.0,33.0,42.0,37.0,61.0,61,1683.0,square4,j,0.1607,3,V,2.0
V2,41.0,28.0,45.0,41.0,57.0,57,1740.0,square4,j,0.0722,3,V,2.0
V2,42.0,33.0,46.0,36.0,54.0,54,1794.0,square4,j,0.1636,3,V,2.0
V2,43.0,31.0,42.0,40.0,57.0,57,1851.0,square4,j,0.4734,3,V,2.0
V2,44.0,27.0,45.0,38.0,56.0,56,1907.0,square4,j,0.2089,3,V,2.0
V2,45.0,27.0,44.0,32.0,51.0,51,1958.0,square4,j,0.1965,3,V,2.0
V2,46.0,28.0,44.0,39.0,57.0,57,2015.0,square4,j,0.0561,3,V,2.0
V2,47.0,30.0,45.0,36.0,56.0,56,2071.0,square4,j,0.2031,3,V,2.0
V2,48.0,31.0,47.0,41.0,59.0,59,2130.0,square4,j,0.1421,3,V,2.0
V2,49.0,32.0,45.0,33.0,57.0,57,2187.0,square4,j,0.0082,3,V,2.0
V2,50.0,24.0,38.0,36.0,52.0,24,2211.0,square1,i,0.459,0,V,2.0
V2,51.0,29.0,48.0,34.0,54.0,54,2265.0,square4,j,0.295,3,V,2.0
V2,52.0,30.0,50.0,38.0,56.0,56,2321.0,square4,j,0.0671,3,V,2.0
V2,53.0,27.0,47.0,33.0,55.0,55,2376.0,square4,j,0.1073,3,V,2.0
V2,54.0,34.0,21.0,45.0,25.0,25,2401.0,square4,j,0.1949,3,V,2.0
V2,55.0,36.0,19.0,39.0,24.0,19,2420.0,square2,r,0.1678,1,V,2.0
V2,56.0,29.0,19.0,45.0,18.0,29,2449.0,square1,i,0.0701,0,V,2.0
V2,57.0,29.0,20.0,39.0,20.0,20,2469.0,square4,j,0.3893,3,V,2.0
V2,58.0,40.0,18.0,42.0,21.0,42,2511.0,square3,f,0.0914,2,V,2.0
V2,59.0,31.0,17.0,44.0,23.0,44,2555.0,square3,f,0.2118,2,V,2.0
V2,60.0,31.0,19.0,42.0,20.0,42,2597.0,square3,f,0.2596,2,V,2.0
V2,61.0,34.0,16.0,41.0,25.0,25,2622.0,square4,j,0.0573,3,V,2.0
V2,62.0,28.0,12.0,41.0,22.0,41,2663.0,square3,f,0.0423,2,V,2.0
V2,63.0,32.0,14.0,45.0,26.0,45,2708.0,square3,f,0.1894,2,V,2.0
V2,64.0,36.0,21.0,41.0,25.0,41,2749.0,square3,f,0.1792,2,V,2.0
V2,65.0,32.0,13.0,39.0,24.0,39,2788.0,square3,f,0.1676,2,V,2.0
V2,66.0,35.0,15.0,42.0,20.0,42,2830.0,square3,f,0.1581,2,V,2.0
V2,67.0,30.0,23.0,47.0,27.0,47,2877.0,square3,f,0.1324,2,V,2.0
V2,68.0,31.0,17.0,43.0,24.0,43,2920.0,square3,f,0.1106,2,V,2.0
V2,69.0,33.0,20.0,41.0,20.0,41,2961.0,square3,f,0.2065,2,V,2.0
V2,70.0,37.0,17.0,43.0,21.0,43,3004.0,square3,f,0.0006,2,V,2.0
V2,71.0,45.0,31.0,36.0,58.0,36,3040.0,square3,f,0.2073,2,V,2.0
V2,72.0,47.0,31.0,31.0,54.0,31,3071.0,square3,f,0.0961,2,V,2.0
V2,73.0,50.0,30.0,33.0,55.0,33,3104.0,square3,f,0.201,2,V,2.0
V2,74.0,45.0,31.0,36.0,51.0,31,3135.0,square2,r,0.2303,1,V,2.0
V2,75.0,47.0,28.0,38.0,54.0,28,3163.0,square2,r,0.0401,1,V,2.0
V2,76.0,52.0,33.0,35.0,60.0,52,3215.0,square1,i,0.0877,0,V,2.0
V2,77.0,41.0,29.0,37.0,53.0,41,3256.0,square1,i,0.1111,0,V,2.0
V2,78.0,51.0,24.0,34.0,56.0,51,3307.0,square1,i,0.1333,0,V,2.0
V2,79.0,41.0,34.0,36.0,52.0,41,3348.0,square1,i,0.1447,0,V,2.0
V2,80.0,48.0,31.0,37.0,51.0,48,3396.0,square1,i,0.1363,0,V,2.0
V2,81.0,43.0,32.0,40.0,53.0,43,3439.0,square1,i,0.0412,0,V,2.0
V2,82.0,48.0,25.0,37.0,58.0,48,3487.0,square1,i,0.1798,0,V,2.0
V2,83.0,45.0,32.0,36.0,61.0,45,3532.0,square1,i,0.0767,0,V,2.0
V2,84.0,47.0,29.0,39.0,60.0,47,3579.0,square1,i,0.1166,0,V,2.0
V2,85.0,49.0,30.0,39.0,54.0,49,3628.0,square1,i,0.0277,0,V,2.0
V2,86.0,46.0,28.0,33.0,51.0,46,3674.0,square1,i,0.0201,0,V,2.0
V2,87.0,45.0,24.0,37.0,55.0,45,3719.0,square1,i,0.131,0,V,2.0
V2,88.0,48.0,29.0,42.0,54.0,48,3767.0,square1,i,0.0556,0,V,2.0
V2,89.0,43.0,31.0,38.0,52.0,43,3810.0,square1,i,0.1724,0,V,2.0
V2,90.0,51.0,33.0,36.0,56.0,51,3861.0,square1,i,0.034,0,V,2.0
V2,91.0,49.0,32.0,37.0,59.0,49,3910.0,square1,i,0.1433,0,V,2.0
V2,92.0,47.0,29.0,37.0,56.0,47,3957.0,square1,i,0.0482,0,V,2.0
V2,93.0,45.0,27.0,35.0,56.0,45,4002.0,square1,i,0.2148,0,V,2.0
V2,94.0,45.0,31.0,31.0,49.0,45,4047.0,square1,i,0.0203,0,V,2.0
V2,95.0,47.0,33.0,36.0,52.0,47,4094.0,square1,i,0.0337,0,V,2.0
V2,96.0,44.0,28.0,37.0,59.0,44,4138.0,square1,i,0.5691,0,V,2.0
V2,97.0,48.0,28.0,33.0,55.0,48,4186.0,square1,i,0.1942,0,V,2.0
V2,98.0,49.0,29.0,39.0,60.0,49,4235.0,square1,i,0.0753,0,V,2.0
V2,99.0,44.0,30.0,36.0,50.0,44,4279.0,square1,i,0.2344,0,V,2.0
V4,0.0,63.0,38.0,47.0,55.0,63,63.0,square1,j,0.7252,0,V,4.0
V4,1.0,66.0,42.0,43.0,59.0,43,106.0,square3,i,0.5828,2,V,4.0
V4,2.0,66.0,39.0,57.0,59.0,59,165.0,square4,r,0.1994,3,V,4.0
V4,3.0,66.0,37.0,51.0,59.0,37,202.0,square2,f,0.1585,1,V,4.0
V4,4.0,69.0,37.0,50.0,55.0,69,271.0,square1,j,0.046,0,V,4.0
V4,5.0,64.0,44.0,46.0,62.0,64,335.0,square1,j,0.1589,0,V,4.0
V4,6.0,75.0,43.0,49.0,57.0,75,410.0,square1,j,0.2083,0,V,4.0
V4,7.0,62.0,41.0,52.0,59.0,62,472.0,square1,j,0.2208,0,V,4.0
V4,8.0,65.0,41.0,44.0,60.0,65,537.0,square1,j,0.2548,0,V,4.0
V4,9.0,68.0,35.0,44.0,64.0,68,605.0,square1,j,0.1709,0,V,4.0
V4,10.0,67.0,44.0,48.0,61.0,67,672.0,square1,j,0.1935,0,V,4.0
V4,11.0,61.0,40.0,48.0,56.0,61,733.0,square1,j,0.0821,0,V,4.0
V4,12.0,68.0,41.0,49.0,55.0,68,801.0,square1,j,0.1111,0,V,4.0
V4,13.0,63.0,42.0,47.0,60.0,63,864.0,square1,j,0.1317,0,V,4.0
V4,14.0,63.0,40.0,51.0,55.0,63,927.0,square1,j,0.1295,0,V,4.0
V4,15.0,62.0,41.0,52.0,62.0,62,989.0,square1,j,0.0348,0,V,4.0
V4,16.0,69.0,37.0,47.0,60.0,69,1058.0,square1,j,0.3724,0,V,4.0
V4,17.0,66.0,40.0,48.0,56.0,66,1124.0,square1,j,0.32,0,V,4.0
V4,18.0,67.0,43.0,47.0,59.0,67,1191.0,square1,j,0.2827,0,V,4.0
V4,19.0,64.0,42.0,51.0,59.0,64,1255.0,square1,j,0.3326,0,V,4.0
V4,20.0,67.0,40.0,47.0,58.0,67,1322.0,square1,j,0.7906,0,V,4.0
V4,21.0,60.0,41.0,50.0,59.0,60,1382.0,square1,j,0.208,0,V,4.0
V4,22.0,66.0,43.0,54.0,55.0,66,1448.0,square1,j,0.0052,0,V,4.0
V4,23.0,67.0,37.0,50.0,62.0,67,1515.0,square1,j,0.2586,0,V,4.0
V4,24.0,67.0,37.0,49.0,60.0,67,1582.0,square1,j,0.0908,0,V,4.0
V4,25.0,67.0,39.0,55.0,52.0,67,1649.0,square1,j,0.2426,0,V,4.0
V4,26.0,64.0,39.0,51.0,63.0,64,1713.0,square1,j,0.2075,0,V,4.0
V4,27.0,68.0,36.0,55.0,60.0,68,1781.0,square1,j,0.2216,0,V,4.0
V4,28.0,67.0,40.0,46.0,54.0,67,1848.0,square1,j,0.2002,0,V,4.0
V4,29.0,67.0,41.0,50.0,57.0,67,1915.0,square1,j,0.2828,0,V,4.0
V4,30.0,66.0,39.0,49.0,53.0,66,1981.0,square1,j,0.187,0,V,4.0
V4,31.0,70.0,38.0,48.0,58.0,70,2051.0,square1,j,0.2712,0,V,4.0
V4,32.0,63.0,40.0,53.0,61.0,63,2114.0,square1,j,0.0911,0,V,4.0
V4,33.0,66.0,41.0,51.0,56.0,66,2180.0,square1,j,0.2068,0,V,4.0
V4,34.0,64.0,39.0,46.0,57.0,64,2244.0,square1,j,0.1601,0,V,4.0
V4,35.0,69.0,36.0,50.0,58.0,69,2313.0,square1,j,0.2266,0,V,4.0
V4,36.0,60.0,43.0,53.0,54.0,60,2373.0,square1,j,0.2202,0,V,4.0
V4,37.0,52.0,78.0,68.0,66.0,52,2425.0,square1,j,0.096,0,V,4.0
V4,38.0,44.0,81.0,68.0,62.0,62,2487.0,square4,r,0.1658,3,V,4.0
V4,39.0,59.0,71.0,70.0,63.0,63,2550.0,square4,r,0.1776,3,V,4.0
V4,40.0,53.0,77.0,73.0,59.0,59,2609.0,square4,r,0.2071,3,V,4.0
V4,41.0,53.0,76.0,74.0,66.0,66,2675.0,square4,r,0.2149,3,V,4.0
V4,42.0,51.0,79.0,73.0,59.0,59,2734.0,square4,r,0.2142,3,V,4.0
V4,43.0,48.0,76.0,68.0,65.0,65,2799.0,square4,r,0.1729,3,V,4.0
V4,44.0,57.0,83.0,78.0,63.0,63,2862.0,square4,r,0.2338,3,V,4.0
V4,45.0,54.0,74.0,69.0,61.0,61,2923.0,square4,r,0.3172,3,V,4.0
V4,46.0,53.0,85.0,66.0,62.0,62,2985.0,square4,r,0.3597,3,V,4.0
V4,47.0,56.0,83.0,68.0,57.0,57,3042.0,square4,r,0.0838,3,V,4.0
V4,48.0,49.0,74.0,73.0,59.0,59,3101.0,square4,r,0.1813,3,V,4.0
V4,49.0,54.0,74.0,70.0,60.0,60,3161.0,square4,r,0.1109,3,V,4.0
V4,50.0,47.0,83.0,69.0,60.0,60,3221.0,square4,r,0.2005,3,V,4.0
V4,51.0,54.0,78.0,73.0,56.0,56,3277.0,square4,r,0.2726,3,V,4.0
V4,52.0,52.0,76.0,71.0,58.0,52,3329.0,square1,j,0.2128,0,V,4.0
V4,53.0,51.0,82.0,76.0,63.0,63,3392.0,square4,r,0.0275,3,V,4.0
V4,54.0,57.0,76.0,69.0,64.0,64,3456.0,square4,r,0.1874,3,V,4.0
V4,55.0,49.0,75.0,68.0,59.0,59,3515.0,square4,r,0.0115,3,V,4.0
V4,56.0,55.0,81.0,66.0,65.0,65,3580.0,square4,r,0.4704,3,V,4.0
V4,57.0,58.0,80.0,72.0,63.0,63,3643.0,square4,r,0.139,3,V,4.0
V4,58.0,49.0,81.0,66.0,62.0,62,3705.0,square4,r,0.131,3,V,4.0
V4,59.0,57.0,78.0,73.0,59.0,59,3764.0,square4,r,0.0894,3,V,4.0
V4,60.0,48.0,79.0,66.0,59.0,59,3823.0,square4,r,0.1405,3,V,4.0
V4,61.0,53.0,80.0,72.0,60.0,60,3883.0,square4,r,0.0756,3,V,4.0
V4,62.0,53.0,79.0,70.0,61.0,61,3944.0,square4,r,0.0641,3,V,4.0
V4,63.0,81.0,66.0,90.0,66.0,66,4010.0,square4,r,0.3665,3,V,4.0
V4,64.0,80.0,64.0,85.0,76.0,76,4086.0,square4,r,0.1605,3,V,4.0
V4,65.0,77.0,61.0,92.0,74.0,74,4160.0,square4,r,0.1323,3,V,4.0
V4,66.0,89.0,65.0,91.0,73.0,73,4233.0,square4,r,0.2135,3,V,4.0
V4,67.0,86.0,64.0,92.0,70.0,70,4303.0,square4,r,0.0204,3,V,4.0
V4,68.0,82.0,60.0,91.0,77.0,77,4380.0,square4,r,0.1188,3,V,4.0
V4,69.0,78.0,69.0,90.0,70.0,70,4450.0,square4,r,0.1232,3,V,4.0
V4,70.0,85.0,64.0,95.0,73.0,73,4523.0,square4,r,0.0956,3,V,4.0
V4,71.0,85.0,61.0,88.0,69.0,69,4592.0,square4,r,0.2226,3,V,4.0
V4,72.0,86.0,63.0,87.0,75.0,75,4667.0,square4,r,0.0259,3,V,4.0
V4,73.0,86.0,69.0,92.0,70.0,70,4737.0,square4,r,0.1864,3,V,4.0
V4,74.0,81.0,62.0,90.0,69.0,62,4799.0,square2,f,0.2351,1,V,4.0
V4,75.0,83.0,66.0,88.0,74.0,74,4873.0,square4,r,0.0737,3,V,4.0
V4,76.0,80.0,64.0,92.0,75.0,64,4937.0,square2,f,0.0622,1,V,4.0
V4,77.0,81.0,65.0,91.0,74.0,74,5011.0,square4,r,0.2547,3,V,4.0
V4,78.0,78.0,70.0,89.0,73.0,73,5084.0,square4,r,0.3327,3,V,4.0
V4,79.0,84.0,66.0,85.0,75.0,75,5159.0,square4,r,0.0065,3,V,4.0
V4,80.0,83.0,65.0,93.0,74.0,74,5233.0,square4,r,0.2097,3,V,4.0
V4,81.0,86.0,59.0,91.0,74.0,74,5307.0,square4,r,0.0556,3,V,4.0
V4,82.0,87.0,64.0,92.0,73.0,73,5380.0,square4,r,0.1681,3,V,4.0
V4,83.0,83.0,68.0,86.0,70.0,70,5450.0,square4,r,0.2286,3,V,4.0
V4,84.0,82.0,62.0,87.0,73.0,73,5523.0,square4,r,0.1799,3,V,4.0
V4,85.0,85.0,61.0,90.0,70.0,70,5593.0,square4,r,0.1874,3,V,4.0
V4,86.0,84.0,66.0,97.0,71.0,71,5664.0,square4,r,0.2508,3,V,4.0
V4,87.0,82.0,64.0,87.0,71.0,71,5735.0,square4,r,0.5202,3,V,4.0
V4,88.0,80.0,67.0,93.0,72.0,72,5807.0,square4,r,0.0742,3,V,4.0
V4,89.0,78.0,64.0,92.0,75.0,75,5882.0,square4,r,0.1656,3,V,4.0
V4,90.0,75.0,66.0,88.0,72.0,72,5954.0,square4,r,0.1266,3,V,4.0
V4,91.0,82.0,59.0,91.0,76.0,76,6030.0,square4,r,0.126,3,V,4.0
V4,92.0,84.0,62.0,91.0,70.0,70,6100.0,square4,r,0.1301,3,V,4.0
V4,93.0,80.0,61.0,94.0,76.0,76,6176.0,square4,r,0.2423,3,V,4.0
V4,94.0,83.0,64.0,88.0,72.0,72,6248.0,square4,r,0.0406,3,V,4.0
V4,95.0,82.0,60.0,94.0,69.0,69,6317.0,square4,r,0.1929,3,V,4.0
V4,96.0,84.0,63.0,92.0,72.0,72,6389.0,square4,r,0.1811,3,V,4.0
V4,97.0,84.0,62.0,85.0,70.0,70,6459.0,square4,r,0.1877,3,V,4.0
V4,98.0,81.0,64.0,93.0,72.0,72,6531.0,square4,r,0.2144,3,V,4.0
V4,99.0,80.0,61.0,92.0,75.0,75,6606.0,square4,r,0.1164,3,V,4.0
V7,0.0,86.0,61.0,78.0,68.0,61,61.0,square2,r,1.3081,1,V,7.0
V7,1.0,95.0,62.0,79.0,70.0,95,156.0,square1,i,0.0937,0,V,7.0
V7,2.0,89.0,67.0,81.0,77.0,81,237.0,square3,f,0.5007,2,V,7.0
V7,3.0,90.0,56.0,85.0,72.0,72,309.0,square4,j,0.4129,3,V,7.0
V7,4.0,91.0,65.0,77.0,71.0,91,400.0,square1,i,0.1392,0,V,7.0
V7,5.0,91.0,58.0,84.0,72.0,91,491.0,square1,i,0.3824,0,V,7.0
V7,6.0,94.0,65.0,87.0,72.0,94,585.0,square1,i,1.4172,0,V,7.0
V7,7.0,89.0,67.0,79.0,67.0,89,674.0,square1,i,0.2745,0,V,7.0
V7,8.0,91.0,65.0,84.0,68.0,91,765.0,square1,i,0.2158,0,V,7.0
V7,9.0,92.0,60.0,87.0,69.0,92,857.0,square1,i,0.0422,0,V,7.0
V7,10.0,90.0,67.0,81.0,76.0,90,947.0,square1,i,0.0767,0,V,7.0
V7,11.0,86.0,67.0,83.0,73.0,86,1033.0,square1,i,0.0422,0,V,7.0
V7,12.0,90.0,62.0,80.0,72.0,90,1123.0,square1,i,0.3826,0,V,7.0
V7,13.0,84.0,60.0,88.0,71.0,84,1207.0,square1,i,0.0559,0,V,7.0
V7,14.0,95.0,64.0,80.0,70.0,95,1302.0,square1,i,0.2183,0,V,7.0
V7,15.0,86.0,60.0,81.0,70.0,86,1388.0,square1,i,0.1049,0,V,7.0
V7,16.0,85.0,65.0,77.0,69.0,85,1473.0,square1,i,0.2117,0,V,7.0
V7,17.0,91.0,65.0,81.0,70.0,91,1564.0,square1,i,0.1534,0,V,7.0
V7,18.0,95.0,61.0,81.0,76.0,95,1659.0,square1,i,0.1282,0,V,7.0
V7,19.0,90.0,58.0,79.0,72.0,90,1749.0,square1,i,0.1672,0,V,7.0
V7,20.0,94.0,68.0,80.0,79.0,94,1843.0,square1,i,0.1751,0,V,7.0
V7,21.0,92.0,66.0,82.0,70.0,92,1935.0,square1,i,0.1956,0,V,7.0
V7,22.0,92.0,64.0,83.0,72.0,92,2027.0,square1,i,0.1256,0,V,7.0
V7,23.0,91.0,68.0,82.0,73.0,91,2118.0,square1,i,0.2958,0,V,7.0
V7,24.0,87.0,71.0,82.0,72.0,87,2205.0,square1,i,0.0632,0,V,7.0
V7,25.0,91.0,68.0,90.0,74.0,91,2296.0,square1,i,0.1741,0,V,7.0
V7,26.0,89.0,65.0,83.0,72.0,89,2385.0,square1,i,0.0428,0,V,7.0
V7,27.0,91.0,61.0,81.0,73.0,91,2476.0,square1,i,0.0531,0,V,7.0
V7,28.0,90.0,66.0,81.0,72.0,90,2566.0,square1,i,0.0352,0,V,7.0
V7,29.0,89.0,67.0,77.0,71.0,89,2655.0,square1,i,0.2189,0,V,7.0
V7,30.0,95.0,68.0,84.0,71.0,95,2750.0,square1,i,0.2124,0,V,7.0
V7,31.0,95.0,61.0,81.0,70.0,95,2845.0,square1,i,0.2438,0,V,7.0
V7,32.0,89.0,65.0,82.0,75.0,89,2934.0,square1,i,0.0586,0,V,7.0
V7,33.0,77.0,50.0,80.0,61.0,77,3011.0,square1,i,0.1218,0,V,7.0
V7,34.0,76.0,54.0,78.0,61.0,76,3087.0,square1,i,0.2227,0,V,7.0
V7,35.0,71.0,51.0,80.0,64.0,71,3158.0,square1,i,0.2111,0,V,7.0
V7,36.0,75.0,51.0,80.0,62.0,51,3209.0,square2,r,0.2254,1,V,7.0
V7,37.0,73.0,58.0,86.0,63.0,86,3295.0,square3,f,0.3545,2,V,7.0
V7,38.0,73.0,50.0,86.0,61.0,61,3356.0,square4,j,0.2951,3,V,7.0
V7,39.0,67.0,53.0,78.0,61.0,78,3434.0,square3,f,0.2991,2,V,7.0
V7,40.0,71.0,53.0,84.0,58.0,84,3518.0,square3,f,0.2268,2,V,7.0
V7,41.0,75.0,51.0,83.0,63.0,83,3601.0,square3,f,0.2261,2,V,7.0
V7,42.0,69.0,48.0,87.0,63.0,87,3688.0,square3,f,0.2021,2,V,7.0
V7,43.0,70.0,58.0,81.0,60.0,81,3769.0,square3,f,0.2015,2,V,7.0
V7,44.0,68.0,56.0,76.0,63.0,76,3845.0,square3,f,0.1892,2,V,7.0
V7,45.0,74.0,59.0,76.0,56.0,76,3921.0,square3,f,0.0792,2,V,7.0
V7,46.0,72.0,54.0,77.0,61.0,77,3998.0,square3,f,0.1629,2,V,7.0
V7,47.0,69.0,47.0,81.0,62.0,81,4079.0,square3,f,0.2089,2,V,7.0
V7,48.0,75.0,52.0,81.0,57.0,81,4160.0,square3,f,0.1564,2,V,7.0
V7,49.0,74.0,55.0,78.0,60.0,78,4238.0,square3,f,0.1253,2,V,7.0
V7,50.0,71.0,51.0,80.0,61.0,80,4318.0,square3,f,0.1702,2,V,7.0
V7,51.0,75.0,55.0,85.0,62.0,85,4403.0,square3,f,0.1009,2,V,7.0
V7,52.0,75.0,59.0,76.0,59.0,76,4479.0,square3,f,0.2055,2,V,7.0
V7,53.0,72.0,53.0,84.0,66.0,84,4563.0,square3,f,0.2047,2,V,7.0
V7,54.0,69.0,51.0,81.0,60.0,69,4632.0,square1,i,0.0423,0,V,7.0
V7,55.0,74.0,56.0,75.0,54.0,75,4707.0,square3,f,0.3239,2,V,7.0
V7,56.0,76.0,51.0,83.0,58.0,83,4790.0,square3,f,0.2118,2,V,7.0
V7,57.0,71.0,53.0,80.0,64.0,80,4870.0,square3,f,0.0722,2,V,7.0
V7,58.0,81.0,56.0,79.0,61.0,79,4949.0,square3,f,0.181,2,V,7.0
V7,59.0,71.0,55.0,83.0,59.0,83,5032.0,square3,f,0.1322,2,V,7.0
V7,60.0,73.0,53.0,83.0,64.0,83,5115.0,square3,f,0.042,2,V,7.0
V7,61.0,70.0,53.0,77.0,63.0,77,5192.0,square3,f,0.3967,2,V,7.0
V7,62.0,71.0,54.0,76.0,61.0,76,5268.0,square3,f,0.1395,2,V,7.0
V7,63.0,68.0,45.0,79.0,65.0,79,5347.0,square3,f,0.2098,2,V,7.0
V7,64.0,65.0,55.0,79.0,59.0,79,5426.0,square3,f,0.2473,2,V,7.0
V7,65.0,74.0,54.0,81.0,61.0,81,5507.0,square3,f,0.0978,2,V,7.0
V7,66.0,70.0,56.0,81.0,63.0,81,5588.0,square3,f,0.1206,2,V,7.0
V7,67.0,70.0,85.0,64.0,92.0,64,5652.0,square3,f,0.1506,2,V,7.0
V7,68.0,73.0,85.0,68.0,92.0,68,5720.0,square3,f,0.2024,2,V,7.0
V7,69.0,75.0,83.0,70.0,91.0,70,5790.0,square3,f,0.1675,2,V,7.0
V7,70.0,75.0,85.0,69.0,91.0,69,5859.0,square3,f,0.1048,2,V,7.0
V7,71.0,71.0,86.0,65.0,94.0,65,5924.0,square3,f,0.2924,2,V,7.0
V7,72.0,77.0,86.0,65.0,98.0,77,6001.0,square1,i,0.216,0,V,7.0
V7,73.0,77.0,84.0,63.0,94.0,77,6078.0,square1,i,0.181,0,V,7.0
V7,74.0,71.0,86.0,64.0,91.0,71,6149.0,square1,i,0.1823,0,V,7.0
V7,75.0,73.0,90.0,60.0,90.0,73,6222.0,square1,i,0.3371,0,V,7.0
V7,76.0,79.0,84.0,68.0,95.0,79,6301.0,square1,i,0.0079,0,V,7.0
V7,77.0,73.0,85.0,66.0,89.0,73,6374.0,square1,i,0.2186,0,V,7.0
V7,78.0,75.0,82.0,67.0,91.0,75,6449.0,square1,i,0.2923,0,V,7.0
V7,79.0,72.0,85.0,60.0,90.0,72,6521.0,square1,i,0.2041,0,V,7.0
V7,80.0,73.0,83.0,66.0,97.0,73,6594.0,square1,i,0.2337,0,V,7.0
V7,81.0,73.0,84.0,67.0,92.0,73,6667.0,square1,i,0.1414,0,V,7.0
V7,82.0,69.0,84.0,65.0,91.0,69,6736.0,square1,i,0.3832,0,V,7.0
V7,83.0,76.0,83.0,72.0,99.0,76,6812.0,square1,i,0.3348,0,V,7.0
V7,84.0,72.0,84.0,70.0,94.0,72,6884.0,square1,i,0.1076,0,V,7.0
V7,85.0,77.0,83.0,67.0,88.0,77,6961.0,square1,i,0.1952,0,V,7.0
V7,86.0,76.0,80.0,67.0,90.0,76,7037.0,square1,i,0.121,0,V,7.0
V7,87.0,70.0,86.0,67.0,95.0,70,7107.0,square1,i,0.0862,0,V,7.0
V7,88.0,76.0,84.0,67.0,100.0,76,7183.0,square1,i,0.1881,0,V,7.0
V7,89.0,71.0,88.0,60.0,97.0,71,7254.0,square1,i,0.2089,0,V,7.0
V7,90.0,69.0,82.0,71.0,95.0,69,7323.0,square1,i,0.1851,0,V,7.0
V7,91.0,80.0,84.0,65.0,92.0,65,7388.0,square3,f,0.2783,2,V,7.0
V7,92.0,77.0,85.0,68.0,85.0,77,7465.0,square1,i,0.1535,0,V,7.0
V7,93.0,72.0,84.0,66.0,91.0,72,7537.0,square1,i,0.0594,0,V,7.0
V7,94.0,69.0,83.0,66.0,95.0,69,7606.0,square1,i,0.2308,0,V,7.0
V7,95.0,70.0,86.0,75.0,91.0,70,7676.0,square1,i,0.2574,0,V,7.0
V7,96.0,74.0,85.0,66.0,88.0,74,7750.0,square1,i,0.197,0,V,7.0
V7,97.0,77.0,82.0,73.0,91.0,77,7827.0,square1,i,0.0561,0,V,7.0
V7,98.0,76.0,91.0,62.0,94.0,76,7903.0,square1,i,0.1849,0,V,7.0
V7,99.0,74.0,84.0,67.0,88.0,74,7977.0,square1,i,0.2713,0,V,7.0
NS8,0.0,61.0,62.0,34.0,32.0,62,62.0,square2,i,1.0312,1,N,8.0
NS8,1.0,57.0,56.0,38.0,27.0,38,100.0,square3,r,0.2851,2,N,8.0
NS8,2.0,66.0,55.0,42.0,28.0,28,128.0,square4,f,0.2119,3,N,8.0
NS8,3.0,67.0,51.0,37.0,28.0,67,195.0,square1,j,0.2299,0,N,8.0
NS8,4.0,65.0,53.0,38.0,32.0,65,260.0,square1,j,0.2387,0,N,8.0
NS8,5.0,67.0,52.0,43.0,33.0,67,327.0,square1,j,0.1804,0,N,8.0
NS8,6.0,56.0,47.0,41.0,36.0,56,383.0,square1,j,0.2469,0,N,8.0
NS8,7.0,58.0,46.0,37.0,31.0,37,420.0,square3,r,0.3615,2,N,8.0
NS8,8.0,60.0,58.0,36.0,35.0,60,480.0,square1,j,0.2157,0,N,8.0
NS8,9.0,60.0,66.0,41.0,39.0,60,540.0,square1,j,0.1908,0,N,8.0
NS8,10.0,60.0,60.0,36.0,33.0,60,600.0,square1,j,0.1763,0,N,8.0
NS8,11.0,53.0,63.0,32.0,35.0,63,663.0,square2,i,0.0096,1,N,8.0
NS8,12.0,51.0,60.0,32.0,29.0,51,714.0,square1,j,0.0311,0,N,8.0
NS8,13.0,53.0,65.0,30.0,32.0,65,779.0,square2,i,0.3201,1,N,8.0
NS8,14.0,56.0,69.0,25.0,33.0,69,848.0,square2,i,0.1538,1,N,8.0
NS8,15.0,57.0,71.0,29.0,35.0,71,919.0,square2,i,0.2506,1,N,8.0
NS8,16.0,55.0,64.0,31.0,33.0,64,983.0,square2,i,0.2097,1,N,8.0
NS8,17.0,48.0,65.0,29.0,32.0,65,1048.0,square2,i,0.0212,1,N,8.0
NS8,18.0,44.0,64.0,28.0,34.0,64,1112.0,square2,i,0.354,1,N,8.0
NS8,19.0,46.0,60.0,26.0,33.0,60,1172.0,square2,i,0.2322,1,N,8.0
NS8,20.0,41.0,58.0,29.0,35.0,58,1230.0,square2,i,0.2308,1,N,8.0
NS8,21.0,45.0,57.0,29.0,35.0,57,1287.0,square2,i,0.1952,1,N,8.0
NS8,22.0,47.0,53.0,32.0,32.0,53,1340.0,square2,i,0.1439,1,N,8.0
NS8,23.0,49.0,52.0,33.0,35.0,49,1389.0,square1,j,0.1252,0,N,8.0
NS8,24.0,56.0,53.0,30.0,37.0,37,1426.0,square4,f,0.0979,3,N,8.0
NS8,25.0,57.0,48.0,28.0,42.0,57,1483.0,square1,j,0.2038,0,N,8.0
NS8,26.0,52.0,48.0,33.0,43.0,48,1531.0,square2,i,0.3337,1,N,8.0
NS8,27.0,53.0,45.0,28.0,47.0,53,1584.0,square1,j,0.0448,0,N,8.0
NS8,28.0,50.0,43.0,27.0,41.0,50,1634.0,square1,j,0.1466,0,N,8.0
NS8,29.0,53.0,52.0,29.0,43.0,53,1687.0,square1,j,0.2249,0,N,8.0
NS8,30.0,54.0,51.0,30.0,41.0,54,1741.0,square1,j,0.1145,0,N,8.0
NS8,31.0,50.0,50.0,31.0,42.0,50,1791.0,square1,j,0.2995,0,N,8.0
NS8,32.0,50.0,50.0,35.0,43.0,50,1841.0,square1,j,0.1772,0,N,8.0
NS8,33.0,46.0,48.0,39.0,41.0,46,1887.0,square1,j,0.1352,0,N,8.0
NS8,34.0,47.0,46.0,41.0,40.0,46,1933.0,square2,i,0.16,1,N,8.0
NS8,35.0,57.0,45.0,36.0,37.0,36,1969.0,square3,r,0.3692,2,N,8.0
NS8,36.0,53.0,49.0,41.0,38.0,49,2018.0,square2,i,0.1079,1,N,8.0
NS8,37.0,57.0,50.0,41.0,39.0,50,2068.0,square2,i,0.0527,1,N,8.0
NS8,38.0,61.0,51.0,39.0,43.0,51,2119.0,square2,i,0.1695,1,N,8.0
NS8,39.0,59.0,54.0,41.0,36.0,54,2173.0,square2,i,0.3091,1,N,8.0
NS8,40.0,53.0,55.0,47.0,40.0,55,2228.0,square2,i,0.1765,1,N,8.0
NS8,41.0,53.0,55.0,43.0,39.0,55,2283.0,square2,i,0.2226,1,N,8.0
NS8,42.0,59.0,55.0,45.0,40.0,55,2338.0,square2,i,0.1815,1,N,8.0
NS8,43.0,54.0,46.0,51.0,37.0,46,2384.0,square2,i,0.2854,1,N,8.0
NS8,44.0,56.0,44.0,50.0,35.0,44,2428.0,square2,i,0.286,1,N,8.0
NS8,45.0,51.0,46.0,41.0,37.0,51,2479.0,square1,j,0.351,0,N,8.0
NS8,46.0,52.0,43.0,44.0,34.0,52,2531.0,square1,j,0.1533,0,N,8.0
NS8,47.0,46.0,41.0,36.0,37.0,46,2577.0,square1,j,0.2576,0,N,8.0
NS8,48.0,47.0,46.0,39.0,37.0,47,2624.0,square1,j,0.2367,0,N,8.0
NS8,49.0,48.0,36.0,38.0,40.0,48,2672.0,square1,j,0.1672,0,N,8.0
NS8,50.0,51.0,37.0,36.0,46.0,51,2723.0,square1,j,0.2361,0,N,8.0
NS8,51.0,53.0,38.0,40.0,43.0,53,2776.0,square1,j,0.2672,0,N,8.0
NS8,52.0,47.0,32.0,37.0,44.0,47,2823.0,square1,j,0.2166,0,N,8.0
NS8,53.0,52.0,31.0,38.0,46.0,52,2875.0,square1,j,0.2574,0,N,8.0
NS8,54.0,44.0,34.0,40.0,45.0,44,2919.0,square1,j,0.2162,0,N,8.0
NS8,55.0,46.0,26.0,37.0,41.0,26,2945.0,square2,i,0.1351,1,N,8.0
NS8,56.0,42.0,29.0,36.0,40.0,42,2987.0,square1,j,0.0589,0,N,8.0
NS8,57.0,39.0,21.0,39.0,40.0,39,3026.0,square1,j,0.0662,0,N,8.0
NS8,58.0,42.0,18.0,39.0,40.0,40,3066.0,square4,f,0.4657,3,N,8.0
NS8,59.0,46.0,16.0,41.0,39.0,39,3105.0,square4,f,0.0588,3,N,8.0
NS8,60.0,45.0,20.0,40.0,39.0,40,3145.0,square3,r,0.1698,2,N,8.0
NS8,61.0,45.0,26.0,42.0,39.0,42,3187.0,square3,r,0.1186,2,N,8.0
NS8,62.0,46.0,21.0,45.0,37.0,45,3232.0,square3,r,0.1877,2,N,8.0
NS8,63.0,50.0,23.0,40.0,38.0,40,3272.0,square3,r,0.1048,2,N,8.0
NS8,64.0,46.0,24.0,41.0,33.0,41,3313.0,square3,r,0.2018,2,N,8.0
NS8,65.0,48.0,28.0,42.0,32.0,42,3355.0,square3,r,0.146,2,N,8.0
NS8,66.0,47.0,20.0,40.0,35.0,40,3395.0,square3,r,0.0157,2,N,8.0
NS8,67.0,49.0,25.0,46.0,34.0,46,3441.0,square3,r,0.0318,2,N,8.0
NS8,68.0,47.0,24.0,45.0,33.0,45,3486.0,square3,r,0.0093,2,N,8.0
NS8,69.0,45.0,21.0,47.0,35.0,47,3533.0,square3,r,0.1701,2,N,8.0
NS8,70.0,44.0,21.0,47.0,37.0,47,3580.0,square3,r,0.0629,2,N,8.0
NS8,71.0,44.0,15.0,41.0,38.0,41,3621.0,square3,r,0.1742,2,N,8.0
NS8,72.0,47.0,19.0,49.0,40.0,49,3670.0,square3,r,0.1571,2,N,8.0
NS8,73.0,39.0,21.0,53.0,38.0,53,3723.0,square3,r,0.1107,2,N,8.0
NS8,74.0,42.0,19.0,53.0,35.0,53,3776.0,square3,r,0.0141,2,N,8.0
NS8,75.0,37.0,18.0,43.0,35.0,43,3819.0,square3,r,0.2332,2,N,8.0
NS8,76.0,35.0,14.0,42.0,38.0,42,3861.0,square3,r,0.0415,2,N,8.0
NS8,77.0,38.0,19.0,47.0,44.0,47,3908.0,square3,r,0.0275,2,N,8.0
NS8,78.0,38.0,18.0,50.0,46.0,50,3958.0,square3,r,0.0629,2,N,8.0
NS8,79.0,33.0,22.0,54.0,44.0,54,4012.0,square3,r,0.2113,2,N,8.0
NS8,80.0,38.0,21.0,56.0,52.0,56,4068.0,square3,r,0.4613,2,N,8.0
NS8,81.0,37.0,22.0,56.0,43.0,56,4124.0,square3,r,0.32,2,N,8.0
NS8,82.0,30.0,26.0,60.0,42.0,60,4184.0,square3,r,0.4311,2,N,8.0
NS8,83.0,38.0,22.0,54.0,46.0,54,4238.0,square3,r,0.3005,2,N,8.0
NS8,84.0,33.0,18.0,52.0,46.0,52,4290.0,square3,r,0.0792,2,N,8.0
NS8,85.0,42.0,12.0,57.0,48.0,57,4347.0,square3,r,0.3906,2,N,8.0
NS8,86.0,45.0,19.0,58.0,42.0,58,4405.0,square3,r,0.2998,2,N,8.0
NS8,87.0,46.0,10.0,65.0,44.0,65,4470.0,square3,r,0.2879,2,N,8.0
NS8,88.0,45.0,11.0,59.0,45.0,59,4529.0,square3,r,0.3645,2,N,8.0
NS8,89.0,42.0,11.0,60.0,47.0,60,4589.0,square3,r,0.7157,2,N,8.0
NS8,90.0,40.0,7.0,64.0,49.0,64,4653.0,square3,r,0.3643,2,N,8.0
NS8,91.0,42.0,11.0,64.0,48.0,64,4717.0,square3,r,0.3203,2,N,8.0
NS8,92.0,43.0,13.0,60.0,43.0,60,4777.0,square3,r,0.2721,2,N,8.0
NS8,93.0,44.0,12.0,64.0,45.0,64,4841.0,square3,r,0.2566,2,N,8.0
NS8,94.0,45.0,16.0,65.0,49.0,65,4906.0,square3,r,0.2364,2,N,8.0
NS8,95.0,45.0,24.0,66.0,42.0,66,4972.0,square3,r,0.2854,2,N,8.0
NS8,96.0,53.0,27.0,67.0,44.0,67,5039.0,square3,r,0.1841,2,N,8.0
NS8,97.0,50.0,29.0,68.0,43.0,68,5107.0,square3,r,0.1421,2,N,8.0
NS8,98.0,52.0,29.0,66.0,37.0,66,5173.0,square3,r,0.4345,2,N,8.0
NS8,99.0,53.0,32.0,65.0,37.0,65,5238.0,square3,r,0.1747,2,N,8.0
NS4,0.0,55.0,53.0,59.0,44.0,44,44.0,square4,r,1.6168,3,N,4.0
NS4,1.0,49.0,56.0,64.0,41.0,64,108.0,square3,i,0.67,2,N,4.0
NS4,2.0,50.0,54.0,71.0,48.0,50,158.0,square1,f,0.3268,0,N,4.0
NS4,3.0,53.0,58.0,67.0,50.0,58,216.0,square2,j,0.3201,1,N,4.0
NS4,4.0,49.0,51.0,70.0,55.0,70,286.0,square3,i,0.0302,2,N,4.0
NS4,5.0,55.0,59.0,73.0,58.0,73,359.0,square3,i,0.2402,2,N,4.0
NS4,6.0,56.0,54.0,71.0,57.0,71,430.0,square3,i,0.2847,2,N,4.0
NS4,7.0,60.0,54.0,75.0,52.0,99999,430.0,invalid,,,-1,N,4.0
NS4,8.0,58.0,53.0,74.0,52.0,74,504.0,square3,i,0.5284,2,N,4.0
NS4,9.0,46.0,48.0,78.0,51.0,78,582.0,square3,i,0.2574,2,N,4.0
NS4,10.0,55.0,48.0,78.0,51.0,78,660.0,square3,i,0.2716,2,N,4.0
NS4,11.0,55.0,44.0,79.0,49.0,79,739.0,square3,i,0.2297,2,N,4.0
NS4,12.0,50.0,40.0,79.0,50.0,79,818.0,square3,i,0.2883,2,N,4.0
NS4,13.0,45.0,39.0,79.0,53.0,79,897.0,square3,i,0.1666,2,N,4.0
NS4,14.0,44.0,38.0,77.0,56.0,77,974.0,square3,i,0.1882,2,N,4.0
NS4,15.0,45.0,32.0,68.0,52.0,68,1042.0,square3,i,0.2919,2,N,4.0
NS4,16.0,49.0,32.0,74.0,53.0,74,1116.0,square3,i,0.1836,2,N,4.0
NS4,17.0,45.0,32.0,69.0,51.0,69,1185.0,square3,i,0.2478,2,N,4.0
NS4,18.0,50.0,34.0,69.0,47.0,69,1254.0,square3,i,0.1601,2,N,4.0
NS4,19.0,50.0,36.0,65.0,53.0,65,1319.0,square3,i,0.2675,2,N,4.0
NS4,20.0,45.0,36.0,62.0,53.0,62,1381.0,square3,i,0.2057,2,N,4.0
NS4,21.0,49.0,35.0,62.0,55.0,62,1443.0,square3,i,0.0134,2,N,4.0
NS4,22.0,53.0,32.0,61.0,60.0,61,1504.0,square3,i,0.1189,2,N,4.0
NS4,23.0,52.0,33.0,58.0,54.0,58,1562.0,square3,i,0.1532,2,N,4.0
NS4,24.0,48.0,32.0,52.0,60.0,52,1614.0,square3,i,0.1186,2,N,4.0
NS4,25.0,47.0,30.0,53.0,57.0,53,1667.0,square3,i,0.1119,2,N,4.0
NS4,26.0,50.0,30.0,60.0,55.0,60,1727.0,square3,i,0.1602,2,N,4.0
NS4,27.0,50.0,28.0,62.0,47.0,62,1789.0,square3,i,0.2115,2,N,4.0
NS4,28.0,54.0,28.0,58.0,49.0,58,1847.0,square3,i,0.066,2,N,4.0
NS4,29.0,44.0,29.0,50.0,49.0,29,1876.0,square2,j,0.1565,1,N,4.0
NS4,30.0,43.0,26.0,55.0,57.0,43,1919.0,square1,f,0.3511,0,N,4.0
NS4,31.0,43.0,25.0,60.0,54.0,54,1973.0,square4,r,0.3561,3,N,4.0
NS4,32.0,34.0,27.0,58.0,56.0,58,2031.0,square3,i,0.0905,2,N,4.0
NS4,33.0,34.0,20.0,60.0,62.0,60,2091.0,square3,i,0.1603,2,N,4.0
NS4,34.0,38.0,28.0,58.0,57.0,58,2149.0,square3,i,0.2436,2,N,4.0
NS4,35.0,40.0,24.0,63.0,59.0,63,2212.0,square3,i,0.1736,2,N,4.0
NS4,36.0,36.0,30.0,56.0,63.0,56,2268.0,square3,i,0.234,2,N,4.0
NS4,37.0,40.0,29.0,54.0,63.0,54,2322.0,square3,i,0.0702,2,N,4.0
NS4,38.0,40.0,33.0,53.0,69.0,53,2375.0,square3,i,0.2157,2,N,4.0
NS4,39.0,36.0,30.0,57.0,67.0,57,2432.0,square3,i,0.1287,2,N,4.0
NS4,40.0,33.0,33.0,58.0,68.0,58,2490.0,square3,i,0.119,2,N,4.0
NS4,41.0,34.0,28.0,58.0,72.0,58,2548.0,square3,i,0.1188,2,N,4.0
NS4,42.0,35.0,30.0,60.0,70.0,70,2618.0,square4,r,0.1669,3,N,4.0
NS4,43.0,35.0,34.0,57.0,63.0,63,2681.0,square4,r,0.1392,3,N,4.0
NS4,44.0,30.0,32.0,59.0,69.0,69,2750.0,square4,r,0.0909,3,N,4.0
NS4,45.0,29.0,31.0,60.0,66.0,66,2816.0,square4,r,0.0354,3,N,4.0
NS4,46.0,35.0,34.0,66.0,66.0,66,2882.0,square4,r,0.0647,3,N,4.0
NS4,47.0,35.0,28.0,63.0,62.0,62,2944.0,square4,r,0.0008,3,N,4.0
NS4,48.0,37.0,37.0,61.0,55.0,55,2999.0,square4,r,0.5098,3,N,4.0
NS4,49.0,40.0,34.0,59.0,54.0,54,3053.0,square4,r,0.1285,3,N,4.0
NS4,50.0,39.0,38.0,68.0,51.0,51,3104.0,square4,r,0.2129,3,N,4.0
NS4,51.0,46.0,28.0,69.0,48.0,48,3152.0,square4,r,0.1561,3,N,4.0
NS4,52.0,40.0,34.0,62.0,49.0,62,3214.0,square3,i,0.2189,2,N,4.0
NS4,53.0,39.0,34.0,63.0,48.0,63,3277.0,square3,i,0.1006,2,N,4.0
NS4,54.0,44.0,31.0,58.0,47.0,58,3335.0,square3,i,0.0488,2,N,4.0
NS4,55.0,42.0,30.0,68.0,46.0,68,3403.0,square3,i,0.2019,2,N,4.0
NS4,56.0,36.0,25.0,69.0,44.0,69,3472.0,square3,i,0.0072,2,N,4.0
NS4,57.0,35.0,29.0,71.0,46.0,71,3543.0,square3,i,0.1257,2,N,4.0
NS4,58.0,43.0,28.0,68.0,47.0,68,3611.0,square3,i,0.0495,2,N,4.0
NS4,59.0,43.0,27.0,67.0,43.0,67,3678.0,square3,i,0.0493,2,N,4.0
NS4,60.0,40.0,25.0,72.0,46.0,72,3750.0,square3,i,0.036,2,N,4.0
NS4,61.0,39.0,32.0,63.0,43.0,63,3813.0,square3,i,0.1463,2,N,4.0
NS4,62.0,39.0,29.0,61.0,39.0,61,3874.0,square3,i,0.3646,2,N,4.0
NS4,63.0,41.0,28.0,59.0,40.0,59,3933.0,square3,i,0.1635,2,N,4.0
NS4,64.0,41.0,31.0,57.0,51.0,57,3990.0,square3,i,0.0772,2,N,4.0
NS4,65.0,46.0,36.0,59.0,58.0,59,4049.0,square3,i,0.2225,2,N,4.0
NS4,66.0,45.0,36.0,53.0,46.0,53,4102.0,square3,i,0.1116,2,N,4.0
NS4,67.0,40.0,34.0,49.0,46.0,40,4142.0,square1,f,0.2087,0,N,4.0
NS4,68.0,43.0,37.0,48.0,48.0,48,4190.0,square3,i,0.0514,2,N,4.0
NS4,69.0,42.0,36.0,44.0,56.0,44,4234.0,square3,i,0.2121,2,N,4.0
NS4,70.0,40.0,38.0,47.0,58.0,47,4281.0,square3,i,0.0631,2,N,4.0
NS4,71.0,36.0,34.0,42.0,63.0,42,4323.0,square3,i,0.1948,2,N,4.0
NS4,72.0,38.0,36.0,36.0,66.0,66,4389.0,square4,r,0.2653,3,N,4.0
NS4,73.0,36.0,40.0,40.0,66.0,66,4455.0,square4,r,0.0493,3,N,4.0
NS4,74.0,31.0,38.0,46.0,67.0,67,4522.0,square4,r,0.4378,3,N,4.0
NS4,75.0,40.0,33.0,42.0,64.0,64,4586.0,square4,r,0.4311,3,N,4.0
NS4,76.0,38.0,35.0,42.0,64.0,64,4650.0,square4,r,0.2174,3,N,4.0
NS4,77.0,40.0,35.0,39.0,66.0,66,4716.0,square4,r,0.2016,3,N,4.0
NS4,78.0,40.0,33.0,38.0,68.0,68,4784.0,square4,r,0.0838,3,N,4.0
NS4,79.0,40.0,38.0,31.0,70.0,70,4854.0,square4,r,0.1349,3,N,4.0
NS4,80.0,37.0,35.0,33.0,73.0,73,4927.0,square4,r,0.1564,3,N,4.0
NS4,81.0,34.0,35.0,30.0,70.0,70,4997.0,square4,r,0.2056,3,N,4.0
NS4,82.0,35.0,37.0,31.0,66.0,66,5063.0,square4,r,0.1295,3,N,4.0
NS4,83.0,42.0,32.0,28.0,67.0,67,5130.0,square4,r,0.0837,3,N,4.0
NS4,84.0,38.0,35.0,30.0,68.0,68,5198.0,square4,r,0.0728,3,N,4.0
NS4,85.0,43.0,35.0,32.0,64.0,64,5262.0,square4,r,0.051,3,N,4.0
NS4,86.0,49.0,35.0,32.0,70.0,70,5332.0,square4,r,0.1672,3,N,4.0
NS4,87.0,48.0,34.0,32.0,69.0,69,5401.0,square4,r,0.163,3,N,4.0
NS4,88.0,50.0,35.0,30.0,64.0,64,5465.0,square4,r,0.3998,3,N,4.0
NS4,89.0,48.0,34.0,32.0,68.0,68,5533.0,square4,r,0.195,3,N,4.0
NS4,90.0,53.0,29.0,27.0,68.0,68,5601.0,square4,r,0.3028,3,N,4.0
NS4,91.0,54.0,27.0,34.0,68.0,68,5669.0,square4,r,0.3933,3,N,4.0
NS4,92.0,52.0,20.0,35.0,69.0,69,5738.0,square4,r,0.0143,3,N,4.0
NS4,93.0,42.0,15.0,33.0,68.0,68,5806.0,square4,r,0.2157,3,N,4.0
NS4,94.0,40.0,24.0,37.0,72.0,72,5878.0,square4,r,0.1919,3,N,4.0
NS4,95.0,43.0,25.0,43.0,69.0,69,5947.0,square4,r,0.2434,3,N,4.0
NS4,96.0,41.0,29.0,43.0,74.0,74,6021.0,square4,r,0.292,3,N,4.0
NS4,97.0,46.0,32.0,42.0,78.0,78,6099.0,square4,r,0.0295,3,N,4.0
NS4,98.0,48.0,26.0,46.0,75.0,75,6174.0,square4,r,0.0869,3,N,4.0
NS4,99.0,46.0,27.0,45.0,71.0,71,6245.0,square4,r,0.1536,3,N,4.0
NS11,0.0,78.0,37.0,30.0,78.0,37,37.0,square2,r,0.7091,1,N,11.0
NS11,1.0,85.0,34.0,30.0,76.0,76,113.0,square4,i,0.1813,3,N,11.0
NS11,2.0,79.0,33.0,36.0,77.0,36,149.0,square3,f,0.0389,2,N,11.0
NS11,3.0,82.0,33.0,28.0,72.0,82,231.0,square1,j,0.0008,0,N,11.0
NS11,4.0,82.0,34.0,33.0,76.0,82,313.0,square1,j,0.1185,0,N,11.0
NS11,5.0,78.0,38.0,32.0,83.0,78,391.0,square1,j,0.3062,0,N,11.0
NS11,6.0,78.0,37.0,34.0,77.0,78,469.0,square1,j,0.2713,0,N,11.0
NS11,7.0,80.0,30.0,33.0,74.0,80,549.0,square1,j,0.3896,0,N,11.0
NS11,8.0,79.0,32.0,30.0,73.0,79,628.0,square1,j,0.1252,0,N,11.0
NS11,9.0,81.0,41.0,34.0,61.0,81,709.0,square1,j,0.2187,0,N,11.0
NS11,10.0,76.0,38.0,25.0,64.0,76,785.0,square1,j,0.0098,0,N,11.0
NS11,11.0,79.0,34.0,27.0,65.0,79,864.0,square1,j,0.1047,0,N,11.0
NS11,12.0,81.0,32.0,25.0,68.0,81,945.0,square1,j,0.1257,0,N,11.0
NS11,13.0,84.0,36.0,24.0,64.0,84,1029.0,square1,j,0.0282,0,N,11.0
NS11,14.0,80.0,30.0,24.0,61.0,80,1109.0,square1,j,0.1397,0,N,11.0
NS11,15.0,86.0,33.0,22.0,66.0,86,1195.0,square1,j,0.0283,0,N,11.0
NS11,16.0,85.0,32.0,20.0,64.0,85,1280.0,square1,j,0.0696,0,N,11.0
NS11,17.0,83.0,32.0,22.0,71.0,83,1363.0,square1,j,0.0636,0,N,11.0
NS11,18.0,80.0,31.0,19.0,66.0,80,1443.0,square1,j,0.2403,0,N,11.0
NS11,19.0,75.0,40.0,23.0,69.0,75,1518.0,square1,j,0.0708,0,N,11.0
NS11,20.0,73.0,37.0,14.0,67.0,73,1591.0,square1,j,0.0164,0,N,11.0
NS11,21.0,81.0,34.0,23.0,70.0,81,1672.0,square1,j,0.2297,0,N,11.0
NS11,22.0,77.0,39.0,16.0,73.0,77,1749.0,square1,j,0.1186,0,N,11.0
NS11,23.0,78.0,30.0,23.0,74.0,78,1827.0,square1,j,0.0849,0,N,11.0
NS11,24.0,80.0,32.0,26.0,68.0,80,1907.0,square1,j,0.1884,0,N,11.0
NS11,25.0,81.0,29.0,29.0,73.0,81,1988.0,square1,j,0.1005,0,N,11.0
NS11,26.0,77.0,31.0,26.0,69.0,77,2065.0,square1,j,0.0212,0,N,11.0
NS11,27.0,69.0,47.0,29.0,64.0,69,2134.0,square1,j,0.237,0,N,11.0
NS11,28.0,69.0,39.0,28.0,71.0,69,2203.0,square1,j,0.4065,0,N,11.0
NS11,29.0,71.0,41.0,24.0,66.0,71,2274.0,square1,j,0.0929,0,N,11.0
NS11,30.0,70.0,40.0,21.0,68.0,70,2344.0,square1,j,0.2019,0,N,11.0
NS11,31.0,72.0,44.0,21.0,68.0,72,2416.0,square1,j,0.448,0,N,11.0
NS11,32.0,72.0,41.0,19.0,75.0,72,2488.0,square1,j,0.1744,0,N,11.0
NS11,33.0,66.0,48.0,21.0,72.0,66,2554.0,square1,j,0.299,0,N,11.0
NS11,34.0,67.0,48.0,24.0,72.0,67,2621.0,square1,j,0.0491,0,N,11.0
NS11,35.0,58.0,52.0,14.0,73.0,58,2679.0,square1,j,0.174,0,N,11.0
NS11,36.0,61.0,52.0,23.0,70.0,61,2740.0,square1,j,0.2643,0,N,11.0
NS11,37.0,50.0,55.0,29.0,67.0,50,2790.0,square1,j,0.2437,0,N,11.0
NS11,38.0,51.0,54.0,20.0,64.0,51,2841.0,square1,j,0.1673,0,N,11.0
NS11,39.0,54.0,49.0,26.0,63.0,63,2904.0,square4,i,0.1672,3,N,11.0
NS11,40.0,50.0,47.0,24.0,70.0,70,2974.0,square4,i,0.2787,3,N,11.0
NS11,41.0,54.0,46.0,23.0,63.0,63,3037.0,square4,i,0.2017,3,N,11.0
NS11,42.0,54.0,47.0,25.0,61.0,61,3098.0,square4,i,0.1951,3,N,11.0
NS11,43.0,46.0,49.0,33.0,72.0,72,3170.0,square4,i,0.1948,3,N,11.0
NS11,44.0,54.0,50.0,38.0,72.0,72,3242.0,square4,i,0.1742,3,N,11.0
NS11,45.0,56.0,53.0,39.0,81.0,81,3323.0,square4,i,0.2061,3,N,11.0
NS11,46.0,57.0,55.0,33.0,77.0,77,3400.0,square4,i,0.1839,3,N,11.0
NS11,47.0,56.0,51.0,32.0,76.0,76,3476.0,square4,i,0.1119,3,N,11.0
NS11,48.0,58.0,49.0,29.0,85.0,85,3561.0,square4,i,0.2182,3,N,11.0
NS11,49.0,58.0,53.0,27.0,83.0,83,3644.0,square4,i,0.0705,3,N,11.0
NS11,50.0,62.0,49.0,24.0,80.0,80,3724.0,square4,i,0.0909,3,N,11.0
NS11,51.0,57.0,55.0,23.0,77.0,77,3801.0,square4,i,0.1354,3,N,11.0
NS11,52.0,56.0,55.0,20.0,77.0,77,3878.0,square4,i,0.0006,3,N,11.0
NS11,53.0,59.0,56.0,20.0,78.0,78,3956.0,square4,i,0.0535,3,N,11.0
NS11,54.0,58.0,57.0,27.0,74.0,74,4030.0,square4,i,0.0798,3,N,11.0
NS11,55.0,60.0,55.0,24.0,79.0,79,4109.0,square4,i,0.107,3,N,11.0
NS11,56.0,60.0,52.0,22.0,77.0,77,4186.0,square4,i,0.2047,3,N,11.0
NS11,57.0,58.0,55.0,22.0,72.0,72,4258.0,square4,i,0.3714,3,N,11.0
NS11,58.0,63.0,52.0,22.0,75.0,75,4333.0,square4,i,0.1947,3,N,11.0
NS11,59.0,62.0,56.0,17.0,70.0,70,4403.0,square4,i,0.2222,3,N,11.0
NS11,60.0,61.0,55.0,22.0,70.0,70,4473.0,square4,i,0.1427,3,N,11.0
NS11,61.0,57.0,52.0,21.0,76.0,76,4549.0,square4,i,0.1745,3,N,11.0
NS11,62.0,57.0,48.0,28.0,75.0,75,4624.0,square4,i,0.2018,3,N,11.0
NS11,63.0,57.0,58.0,30.0,68.0,68,4692.0,square4,i,0.2299,3,N,11.0
NS11,64.0,61.0,61.0,27.0,74.0,74,4766.0,square4,i,0.2644,3,N,11.0
NS11,65.0,67.0,63.0,40.0,71.0,71,4837.0,square4,i,0.2156,3,N,11.0
NS11,66.0,69.0,55.0,38.0,73.0,73,4910.0,square4,i,0.1044,3,N,11.0
NS11,67.0,72.0,57.0,36.0,65.0,65,4975.0,square4,i,0.003,3,N,11.0
NS11,68.0,71.0,61.0,36.0,64.0,64,5039.0,square4,i,0.4209,3,N,11.0
NS11,69.0,74.0,66.0,37.0,58.0,58,5097.0,square4,i,0.2645,3,N,11.0
NS11,70.0,69.0,60.0,40.0,66.0,66,5163.0,square4,i,0.2061,3,N,11.0
NS11,71.0,71.0,58.0,40.0,64.0,64,5227.0,square4,i,0.2049,3,N,11.0
NS11,72.0,72.0,58.0,46.0,67.0,67,5294.0,square4,i,0.2114,3,N,11.0
NS11,73.0,72.0,56.0,47.0,65.0,65,5359.0,square4,i,0.1844,3,N,11.0
NS11,74.0,66.0,54.0,47.0,63.0,63,5422.0,square4,i,0.1838,3,N,11.0
NS11,75.0,75.0,53.0,43.0,58.0,53,5475.0,square2,r,0.2229,1,N,11.0
NS11,76.0,75.0,48.0,40.0,59.0,40,5515.0,square3,f,0.286,2,N,11.0
NS11,77.0,65.0,48.0,36.0,58.0,58,5573.0,square4,i,0.2086,3,N,11.0
NS11,78.0,70.0,45.0,37.0,59.0,70,5643.0,square1,j,0.0631,0,N,11.0
NS11,79.0,70.0,41.0,36.0,59.0,70,5713.0,square1,j,0.1974,0,N,11.0
NS11,80.0,73.0,43.0,39.0,59.0,73,5786.0,square1,j,0.1672,0,N,11.0
NS11,81.0,72.0,39.0,38.0,60.0,72,5858.0,square1,j,0.225,0,N,11.0
NS11,82.0,72.0,39.0,44.0,65.0,72,5930.0,square1,j,0.0584,0,N,11.0
NS11,83.0,68.0,38.0,40.0,61.0,68,5998.0,square1,j,0.1633,0,N,11.0
NS11,84.0,69.0,36.0,36.0,64.0,69,6067.0,square1,j,0.0282,0,N,11.0
NS11,85.0,70.0,34.0,40.0,69.0,70,6137.0,square1,j,0.0979,0,N,11.0
NS11,86.0,70.0,32.0,36.0,71.0,70,6207.0,square1,j,0.0839,0,N,11.0
NS11,87.0,69.0,31.0,37.0,70.0,69,6276.0,square1,j,0.2197,0,N,11.0
NS11,88.0,69.0,34.0,41.0,67.0,69,6345.0,square1,j,0.1473,0,N,11.0
NS11,89.0,67.0,39.0,44.0,67.0,67,6412.0,square1,j,0.2576,0,N,11.0
NS11,90.0,64.0,33.0,36.0,69.0,64,6476.0,square1,j,0.1389,0,N,11.0
NS11,91.0,60.0,33.0,38.0,67.0,60,6536.0,square1,j,0.2183,0,N,11.0
NS11,92.0,60.0,33.0,37.0,68.0,60,6596.0,square1,j,0.2849,0,N,11.0
NS11,93.0,54.0,36.0,38.0,73.0,54,6650.0,square1,j,0.3964,0,N,11.0
NS11,94.0,58.0,35.0,39.0,68.0,58,6708.0,square1,j,0.1428,0,N,11.0
NS11,95.0,50.0,38.0,32.0,77.0,50,6758.0,square1,j,0.3155,0,N,11.0
NS11,96.0,53.0,42.0,30.0,71.0,53,6811.0,square1,j,0.2677,0,N,11.0
NS11,97.0,54.0,38.0,32.0,75.0,75,6886.0,square4,i,0.2257,3,N,11.0
NS11,98.0,52.0,48.0,32.0,72.0,72,6958.0,square4,i,0.1808,3,N,11.0
NS11,99.0,55.0,45.0,33.0,73.0,73,7031.0,square4,i,0.1407,3,N,11.0
