block,Trial,square1,square2,square3,square4,currPoints,totalPoints,square,choiceKey.keys,choiceKey.rt,armNum,blockType,blockNum
prac,0.0,100.0,0.0,0.0,0.0,0,0.0,square2,,,1,p,0.0
prac,1.0,100.0,0.0,0.0,0.0,0,0.0,square4,,,3,p,0.0
prac,2.0,100.0,0.0,0.0,0.0,99999,0.0,invalid,,,-1,p,0.0
prac,3.0,100.0,0.0,0.0,0.0,0,0.0,square2,,,1,p,0.0
prac,4.0,100.0,0.0,0.0,0.0,100,100.0,square1,,,0,p,0.0
prac,5.0,100.0,0.0,0.0,0.0,0,100.0,square4,,,3,p,0.0
prac,6.0,100.0,0.0,0.0,0.0,100,200.0,square1,,,0,p,0.0
prac,7.0,100.0,0.0,0.0,0.0,100,300.0,square1,,,0,p,0.0
prac,8.0,100.0,0.0,0.0,0.0,100,400.0,square1,,,0,p,0.0
prac,9.0,100.0,0.0,0.0,0.0,100,500.0,square1,,,0,p,0.0
NS4,0.0,55.0,53.0,59.0,44.0,44,44.0,square4,r,0.6495,3,N,4.0
NS4,1.0,49.0,56.0,64.0,41.0,49,93.0,square1,i,0.2909,0,N,4.0
NS4,2.0,50.0,54.0,71.0,48.0,71,164.0,square3,f,0.0632,2,N,4.0
NS4,3.0,53.0,58.0,67.0,50.0,58,222.0,square2,j,0.1123,1,N,4.0
NS4,4.0,49.0,51.0,70.0,55.0,70,292.0,square3,f,0.4285,2,N,4.0
NS4,5.0,55.0,59.0,73.0,58.0,73,365.0,square3,f,0.0451,2,N,4.0
NS4,6.0,56.0,54.0,71.0,57.0,71,436.0,square3,f,0.0025,2,N,4.0
NS4,7.0,60.0,54.0,75.0,52.0,75,511.0,square3,f,0.0621,2,N,4.0
NS4,8.0,58.0,53.0,74.0,52.0,74,585.0,square3,f,0.1699,2,N,4.0
NS4,9.0,46.0,48.0,78.0,51.0,78,663.0,square3,f,0.1834,2,N,4.0
NS4,10.0,55.0,48.0,78.0,51.0,78,741.0,square3,f,0.1218,2,N,4.0
NS4,11.0,55.0,44.0,79.0,49.0,79,820.0,square3,f,0.0885,2,N,4.0
NS4,12.0,50.0,40.0,79.0,50.0,79,899.0,square3,f,0.1011,2,N,4.0
NS4,13.0,45.0,39.0,79.0,53.0,79,978.0,square3,f,0.1388,2,N,4.0
NS4,14.0,44.0,38.0,77.0,56.0,77,1055.0,square3,f,0.0166,2,N,4.0
NS4,15.0,45.0,32.0,68.0,52.0,68,1123.0,square3,f,0.0984,2,N,4.0
NS4,16.0,49.0,32.0,74.0,53.0,74,1197.0,square3,f,0.2168,2,N,4.0
NS4,17.0,45.0,32.0,69.0,51.0,51,1248.0,square4,r,0.2479,3,N,4.0
NS4,18.0,50.0,34.0,69.0,47.0,50,1298.0,square1,i,1.0625,0,N,4.0
NS4,19.0,50.0,36.0,65.0,53.0,36,1334.0,square2,j,0.2058,1,N,4.0
NS4,20.0,45.0,36.0,62.0,53.0,62,1396.0,square3,f,0.002,2,N,4.0
NS4,21.0,49.0,35.0,62.0,55.0,62,1458.0,square3,f,0.1785,2,N,4.0
NS4,22.0,53.0,32.0,61.0,60.0,61,1519.0,square3,f,0.115,2,N,4.0
NS4,23.0,52.0,33.0,58.0,54.0,58,1577.0,square3,f,0.0816,2,N,4.0
NS4,24.0,48.0,32.0,52.0,60.0,52,1629.0,square3,f,0.1359,2,N,4.0
NS4,25.0,47.0,30.0,53.0,57.0,53,1682.0,square3,f,0.0658,2,N,4.0
NS4,26.0,50.0,30.0,60.0,55.0,60,1742.0,square3,f,0.19,2,N,4.0
NS4,27.0,50.0,28.0,62.0,47.0,62,1804.0,square3,f,0.1731,2,N,4.0
NS4,28.0,54.0,28.0,58.0,49.0,58,1862.0,square3,f,0.0503,2,N,4.0
NS4,29.0,44.0,29.0,50.0,49.0,49,1911.0,square4,r,0.1675,3,N,4.0
NS4,30.0,43.0,26.0,55.0,57.0,43,1954.0,square1,i,0.5908,0,N,4.0
NS4,31.0,43.0,25.0,60.0,54.0,25,1979.0,square2,j,0.286,1,N,4.0
NS4,32.0,34.0,27.0,58.0,56.0,58,2037.0,square3,f,0.0097,2,N,4.0
NS4,33.0,34.0,20.0,60.0,62.0,60,2097.0,square3,f,0.0282,2,N,4.0
NS4,34.0,38.0,28.0,58.0,57.0,58,2155.0,square3,f,0.1377,2,N,4.0
NS4,35.0,40.0,24.0,63.0,59.0,63,2218.0,square3,f,0.1058,2,N,4.0
NS4,36.0,36.0,30.0,56.0,63.0,56,2274.0,square3,f,0.174,2,N,4.0
NS4,37.0,40.0,29.0,54.0,63.0,54,2328.0,square3,f,0.1852,2,N,4.0
NS4,38.0,40.0,33.0,53.0,69.0,53,2381.0,square3,f,0.0364,2,N,4.0
NS4,39.0,36.0,30.0,57.0,67.0,57,2438.0,square3,f,0.009,2,N,4.0
NS4,40.0,33.0,33.0,58.0,68.0,58,2496.0,square3,f,0.2329,2,N,4.0
NS4,41.0,34.0,28.0,58.0,72.0,58,2554.0,square3,f,0.1274,2,N,4.0
NS4,42.0,35.0,30.0,60.0,70.0,60,2614.0,square3,f,0.1778,2,N,4.0
NS4,43.0,35.0,34.0,57.0,63.0,57,2671.0,square3,f,0.1163,2,N,4.0
NS4,44.0,30.0,32.0,59.0,69.0,59,2730.0,square3,f,0.1467,2,N,4.0
NS4,45.0,29.0,31.0,60.0,66.0,60,2790.0,square3,f,0.0455,2,N,4.0
NS4,46.0,35.0,34.0,66.0,66.0,66,2856.0,square3,f,0.152,2,N,4.0
NS4,47.0,35.0,28.0,63.0,62.0,63,2919.0,square3,f,0.0563,2,N,4.0
NS4,48.0,37.0,37.0,61.0,55.0,61,2980.0,square3,f,0.0168,2,N,4.0
NS4,49.0,40.0,34.0,59.0,54.0,59,3039.0,square3,f,0.017,2,N,4.0
NS4,50.0,39.0,38.0,68.0,51.0,68,3107.0,square3,f,0.1903,2,N,4.0
NS4,51.0,46.0,28.0,69.0,48.0,69,3176.0,square3,f,0.1627,2,N,4.0
NS4,52.0,40.0,34.0,62.0,49.0,62,3238.0,square3,f,0.084,2,N,4.0
NS4,53.0,39.0,34.0,63.0,48.0,63,3301.0,square3,f,0.0101,2,N,4.0
NS4,54.0,44.0,31.0,58.0,47.0,58,3359.0,square3,f,0.0023,2,N,4.0
NS4,55.0,42.0,30.0,68.0,46.0,68,3427.0,square3,f,0.0115,2,N,4.0
NS4,56.0,36.0,25.0,69.0,44.0,69,3496.0,square3,f,0.5457,2,N,4.0
NS4,57.0,35.0,29.0,71.0,46.0,71,3567.0,square3,f,0.0505,2,N,4.0
NS4,58.0,43.0,28.0,68.0,47.0,68,3635.0,square3,f,0.0021,2,N,4.0
NS4,59.0,43.0,27.0,67.0,43.0,67,3702.0,square3,f,0.0146,2,N,4.0
NS4,60.0,40.0,25.0,72.0,46.0,72,3774.0,square3,f,0.0095,2,N,4.0
NS4,61.0,39.0,32.0,63.0,43.0,63,3837.0,square3,f,0.0489,2,N,4.0
NS4,62.0,39.0,29.0,61.0,39.0,61,3898.0,square3,f,0.193,2,N,4.0
NS4,63.0,41.0,28.0,59.0,40.0,59,3957.0,square3,f,0.052,2,N,4.0
NS4,64.0,41.0,31.0,57.0,51.0,57,4014.0,square3,f,0.0227,2,N,4.0
NS4,65.0,46.0,36.0,59.0,58.0,59,4073.0,square3,f,0.1699,2,N,4.0
NS4,66.0,45.0,36.0,53.0,46.0,53,4126.0,square3,f,0.0697,2,N,4.0
NS4,67.0,40.0,34.0,49.0,46.0,49,4175.0,square3,f,0.1011,2,N,4.0
NS4,68.0,43.0,37.0,48.0,48.0,48,4223.0,square3,f,0.2198,2,N,4.0
NS4,69.0,42.0,36.0,44.0,56.0,44,4267.0,square3,f,0.0359,2,N,4.0
NS4,70.0,40.0,38.0,47.0,58.0,47,4314.0,square3,f,0.1184,2,N,4.0
NS4,71.0,36.0,34.0,42.0,63.0,42,4356.0,square3,f,0.0879,2,N,4.0
NS4,72.0,38.0,36.0,36.0,66.0,36,4392.0,square3,f,0.1618,2,N,4.0
NS4,73.0,36.0,40.0,40.0,66.0,40,4432.0,square3,f,0.2006,2,N,4.0
NS4,74.0,31.0,38.0,46.0,67.0,46,4478.0,square3,f,0.0807,2,N,4.0
NS4,75.0,40.0,33.0,42.0,64.0,42,4520.0,square3,f,0.0679,2,N,4.0
NS4,76.0,38.0,35.0,42.0,64.0,42,4562.0,square3,f,0.1164,2,N,4.0
NS4,77.0,40.0,35.0,39.0,66.0,39,4601.0,square3,f,0.1631,2,N,4.0
NS4,78.0,40.0,33.0,38.0,68.0,38,4639.0,square3,f,0.1478,2,N,4.0
NS4,79.0,40.0,38.0,31.0,70.0,31,4670.0,square3,f,0.015,2,N,4.0
NS4,80.0,37.0,35.0,33.0,73.0,73,4743.0,square4,r,0.0024,3,N,4.0
NS4,81.0,34.0,35.0,30.0,70.0,70,4813.0,square4,r,0.1233,3,N,4.0
NS4,82.0,35.0,37.0,31.0,66.0,66,4879.0,square4,r,0.2015,3,N,4.0
NS4,83.0,42.0,32.0,28.0,67.0,67,4946.0,square4,r,0.0237,3,N,4.0
NS4,84.0,38.0,35.0,30.0,68.0,68,5014.0,square4,r,0.1613,3,N,4.0
NS4,85.0,43.0,35.0,32.0,64.0,64,5078.0,square4,r,0.2111,3,N,4.0
NS4,86.0,49.0,35.0,32.0,70.0,70,5148.0,square4,r,0.0034,3,N,4.0
NS4,87.0,48.0,34.0,32.0,69.0,48,5196.0,square1,i,0.2646,0,N,4.0
NS4,88.0,50.0,35.0,30.0,64.0,35,5231.0,square2,j,0.0937,1,N,4.0
NS4,89.0,48.0,34.0,32.0,68.0,68,5299.0,square4,r,0.003,3,N,4.0
NS4,90.0,53.0,29.0,27.0,68.0,68,5367.0,square4,r,0.121,3,N,4.0
NS4,91.0,54.0,27.0,34.0,68.0,68,5435.0,square4,r,0.1883,3,N,4.0
NS4,92.0,52.0,20.0,35.0,69.0,69,5504.0,square4,r,0.1912,3,N,4.0
NS4,93.0,42.0,15.0,33.0,68.0,68,5572.0,square4,r,0.0515,3,N,4.0
NS4,94.0,40.0,24.0,37.0,72.0,72,5644.0,square4,r,0.0033,3,N,4.0
NS4,95.0,43.0,25.0,43.0,69.0,69,5713.0,square4,r,0.0517,3,N,4.0
NS4,96.0,41.0,29.0,43.0,74.0,74,5787.0,square4,r,0.008,3,N,4.0
NS4,97.0,46.0,32.0,42.0,78.0,78,5865.0,square4,r,0.0631,3,N,4.0
NS4,98.0,48.0,26.0,46.0,75.0,75,5940.0,square4,r,0.03,3,N,4.0
NS4,99.0,46.0,27.0,45.0,71.0,71,6011.0,square4,r,0.053,3,N,4.0
NS2,0.0,44.0,66.0,42.0,38.0,42,42.0,square3,r,0.9259,2,N,2.0
NS2,1.0,44.0,66.0,47.0,43.0,43,85.0,square4,i,0.3562,3,N,2.0
NS2,2.0,42.0,62.0,53.0,43.0,62,147.0,square2,f,0.3338,1,N,2.0
NS2,3.0,46.0,58.0,48.0,46.0,46,193.0,square1,j,0.2475,0,N,2.0
NS2,4.0,47.0,61.0,51.0,42.0,61,254.0,square2,f,0.275,1,N,2.0
NS2,5.0,51.0,58.0,50.0,50.0,58,312.0,square2,f,0.1795,1,N,2.0
NS2,6.0,52.0,58.0,43.0,48.0,58,370.0,square2,f,0.134,1,N,2.0
NS2,7.0,50.0,52.0,43.0,50.0,52,422.0,square2,f,0.047,1,N,2.0
NS2,8.0,54.0,58.0,41.0,46.0,58,480.0,square2,f,0.0572,1,N,2.0
NS2,9.0,52.0,59.0,42.0,46.0,59,539.0,square2,f,0.1451,1,N,2.0
NS2,10.0,50.0,52.0,37.0,48.0,52,591.0,square2,f,0.1346,1,N,2.0
NS2,11.0,45.0,56.0,38.0,43.0,56,647.0,square2,f,0.0027,1,N,2.0
NS2,12.0,50.0,56.0,37.0,48.0,56,703.0,square2,f,0.014,1,N,2.0
NS2,13.0,47.0,63.0,36.0,49.0,63,766.0,square2,f,0.1461,1,N,2.0
NS2,14.0,51.0,56.0,39.0,49.0,56,822.0,square2,f,0.1103,1,N,2.0
NS2,15.0,46.0,64.0,39.0,50.0,64,886.0,square2,f,0.0296,1,N,2.0
NS2,16.0,51.0,61.0,37.0,47.0,61,947.0,square2,f,0.0508,1,N,2.0
NS2,17.0,59.0,68.0,46.0,53.0,68,1015.0,square2,f,0.1601,1,N,2.0
NS2,18.0,53.0,65.0,42.0,49.0,65,1080.0,square2,f,0.1866,1,N,2.0
NS2,19.0,52.0,67.0,47.0,49.0,67,1147.0,square2,f,0.2177,1,N,2.0
NS2,20.0,56.0,64.0,45.0,48.0,64,1211.0,square2,f,0.2135,1,N,2.0
NS2,21.0,57.0,73.0,46.0,44.0,73,1284.0,square2,f,0.1673,1,N,2.0
NS2,22.0,54.0,76.0,36.0,47.0,76,1360.0,square2,f,0.0021,1,N,2.0
NS2,23.0,55.0,77.0,35.0,42.0,77,1437.0,square2,f,0.1831,1,N,2.0
NS2,24.0,53.0,68.0,35.0,46.0,68,1505.0,square2,f,0.0026,1,N,2.0
NS2,25.0,55.0,73.0,29.0,45.0,73,1578.0,square2,f,0.1171,1,N,2.0
NS2,26.0,52.0,69.0,30.0,49.0,69,1647.0,square2,f,0.2057,1,N,2.0
NS2,27.0,52.0,62.0,33.0,52.0,62,1709.0,square2,f,0.1854,1,N,2.0
NS2,28.0,58.0,62.0,33.0,47.0,62,1771.0,square2,f,0.1352,1,N,2.0
NS2,29.0,56.0,65.0,38.0,46.0,65,1836.0,square2,f,0.0024,1,N,2.0
NS2,30.0,56.0,66.0,37.0,50.0,66,1902.0,square2,f,0.1178,1,N,2.0
NS2,31.0,50.0,64.0,35.0,45.0,64,1966.0,square2,f,0.1515,1,N,2.0
NS2,32.0,56.0,62.0,38.0,45.0,62,2028.0,square2,f,0.1853,1,N,2.0
NS2,33.0,59.0,58.0,34.0,48.0,58,2086.0,square2,f,0.1461,1,N,2.0
NS2,34.0,55.0,59.0,36.0,48.0,59,2145.0,square2,f,0.079,1,N,2.0
NS2,35.0,54.0,57.0,33.0,48.0,57,2202.0,square2,f,0.2138,1,N,2.0
NS2,36.0,53.0,58.0,34.0,51.0,58,2260.0,square2,f,0.1336,1,N,2.0
NS2,37.0,46.0,53.0,32.0,55.0,53,2313.0,square2,f,0.051,1,N,2.0
NS2,38.0,46.0,59.0,37.0,49.0,37,2350.0,square3,r,0.0699,2,N,2.0
NS2,39.0,53.0,59.0,36.0,48.0,48,2398.0,square4,i,0.0469,3,N,2.0
NS2,40.0,46.0,60.0,37.0,42.0,46,2444.0,square1,j,0.036,0,N,2.0
NS2,41.0,51.0,57.0,42.0,41.0,57,2501.0,square2,f,0.1185,1,N,2.0
NS2,42.0,49.0,53.0,46.0,41.0,53,2554.0,square2,f,0.002,1,N,2.0
NS2,43.0,49.0,57.0,43.0,39.0,57,2611.0,square2,f,0.1872,1,N,2.0
NS2,44.0,48.0,55.0,48.0,37.0,55,2666.0,square2,f,0.1688,1,N,2.0
NS2,45.0,49.0,52.0,34.0,36.0,52,2718.0,square2,f,0.0833,1,N,2.0
NS2,46.0,50.0,46.0,39.0,34.0,46,2764.0,square2,f,0.1235,1,N,2.0
NS2,47.0,55.0,48.0,39.0,26.0,48,2812.0,square2,f,0.1691,1,N,2.0
NS2,48.0,55.0,42.0,41.0,31.0,41,2853.0,square3,r,0.1534,2,N,2.0
NS2,49.0,55.0,41.0,36.0,36.0,36,2889.0,square4,i,0.2985,3,N,2.0
NS2,50.0,50.0,43.0,43.0,36.0,50,2939.0,square1,j,0.2323,0,N,2.0
NS2,51.0,49.0,40.0,44.0,32.0,49,2988.0,square1,j,0.1323,0,N,2.0
NS2,52.0,54.0,45.0,40.0,32.0,54,3042.0,square1,j,0.0021,0,N,2.0
NS2,53.0,55.0,44.0,42.0,38.0,55,3097.0,square1,j,0.0629,0,N,2.0
NS2,54.0,57.0,44.0,42.0,37.0,44,3141.0,square2,f,0.2265,1,N,2.0
NS2,55.0,56.0,47.0,35.0,29.0,56,3197.0,square1,j,0.1622,0,N,2.0
NS2,56.0,56.0,45.0,31.0,36.0,56,3253.0,square1,j,0.0892,0,N,2.0
NS2,57.0,48.0,43.0,33.0,36.0,48,3301.0,square1,j,0.0099,0,N,2.0
NS2,58.0,46.0,44.0,30.0,40.0,46,3347.0,square1,j,0.3308,0,N,2.0
NS2,59.0,45.0,36.0,33.0,37.0,37,3384.0,square4,i,0.181,3,N,2.0
NS2,60.0,45.0,37.0,32.0,38.0,32,3416.0,square3,r,0.6276,2,N,2.0
NS2,61.0,47.0,37.0,31.0,37.0,37,3453.0,square2,f,0.2022,1,N,2.0
NS2,62.0,46.0,36.0,28.0,34.0,46,3499.0,square1,j,0.1032,0,N,2.0
NS2,63.0,53.0,36.0,26.0,43.0,53,3552.0,square1,j,0.0043,0,N,2.0
NS2,64.0,53.0,37.0,24.0,45.0,53,3605.0,square1,j,0.0677,0,N,2.0
NS2,65.0,49.0,34.0,27.0,49.0,49,3654.0,square1,j,0.0393,0,N,2.0
NS2,66.0,50.0,30.0,26.0,57.0,50,3704.0,square1,j,0.003,0,N,2.0
NS2,67.0,49.0,28.0,32.0,55.0,49,3753.0,square1,j,0.1629,0,N,2.0
NS2,68.0,53.0,23.0,35.0,55.0,53,3806.0,square1,j,0.1142,0,N,2.0
NS2,69.0,49.0,29.0,33.0,51.0,49,3855.0,square1,j,0.0512,0,N,2.0
NS2,70.0,54.0,27.0,30.0,60.0,54,3909.0,square1,j,0.0023,0,N,2.0
NS2,71.0,57.0,28.0,31.0,59.0,57,3966.0,square1,j,0.0029,0,N,2.0
NS2,72.0,55.0,25.0,29.0,61.0,55,4021.0,square1,j,0.077,0,N,2.0
NS2,73.0,63.0,29.0,31.0,56.0,63,4084.0,square1,j,0.0569,0,N,2.0
NS2,74.0,59.0,34.0,34.0,58.0,59,4143.0,square1,j,0.1688,0,N,2.0
NS2,75.0,58.0,37.0,31.0,53.0,58,4201.0,square1,j,0.0535,0,N,2.0
NS2,76.0,62.0,41.0,25.0,53.0,62,4263.0,square1,j,0.0024,0,N,2.0
NS2,77.0,60.0,37.0,30.0,52.0,60,4323.0,square1,j,0.1435,0,N,2.0
NS2,78.0,63.0,37.0,37.0,50.0,63,4386.0,square1,j,0.1035,0,N,2.0
NS2,79.0,66.0,44.0,32.0,47.0,66,4452.0,square1,j,0.0031,0,N,2.0
NS2,80.0,65.0,41.0,30.0,45.0,65,4517.0,square1,j,0.1177,0,N,2.0
NS2,81.0,60.0,37.0,26.0,49.0,60,4577.0,square1,j,0.0507,0,N,2.0
NS2,82.0,68.0,38.0,28.0,46.0,68,4645.0,square1,j,0.039,0,N,2.0
NS2,83.0,63.0,42.0,30.0,49.0,63,4708.0,square1,j,0.0781,0,N,2.0
NS2,84.0,71.0,41.0,37.0,51.0,71,4779.0,square1,j,0.1785,0,N,2.0
NS2,85.0,63.0,47.0,29.0,40.0,63,4842.0,square1,j,0.1808,0,N,2.0
NS2,86.0,67.0,42.0,36.0,44.0,67,4909.0,square1,j,0.1532,0,N,2.0
NS2,87.0,62.0,45.0,31.0,41.0,62,4971.0,square1,j,0.0672,0,N,2.0
NS2,88.0,63.0,39.0,32.0,44.0,63,5034.0,square1,j,0.1639,0,N,2.0
NS2,89.0,66.0,39.0,37.0,39.0,66,5100.0,square1,j,0.0788,0,N,2.0
NS2,90.0,53.0,38.0,35.0,40.0,53,5153.0,square1,j,0.0902,0,N,2.0
NS2,91.0,57.0,39.0,38.0,43.0,57,5210.0,square1,j,0.0312,0,N,2.0
NS2,92.0,53.0,36.0,40.0,47.0,53,5263.0,square1,j,0.1651,0,N,2.0
NS2,93.0,47.0,39.0,43.0,38.0,47,5310.0,square1,j,0.1489,0,N,2.0
NS2,94.0,45.0,33.0,46.0,40.0,33,5343.0,square2,f,0.5641,1,N,2.0
NS2,95.0,49.0,38.0,53.0,36.0,53,5396.0,square3,r,0.5694,2,N,2.0
NS2,96.0,50.0,39.0,46.0,34.0,34,5430.0,square4,i,0.2494,3,N,2.0
NS2,97.0,57.0,37.0,44.0,41.0,44,5474.0,square3,r,0.0811,2,N,2.0
NS2,98.0,55.0,43.0,39.0,43.0,55,5529.0,square1,j,0.1097,0,N,2.0
NS2,99.0,56.0,46.0,41.0,41.0,56,5585.0,square1,j,0.053,0,N,2.0
NS3,0.0,52.0,26.0,68.0,52.0,26,26.0,square2,r,1.6762,1,N,3.0
NS3,1.0,57.0,23.0,69.0,48.0,57,83.0,square1,i,0.4263,0,N,3.0
NS3,2.0,59.0,26.0,70.0,52.0,52,135.0,square4,f,0.2806,3,N,3.0
NS3,3.0,57.0,24.0,70.0,52.0,70,205.0,square3,j,0.2837,2,N,3.0
NS3,4.0,59.0,30.0,74.0,49.0,74,279.0,square3,j,0.1754,2,N,3.0
NS3,5.0,55.0,24.0,67.0,51.0,67,346.0,square3,j,0.1222,2,N,3.0
NS3,6.0,54.0,27.0,73.0,55.0,73,419.0,square3,j,0.002,2,N,3.0
NS3,7.0,55.0,28.0,66.0,43.0,66,485.0,square3,j,0.0024,2,N,3.0
NS3,8.0,57.0,30.0,65.0,45.0,65,550.0,square3,j,0.0019,2,N,3.0
NS3,9.0,53.0,33.0,54.0,37.0,54,604.0,square3,j,0.0356,2,N,3.0
NS3,10.0,46.0,27.0,54.0,43.0,43,647.0,square4,f,0.3906,3,N,3.0
NS3,11.0,48.0,31.0,58.0,51.0,48,695.0,square1,i,0.0152,0,N,3.0
NS3,12.0,50.0,27.0,54.0,53.0,27,722.0,square2,r,0.069,1,N,3.0
NS3,13.0,49.0,28.0,62.0,50.0,62,784.0,square3,j,0.0867,2,N,3.0
NS3,14.0,53.0,28.0,62.0,52.0,62,846.0,square3,j,0.1282,2,N,3.0
NS3,15.0,52.0,25.0,57.0,57.0,57,903.0,square3,j,0.0328,2,N,3.0
NS3,16.0,48.0,29.0,56.0,56.0,56,959.0,square3,j,0.0668,2,N,3.0
NS3,17.0,39.0,21.0,58.0,56.0,58,1017.0,square3,j,0.094,2,N,3.0
NS3,18.0,40.0,23.0,58.0,60.0,58,1075.0,square3,j,0.0234,2,N,3.0
NS3,19.0,40.0,26.0,63.0,58.0,63,1138.0,square3,j,0.0965,2,N,3.0
NS3,20.0,46.0,24.0,60.0,56.0,60,1198.0,square3,j,0.1205,2,N,3.0
NS3,21.0,42.0,27.0,61.0,55.0,61,1259.0,square3,j,0.009,2,N,3.0
NS3,22.0,45.0,26.0,62.0,56.0,62,1321.0,square3,j,0.0022,2,N,3.0
NS3,23.0,39.0,21.0,64.0,60.0,64,1385.0,square3,j,0.0022,2,N,3.0
NS3,24.0,44.0,21.0,59.0,64.0,59,1444.0,square3,j,0.0185,2,N,3.0
NS3,25.0,44.0,22.0,58.0,65.0,58,1502.0,square3,j,0.1643,2,N,3.0
NS3,26.0,42.0,26.0,60.0,62.0,60,1562.0,square3,j,0.0598,2,N,3.0
NS3,27.0,38.0,18.0,55.0,67.0,55,1617.0,square3,j,0.1033,2,N,3.0
NS3,28.0,41.0,23.0,56.0,60.0,56,1673.0,square3,j,0.0519,2,N,3.0
NS3,29.0,38.0,16.0,52.0,66.0,52,1725.0,square3,j,0.0861,2,N,3.0
NS3,30.0,36.0,13.0,61.0,64.0,61,1786.0,square3,j,0.0518,2,N,3.0
NS3,31.0,42.0,13.0,54.0,63.0,54,1840.0,square3,j,0.149,2,N,3.0
NS3,32.0,38.0,18.0,50.0,62.0,62,1902.0,square4,f,0.1233,3,N,3.0
NS3,33.0,29.0,20.0,51.0,64.0,64,1966.0,square4,f,0.2434,3,N,3.0
NS3,34.0,32.0,21.0,45.0,63.0,32,1998.0,square1,i,0.3802,0,N,3.0
NS3,35.0,30.0,17.0,46.0,65.0,17,2015.0,square2,r,0.0637,1,N,3.0
NS3,36.0,35.0,16.0,47.0,69.0,69,2084.0,square4,f,0.1025,3,N,3.0
NS3,37.0,34.0,18.0,45.0,68.0,68,2152.0,square4,f,0.153,3,N,3.0
NS3,38.0,40.0,14.0,50.0,74.0,74,2226.0,square4,f,0.0847,3,N,3.0
NS3,39.0,39.0,15.0,49.0,73.0,73,2299.0,square4,f,0.0026,3,N,3.0
NS3,40.0,42.0,15.0,51.0,74.0,74,2373.0,square4,f,0.021,3,N,3.0
NS3,41.0,38.0,17.0,43.0,74.0,74,2447.0,square4,f,0.018,3,N,3.0
NS3,42.0,36.0,16.0,46.0,74.0,74,2521.0,square4,f,0.1677,3,N,3.0
NS3,43.0,41.0,21.0,44.0,76.0,76,2597.0,square4,f,0.1364,3,N,3.0
NS3,44.0,41.0,26.0,35.0,70.0,70,2667.0,square4,f,0.0023,3,N,3.0
NS3,45.0,39.0,27.0,33.0,75.0,75,2742.0,square4,f,0.0434,3,N,3.0
NS3,46.0,45.0,25.0,38.0,77.0,77,2819.0,square4,f,0.1684,3,N,3.0
NS3,47.0,41.0,20.0,34.0,76.0,76,2895.0,square4,f,0.0105,3,N,3.0
NS3,48.0,37.0,25.0,34.0,77.0,77,2972.0,square4,f,0.0023,3,N,3.0
NS3,49.0,41.0,18.0,40.0,78.0,78,3050.0,square4,f,0.0665,3,N,3.0
NS3,50.0,42.0,17.0,41.0,83.0,83,3133.0,square4,f,0.0864,3,N,3.0
NS3,51.0,53.0,18.0,39.0,83.0,83,3216.0,square4,f,0.0124,3,N,3.0
NS3,52.0,55.0,19.0,34.0,82.0,82,3298.0,square4,f,0.085,3,N,3.0
NS3,53.0,52.0,17.0,39.0,77.0,77,3375.0,square4,f,0.0463,3,N,3.0
NS3,54.0,55.0,21.0,46.0,77.0,77,3452.0,square4,f,0.1059,3,N,3.0
NS3,55.0,48.0,21.0,49.0,75.0,75,3527.0,square4,f,0.1146,3,N,3.0
NS3,56.0,50.0,25.0,51.0,74.0,74,3601.0,square4,f,0.1675,3,N,3.0
NS3,57.0,54.0,23.0,46.0,66.0,66,3667.0,square4,f,0.1119,3,N,3.0
NS3,58.0,60.0,25.0,50.0,72.0,72,3739.0,square4,f,0.169,3,N,3.0
NS3,59.0,54.0,23.0,46.0,72.0,23,3762.0,square2,r,0.1527,1,N,3.0
NS3,60.0,51.0,26.0,50.0,72.0,51,3813.0,square1,i,0.4275,0,N,3.0
NS3,61.0,57.0,27.0,54.0,71.0,54,3867.0,square3,j,0.2152,2,N,3.0
NS3,62.0,51.0,27.0,54.0,64.0,64,3931.0,square4,f,0.113,3,N,3.0
NS3,63.0,54.0,25.0,42.0,62.0,62,3993.0,square4,f,0.0591,3,N,3.0
NS3,64.0,54.0,25.0,47.0,62.0,62,4055.0,square4,f,0.0145,3,N,3.0
NS3,65.0,48.0,26.0,45.0,60.0,60,4115.0,square4,f,0.1372,3,N,3.0
NS3,66.0,49.0,22.0,47.0,60.0,60,4175.0,square4,f,0.1504,3,N,3.0
NS3,67.0,49.0,26.0,45.0,65.0,65,4240.0,square4,f,0.1276,3,N,3.0
NS3,68.0,54.0,26.0,47.0,67.0,67,4307.0,square4,f,0.0743,3,N,3.0
NS3,69.0,48.0,22.0,45.0,56.0,56,4363.0,square4,f,0.0496,3,N,3.0
NS3,70.0,55.0,26.0,48.0,61.0,61,4424.0,square4,f,0.152,3,N,3.0
NS3,71.0,55.0,29.0,43.0,60.0,60,4484.0,square4,f,0.002,3,N,3.0
NS3,72.0,56.0,30.0,43.0,51.0,51,4535.0,square4,f,0.1857,3,N,3.0
NS3,73.0,55.0,27.0,47.0,56.0,56,4591.0,square4,f,0.1855,3,N,3.0
NS3,74.0,63.0,26.0,44.0,55.0,26,4617.0,square2,r,0.1284,1,N,3.0
NS3,75.0,61.0,34.0,45.0,62.0,61,4678.0,square1,i,0.3179,0,N,3.0
NS3,76.0,55.0,28.0,45.0,62.0,45,4723.0,square3,j,0.2709,2,N,3.0
NS3,77.0,58.0,31.0,53.0,66.0,58,4781.0,square1,i,0.2848,0,N,3.0
NS3,78.0,55.0,29.0,51.0,60.0,55,4836.0,square1,i,0.1754,0,N,3.0
NS3,79.0,51.0,29.0,52.0,68.0,68,4904.0,square4,f,0.2513,3,N,3.0
NS3,80.0,55.0,31.0,48.0,59.0,59,4963.0,square4,f,0.0146,3,N,3.0
NS3,81.0,56.0,38.0,56.0,64.0,64,5027.0,square4,f,0.1566,3,N,3.0
NS3,82.0,54.0,27.0,54.0,55.0,55,5082.0,square4,f,0.1321,3,N,3.0
NS3,83.0,62.0,30.0,49.0,58.0,62,5144.0,square1,i,0.0218,0,N,3.0
NS3,84.0,64.0,24.0,47.0,62.0,64,5208.0,square1,i,0.0182,0,N,3.0
NS3,85.0,65.0,23.0,54.0,63.0,65,5273.0,square1,i,0.0021,0,N,3.0
NS3,86.0,68.0,25.0,56.0,65.0,68,5341.0,square1,i,0.068,0,N,3.0
NS3,87.0,65.0,22.0,55.0,60.0,65,5406.0,square1,i,0.1022,0,N,3.0
NS3,88.0,64.0,20.0,58.0,65.0,64,5470.0,square1,i,0.1115,0,N,3.0
NS3,89.0,68.0,13.0,62.0,64.0,68,5538.0,square1,i,0.0295,0,N,3.0
NS3,90.0,72.0,13.0,52.0,64.0,72,5610.0,square1,i,0.0289,0,N,3.0
NS3,91.0,67.0,20.0,52.0,69.0,67,5677.0,square1,i,0.0692,0,N,3.0
NS3,92.0,72.0,21.0,58.0,64.0,72,5749.0,square1,i,0.1247,0,N,3.0
NS3,93.0,73.0,16.0,54.0,67.0,73,5822.0,square1,i,0.0028,0,N,3.0
NS3,94.0,69.0,17.0,51.0,64.0,69,5891.0,square1,i,0.0555,0,N,3.0
NS3,95.0,62.0,19.0,60.0,62.0,62,5953.0,square1,i,0.0273,0,N,3.0
NS3,96.0,67.0,15.0,56.0,67.0,67,6020.0,square1,i,0.0987,0,N,3.0
NS3,97.0,61.0,17.0,58.0,62.0,61,6081.0,square1,i,0.0214,0,N,3.0
NS3,98.0,59.0,13.0,58.0,58.0,59,6140.0,square1,i,0.0927,0,N,3.0
NS3,99.0,62.0,15.0,51.0,60.0,15,6155.0,square2,r,0.2436,1,N,3.0
V10,0.0,28.0,21.0,37.0,46.0,46,46.0,square4,r,0.8152,3,V,10.0
V10,1.0,26.0,19.0,41.0,49.0,41,87.0,square3,i,0.0121,2,V,10.0
V10,2.0,29.0,20.0,43.0,48.0,29,116.0,square1,f,0.319,0,V,10.0
V10,3.0,27.0,27.0,37.0,44.0,27,143.0,square2,j,0.2426,1,V,10.0
V10,4.0,28.0,16.0,36.0,47.0,47,190.0,square4,r,0.2538,3,V,10.0
V10,5.0,33.0,25.0,42.0,54.0,42,232.0,square3,i,0.2113,2,V,10.0
V10,6.0,28.0,19.0,35.0,45.0,45,277.0,square4,r,0.0838,3,V,10.0
V10,7.0,30.0,24.0,35.0,49.0,49,326.0,square4,r,0.0464,3,V,10.0
V10,8.0,37.0,29.0,41.0,47.0,47,373.0,square4,r,0.0675,3,V,10.0
V10,9.0,28.0,21.0,41.0,48.0,48,421.0,square4,r,0.002,3,V,10.0
V10,10.0,27.0,22.0,39.0,42.0,42,463.0,square4,r,0.0847,3,V,10.0
V10,11.0,32.0,16.0,41.0,48.0,48,511.0,square4,r,0.0678,3,V,10.0
V10,12.0,34.0,15.0,33.0,49.0,49,560.0,square4,r,0.0375,3,V,10.0
V10,13.0,36.0,19.0,41.0,45.0,45,605.0,square4,r,0.0021,3,V,10.0
V10,14.0,28.0,23.0,35.0,53.0,53,658.0,square4,r,0.0153,3,V,10.0
V10,15.0,26.0,28.0,40.0,50.0,50,708.0,square4,r,0.0113,3,V,10.0
V10,16.0,30.0,25.0,42.0,47.0,47,755.0,square4,r,0.1618,3,V,10.0
V10,17.0,31.0,19.0,38.0,50.0,38,793.0,square3,i,0.3275,2,V,10.0
V10,18.0,34.0,21.0,35.0,48.0,34,827.0,square1,f,0.0485,0,V,10.0
V10,19.0,31.0,24.0,39.0,46.0,24,851.0,square2,j,0.1529,1,V,10.0
V10,20.0,28.0,22.0,42.0,47.0,47,898.0,square4,r,0.0689,3,V,10.0
V10,21.0,24.0,20.0,41.0,47.0,47,945.0,square4,r,0.0261,3,V,10.0
V10,22.0,32.0,22.0,34.0,44.0,44,989.0,square4,r,0.0511,3,V,10.0
V10,23.0,29.0,23.0,37.0,47.0,47,1036.0,square4,r,0.0025,3,V,10.0
V10,24.0,25.0,25.0,38.0,46.0,46,1082.0,square4,r,0.0958,3,V,10.0
V10,25.0,30.0,24.0,41.0,45.0,45,1127.0,square4,r,0.1203,3,V,10.0
V10,26.0,32.0,17.0,38.0,49.0,49,1176.0,square4,r,0.1343,3,V,10.0
V10,27.0,34.0,21.0,38.0,47.0,47,1223.0,square4,r,0.1874,3,V,10.0
V10,28.0,29.0,21.0,37.0,45.0,45,1268.0,square4,r,0.0199,3,V,10.0
V10,29.0,30.0,20.0,31.0,47.0,31,1299.0,square3,i,0.2182,2,V,10.0
V10,30.0,28.0,21.0,35.0,44.0,28,1327.0,square1,f,0.1694,0,V,10.0
V10,31.0,36.0,25.0,14.0,8.0,25,1352.0,square2,j,0.2684,1,V,10.0
V10,32.0,38.0,27.0,19.0,11.0,11,1363.0,square4,r,0.0554,3,V,10.0
V10,33.0,39.0,21.0,20.0,13.0,13,1376.0,square4,r,0.061,3,V,10.0
V10,34.0,34.0,24.0,20.0,10.0,20,1396.0,square3,i,0.0595,2,V,10.0
V10,35.0,44.0,29.0,17.0,11.0,29,1425.0,square2,j,0.0195,1,V,10.0
V10,36.0,33.0,30.0,17.0,9.0,33,1458.0,square1,f,0.1542,0,V,10.0
V10,37.0,31.0,27.0,12.0,6.0,31,1489.0,square1,f,0.1354,0,V,10.0
V10,38.0,34.0,29.0,15.0,10.0,34,1523.0,square1,f,0.1235,0,V,10.0
V10,39.0,35.0,21.0,19.0,5.0,35,1558.0,square1,f,0.028,0,V,10.0
V10,40.0,32.0,26.0,18.0,6.0,32,1590.0,square1,f,0.0023,0,V,10.0
V10,41.0,34.0,32.0,13.0,9.0,34,1624.0,square1,f,0.111,0,V,10.0
V10,42.0,35.0,30.0,16.0,8.0,35,1659.0,square1,f,0.1015,0,V,10.0
V10,43.0,38.0,32.0,16.0,8.0,38,1697.0,square1,f,0.0891,0,V,10.0
V10,44.0,34.0,20.0,18.0,3.0,34,1731.0,square1,f,0.0122,0,V,10.0
V10,45.0,38.0,22.0,23.0,9.0,38,1769.0,square1,f,0.0255,0,V,10.0
V10,46.0,36.0,28.0,16.0,10.0,36,1805.0,square1,f,0.0088,0,V,10.0
V10,47.0,36.0,27.0,13.0,8.0,36,1841.0,square1,f,0.0366,0,V,10.0
V10,48.0,35.0,27.0,14.0,12.0,12,1853.0,square4,r,0.2813,3,V,10.0
V10,49.0,33.0,28.0,16.0,10.0,16,1869.0,square3,i,0.2521,2,V,10.0
V10,50.0,31.0,29.0,19.0,8.0,29,1898.0,square2,j,0.1976,1,V,10.0
V10,51.0,32.0,21.0,20.0,12.0,32,1930.0,square1,f,0.092,0,V,10.0
V10,52.0,29.0,25.0,21.0,10.0,29,1959.0,square1,f,0.007,0,V,10.0
V10,53.0,39.0,29.0,23.0,2.0,39,1998.0,square1,f,0.2673,0,V,10.0
V10,54.0,33.0,28.0,19.0,7.0,33,2031.0,square1,f,0.0719,0,V,10.0
V10,55.0,34.0,24.0,15.0,8.0,34,2065.0,square1,f,0.0113,0,V,10.0
V10,56.0,35.0,20.0,21.0,9.0,35,2100.0,square1,f,0.016,0,V,10.0
V10,57.0,33.0,27.0,19.0,7.0,33,2133.0,square1,f,0.1353,0,V,10.0
V10,58.0,38.0,24.0,16.0,7.0,38,2171.0,square1,f,0.1429,0,V,10.0
V10,59.0,34.0,29.0,15.0,5.0,34,2205.0,square1,f,0.043,0,V,10.0
V10,60.0,34.0,22.0,19.0,9.0,34,2239.0,square1,f,0.0589,0,V,10.0
V10,61.0,39.0,31.0,20.0,10.0,39,2278.0,square1,f,0.0932,0,V,10.0
V10,62.0,35.0,24.0,18.0,6.0,35,2313.0,square1,f,0.1116,0,V,10.0
V10,63.0,35.0,26.0,18.0,9.0,9,2322.0,square4,r,0.2139,3,V,10.0
V10,64.0,31.0,55.0,23.0,23.0,23,2345.0,square3,i,0.0034,2,V,10.0
V10,65.0,35.0,50.0,22.0,27.0,50,2395.0,square2,j,0.0406,1,V,10.0
V10,66.0,35.0,53.0,25.0,29.0,53,2448.0,square2,j,0.1363,1,V,10.0
V10,67.0,38.0,44.0,17.0,29.0,44,2492.0,square2,j,0.0514,1,V,10.0
V10,68.0,36.0,48.0,22.0,27.0,48,2540.0,square2,j,0.0019,1,V,10.0
V10,69.0,41.0,53.0,17.0,28.0,53,2593.0,square2,j,0.1029,1,V,10.0
V10,70.0,40.0,48.0,23.0,28.0,48,2641.0,square2,j,0.0842,1,V,10.0
V10,71.0,39.0,43.0,24.0,20.0,43,2684.0,square2,j,0.1018,1,V,10.0
V10,72.0,36.0,49.0,19.0,25.0,49,2733.0,square2,j,0.0582,1,V,10.0
V10,73.0,39.0,49.0,23.0,32.0,49,2782.0,square2,j,0.1014,1,V,10.0
V10,74.0,36.0,44.0,17.0,29.0,44,2826.0,square2,j,0.0185,1,V,10.0
V10,75.0,37.0,46.0,20.0,30.0,46,2872.0,square2,j,0.0875,1,V,10.0
V10,76.0,38.0,47.0,23.0,30.0,47,2919.0,square2,j,0.154,1,V,10.0
V10,77.0,36.0,49.0,22.0,32.0,49,2968.0,square2,j,0.125,1,V,10.0
V10,78.0,41.0,44.0,19.0,27.0,44,3012.0,square2,j,0.0688,1,V,10.0
V10,79.0,41.0,48.0,22.0,27.0,48,3060.0,square2,j,0.078,1,V,10.0
V10,80.0,34.0,44.0,26.0,29.0,44,3104.0,square2,j,0.0448,1,V,10.0
V10,81.0,38.0,47.0,18.0,29.0,47,3151.0,square2,j,0.0971,1,V,10.0
V10,82.0,43.0,43.0,23.0,28.0,43,3194.0,square2,j,0.0774,1,V,10.0
V10,83.0,34.0,51.0,23.0,26.0,51,3245.0,square2,j,0.0897,1,V,10.0
V10,84.0,36.0,46.0,18.0,25.0,46,3291.0,square2,j,0.0514,1,V,10.0
V10,85.0,39.0,46.0,25.0,26.0,46,3337.0,square2,j,0.0527,1,V,10.0
V10,86.0,39.0,50.0,27.0,27.0,50,3387.0,square2,j,0.0873,1,V,10.0
V10,87.0,38.0,46.0,20.0,30.0,46,3433.0,square2,j,0.2046,1,V,10.0
V10,88.0,37.0,49.0,22.0,28.0,49,3482.0,square2,j,0.17,1,V,10.0
V10,89.0,34.0,51.0,25.0,26.0,51,3533.0,square2,j,0.0268,1,V,10.0
V10,90.0,41.0,49.0,22.0,29.0,49,3582.0,square2,j,0.202,1,V,10.0
V10,91.0,37.0,45.0,26.0,32.0,45,3627.0,square2,j,0.2338,1,V,10.0
V10,92.0,42.0,42.0,27.0,28.0,42,3669.0,square2,j,0.0094,1,V,10.0
V10,93.0,41.0,48.0,19.0,36.0,48,3717.0,square2,j,0.1745,1,V,10.0
V10,94.0,43.0,49.0,23.0,31.0,49,3766.0,square2,j,0.1034,1,V,10.0
V10,95.0,39.0,46.0,18.0,27.0,46,3812.0,square2,j,0.0858,1,V,10.0
V10,96.0,37.0,48.0,24.0,27.0,48,3860.0,square2,j,0.1812,1,V,10.0
V10,97.0,42.0,50.0,23.0,31.0,50,3910.0,square2,j,0.1577,1,V,10.0
V10,98.0,33.0,47.0,25.0,32.0,47,3957.0,square2,j,0.1111,1,V,10.0
V10,99.0,39.0,48.0,23.0,32.0,48,4005.0,square2,j,0.1639,1,V,10.0
V4,0.0,63.0,38.0,47.0,55.0,63,63.0,square1,r,0.7782,0,V,4.0
V4,1.0,66.0,42.0,43.0,59.0,42,105.0,square2,i,0.6828,1,V,4.0
V4,2.0,66.0,39.0,57.0,59.0,57,162.0,square3,f,0.3077,2,V,4.0
V4,3.0,66.0,37.0,51.0,59.0,59,221.0,square4,j,0.2529,3,V,4.0
V4,4.0,69.0,37.0,50.0,55.0,69,290.0,square1,r,0.4246,0,V,4.0
V4,5.0,64.0,44.0,46.0,62.0,64,354.0,square1,r,0.0362,0,V,4.0
V4,6.0,75.0,43.0,49.0,57.0,75,429.0,square1,r,0.0842,0,V,4.0
V4,7.0,62.0,41.0,52.0,59.0,62,491.0,square1,r,0.0022,0,V,4.0
V4,8.0,65.0,41.0,44.0,60.0,65,556.0,square1,r,0.0021,0,V,4.0
V4,9.0,68.0,35.0,44.0,64.0,68,624.0,square1,r,0.0968,0,V,4.0
V4,10.0,67.0,44.0,48.0,61.0,67,691.0,square1,r,0.1649,0,V,4.0
V4,11.0,61.0,40.0,48.0,56.0,61,752.0,square1,r,0.1191,0,V,4.0
V4,12.0,68.0,41.0,49.0,55.0,68,820.0,square1,r,0.0858,0,V,4.0
V4,13.0,63.0,42.0,47.0,60.0,63,883.0,square1,r,0.0859,0,V,4.0
V4,14.0,63.0,40.0,51.0,55.0,63,946.0,square1,r,0.0818,0,V,4.0
V4,15.0,62.0,41.0,52.0,62.0,62,1008.0,square1,r,0.1146,0,V,4.0
V4,16.0,69.0,37.0,47.0,60.0,69,1077.0,square1,r,0.0838,0,V,4.0
V4,17.0,66.0,40.0,48.0,56.0,66,1143.0,square1,r,0.1303,0,V,4.0
V4,18.0,67.0,43.0,47.0,59.0,67,1210.0,square1,r,0.1146,0,V,4.0
V4,19.0,64.0,42.0,51.0,59.0,64,1274.0,square1,r,0.1847,0,V,4.0
V4,20.0,67.0,40.0,47.0,58.0,67,1341.0,square1,r,0.0225,0,V,4.0
V4,21.0,60.0,41.0,50.0,59.0,60,1401.0,square1,r,0.1917,0,V,4.0
V4,22.0,66.0,43.0,54.0,55.0,66,1467.0,square1,r,0.2022,0,V,4.0
V4,23.0,67.0,37.0,50.0,62.0,67,1534.0,square1,r,0.1185,0,V,4.0
V4,24.0,67.0,37.0,49.0,60.0,67,1601.0,square1,r,0.1901,0,V,4.0
V4,25.0,67.0,39.0,55.0,52.0,67,1668.0,square1,r,0.1787,0,V,4.0
V4,26.0,64.0,39.0,51.0,63.0,39,1707.0,square2,i,0.1565,1,V,4.0
V4,27.0,68.0,36.0,55.0,60.0,60,1767.0,square4,j,0.0313,3,V,4.0
V4,28.0,67.0,40.0,46.0,54.0,46,1813.0,square3,f,0.2258,2,V,4.0
V4,29.0,67.0,41.0,50.0,57.0,67,1880.0,square1,r,0.1687,0,V,4.0
V4,30.0,66.0,39.0,49.0,53.0,66,1946.0,square1,r,0.1114,0,V,4.0
V4,31.0,70.0,38.0,48.0,58.0,70,2016.0,square1,r,0.0488,0,V,4.0
V4,32.0,63.0,40.0,53.0,61.0,63,2079.0,square1,r,0.0026,0,V,4.0
V4,33.0,66.0,41.0,51.0,56.0,66,2145.0,square1,r,0.008,0,V,4.0
V4,34.0,64.0,39.0,46.0,57.0,64,2209.0,square1,r,0.1359,0,V,4.0
V4,35.0,69.0,36.0,50.0,58.0,69,2278.0,square1,r,0.057,0,V,4.0
V4,36.0,60.0,43.0,53.0,54.0,60,2338.0,square1,r,0.1429,0,V,4.0
V4,37.0,52.0,78.0,68.0,66.0,52,2390.0,square1,r,0.2005,0,V,4.0
V4,38.0,44.0,81.0,68.0,62.0,81,2471.0,square2,i,0.1364,1,V,4.0
V4,39.0,59.0,71.0,70.0,63.0,71,2542.0,square2,i,0.1453,1,V,4.0
V4,40.0,53.0,77.0,73.0,59.0,77,2619.0,square2,i,0.0436,1,V,4.0
V4,41.0,53.0,76.0,74.0,66.0,76,2695.0,square2,i,0.0518,1,V,4.0
V4,42.0,51.0,79.0,73.0,59.0,79,2774.0,square2,i,0.0031,1,V,4.0
V4,43.0,48.0,76.0,68.0,65.0,76,2850.0,square2,i,0.0026,1,V,4.0
V4,44.0,57.0,83.0,78.0,63.0,83,2933.0,square2,i,0.1124,1,V,4.0
V4,45.0,54.0,74.0,69.0,61.0,74,3007.0,square2,i,0.0706,1,V,4.0
V4,46.0,53.0,85.0,66.0,62.0,85,3092.0,square2,i,0.0533,1,V,4.0
V4,47.0,56.0,83.0,68.0,57.0,83,3175.0,square2,i,0.0793,1,V,4.0
V4,48.0,49.0,74.0,73.0,59.0,74,3249.0,square2,i,0.0317,1,V,4.0
V4,49.0,54.0,74.0,70.0,60.0,74,3323.0,square2,i,0.0609,1,V,4.0
V4,50.0,47.0,83.0,69.0,60.0,83,3406.0,square2,i,0.0619,1,V,4.0
V4,51.0,54.0,78.0,73.0,56.0,78,3484.0,square2,i,0.0046,1,V,4.0
V4,52.0,52.0,76.0,71.0,58.0,76,3560.0,square2,i,0.1808,1,V,4.0
V4,53.0,51.0,82.0,76.0,63.0,82,3642.0,square2,i,0.0654,1,V,4.0
V4,54.0,57.0,76.0,69.0,64.0,76,3718.0,square2,i,0.0659,1,V,4.0
V4,55.0,49.0,75.0,68.0,59.0,75,3793.0,square2,i,0.0517,1,V,4.0
V4,56.0,55.0,81.0,66.0,65.0,81,3874.0,square2,i,0.1611,1,V,4.0
V4,57.0,58.0,80.0,72.0,63.0,80,3954.0,square2,i,0.0433,1,V,4.0
V4,58.0,49.0,81.0,66.0,62.0,81,4035.0,square2,i,0.0448,1,V,4.0
V4,59.0,57.0,78.0,73.0,59.0,78,4113.0,square2,i,0.0513,1,V,4.0
V4,60.0,48.0,79.0,66.0,59.0,79,4192.0,square2,i,0.0834,1,V,4.0
V4,61.0,53.0,80.0,72.0,60.0,80,4272.0,square2,i,0.1119,1,V,4.0
V4,62.0,53.0,79.0,70.0,61.0,79,4351.0,square2,i,0.1285,1,V,4.0
V4,63.0,81.0,66.0,90.0,66.0,66,4417.0,square2,i,0.1114,1,V,4.0
V4,64.0,80.0,64.0,85.0,76.0,64,4481.0,square2,i,0.2433,1,V,4.0
V4,65.0,77.0,61.0,92.0,74.0,74,4555.0,square4,j,0.1674,3,V,4.0
V4,66.0,89.0,65.0,91.0,73.0,91,4646.0,square3,f,0.2376,2,V,4.0
V4,67.0,86.0,64.0,92.0,70.0,92,4738.0,square3,f,0.0688,2,V,4.0
V4,68.0,82.0,60.0,91.0,77.0,91,4829.0,square3,f,0.1395,2,V,4.0
V4,69.0,78.0,69.0,90.0,70.0,90,4919.0,square3,f,0.0281,2,V,4.0
V4,70.0,85.0,64.0,95.0,73.0,95,5014.0,square3,f,0.0329,2,V,4.0
V4,71.0,85.0,61.0,88.0,69.0,88,5102.0,square3,f,0.0696,2,V,4.0
V4,72.0,86.0,63.0,87.0,75.0,87,5189.0,square3,f,0.1418,2,V,4.0
V4,73.0,86.0,69.0,92.0,70.0,92,5281.0,square3,f,0.0024,2,V,4.0
V4,74.0,81.0,62.0,90.0,69.0,90,5371.0,square3,f,0.1135,2,V,4.0
V4,75.0,83.0,66.0,88.0,74.0,88,5459.0,square3,f,0.0656,2,V,4.0
V4,76.0,80.0,64.0,92.0,75.0,92,5551.0,square3,f,0.0374,2,V,4.0
V4,77.0,81.0,65.0,91.0,74.0,91,5642.0,square3,f,0.0373,2,V,4.0
V4,78.0,78.0,70.0,89.0,73.0,89,5731.0,square3,f,0.0677,2,V,4.0
V4,79.0,84.0,66.0,85.0,75.0,85,5816.0,square3,f,0.0852,2,V,4.0
V4,80.0,83.0,65.0,93.0,74.0,93,5909.0,square3,f,0.1362,2,V,4.0
V4,81.0,86.0,59.0,91.0,74.0,91,6000.0,square3,f,0.1831,2,V,4.0
V4,82.0,87.0,64.0,92.0,73.0,92,6092.0,square3,f,0.1543,2,V,4.0
V4,83.0,83.0,68.0,86.0,70.0,86,6178.0,square3,f,0.0803,2,V,4.0
V4,84.0,82.0,62.0,87.0,73.0,87,6265.0,square3,f,0.1026,2,V,4.0
V4,85.0,85.0,61.0,90.0,70.0,90,6355.0,square3,f,0.1454,2,V,4.0
V4,86.0,84.0,66.0,97.0,71.0,97,6452.0,square3,f,0.1,2,V,4.0
V4,87.0,82.0,64.0,87.0,71.0,87,6539.0,square3,f,0.0682,2,V,4.0
V4,88.0,80.0,67.0,93.0,72.0,93,6632.0,square3,f,0.0944,2,V,4.0
V4,89.0,78.0,64.0,92.0,75.0,92,6724.0,square3,f,0.142,2,V,4.0
V4,90.0,75.0,66.0,88.0,72.0,88,6812.0,square3,f,0.0799,2,V,4.0
V4,91.0,82.0,59.0,91.0,76.0,91,6903.0,square3,f,0.1215,2,V,4.0
V4,92.0,84.0,62.0,91.0,70.0,91,6994.0,square3,f,0.1165,2,V,4.0
V4,93.0,80.0,61.0,94.0,76.0,94,7088.0,square3,f,0.1444,2,V,4.0
V4,94.0,83.0,64.0,88.0,72.0,88,7176.0,square3,f,0.0111,2,V,4.0
V4,95.0,82.0,60.0,94.0,69.0,94,7270.0,square3,f,0.0343,2,V,4.0
V4,96.0,84.0,63.0,92.0,72.0,92,7362.0,square3,f,0.1304,2,V,4.0
V4,97.0,84.0,62.0,85.0,70.0,85,7447.0,square3,f,0.1344,2,V,4.0
V4,98.0,81.0,64.0,93.0,72.0,93,7540.0,square3,f,0.1528,2,V,4.0
V4,99.0,80.0,61.0,92.0,75.0,92,7632.0,square3,f,0.1703,2,V,4.0
V12,0.0,47.0,30.0,38.0,55.0,55,55.0,square4,r,0.7635,3,V,12.0
V12,1.0,46.0,33.0,39.0,57.0,39,94.0,square3,i,0.2344,2,V,12.0
V12,2.0,51.0,29.0,42.0,52.0,51,145.0,square1,f,0.2438,0,V,12.0
V12,3.0,52.0,30.0,38.0,62.0,30,175.0,square2,j,0.2293,1,V,12.0
V12,4.0,48.0,30.0,39.0,62.0,62,237.0,square4,r,0.2124,3,V,12.0
V12,5.0,55.0,34.0,43.0,61.0,61,298.0,square4,r,0.2745,3,V,12.0
V12,6.0,45.0,35.0,42.0,56.0,56,354.0,square4,r,0.0995,3,V,12.0
V12,7.0,48.0,29.0,35.0,57.0,57,411.0,square4,r,0.2069,3,V,12.0
V12,8.0,46.0,33.0,38.0,59.0,38,449.0,square3,i,0.1798,2,V,12.0
V12,9.0,44.0,31.0,42.0,56.0,31,480.0,square2,j,0.42,1,V,12.0
V12,10.0,48.0,34.0,45.0,55.0,48,528.0,square1,f,0.1965,0,V,12.0
V12,11.0,45.0,32.0,41.0,55.0,55,583.0,square4,r,0.2289,3,V,12.0
V12,12.0,52.0,26.0,42.0,57.0,57,640.0,square4,r,0.0621,3,V,12.0
V12,13.0,56.0,31.0,41.0,54.0,54,694.0,square4,r,0.0521,3,V,12.0
V12,14.0,44.0,34.0,40.0,64.0,64,758.0,square4,r,0.0476,3,V,12.0
V12,15.0,48.0,32.0,39.0,61.0,61,819.0,square4,r,0.1627,3,V,12.0
V12,16.0,49.0,33.0,37.0,58.0,58,877.0,square4,r,0.114,3,V,12.0
V12,17.0,45.0,33.0,43.0,57.0,57,934.0,square4,r,0.1303,3,V,12.0
V12,18.0,45.0,28.0,40.0,58.0,58,992.0,square4,r,0.1658,3,V,12.0
V12,19.0,42.0,33.0,43.0,59.0,59,1051.0,square4,r,0.1004,3,V,12.0
V12,20.0,46.0,30.0,38.0,62.0,62,1113.0,square4,r,0.0779,3,V,12.0
V12,21.0,46.0,35.0,40.0,55.0,55,1168.0,square4,r,0.177,3,V,12.0
V12,22.0,46.0,34.0,36.0,63.0,63,1231.0,square4,r,0.1627,3,V,12.0
V12,23.0,54.0,34.0,42.0,56.0,42,1273.0,square3,i,0.095,2,V,12.0
V12,24.0,44.0,30.0,41.0,59.0,30,1303.0,square2,j,0.2397,1,V,12.0
V12,25.0,49.0,33.0,37.0,64.0,49,1352.0,square1,f,0.1488,0,V,12.0
V12,26.0,52.0,34.0,39.0,57.0,57,1409.0,square4,r,0.0179,3,V,12.0
V12,27.0,50.0,26.0,37.0,55.0,55,1464.0,square4,r,0.0681,3,V,12.0
V12,28.0,41.0,29.0,46.0,21.0,21,1485.0,square4,r,0.0872,3,V,12.0
V12,29.0,41.0,28.0,51.0,20.0,51,1536.0,square3,i,0.1343,2,V,12.0
V12,30.0,32.0,31.0,46.0,22.0,31,1567.0,square2,j,0.0195,1,V,12.0
V12,31.0,38.0,28.0,45.0,22.0,38,1605.0,square1,f,0.0421,0,V,12.0
V12,32.0,35.0,27.0,44.0,16.0,44,1649.0,square3,i,0.1695,2,V,12.0
V12,33.0,39.0,29.0,49.0,21.0,49,1698.0,square3,i,0.0214,2,V,12.0
V12,34.0,39.0,28.0,49.0,15.0,49,1747.0,square3,i,0.1177,2,V,12.0
V12,35.0,36.0,29.0,50.0,17.0,50,1797.0,square3,i,0.1025,2,V,12.0
V12,36.0,41.0,28.0,48.0,12.0,48,1845.0,square3,i,0.1023,2,V,12.0
V12,37.0,34.0,29.0,46.0,25.0,46,1891.0,square3,i,0.1102,2,V,12.0
V12,38.0,38.0,28.0,51.0,19.0,51,1942.0,square3,i,0.103,2,V,12.0
V12,39.0,39.0,31.0,45.0,13.0,45,1987.0,square3,i,0.1546,2,V,12.0
V12,40.0,35.0,28.0,46.0,26.0,46,2033.0,square3,i,0.0233,2,V,12.0
V12,41.0,38.0,27.0,46.0,20.0,46,2079.0,square3,i,0.1648,2,V,12.0
V12,42.0,40.0,26.0,50.0,23.0,50,2129.0,square3,i,0.1606,2,V,12.0
V12,43.0,33.0,30.0,45.0,18.0,45,2174.0,square3,i,0.0274,2,V,12.0
V12,44.0,39.0,31.0,46.0,22.0,46,2220.0,square3,i,0.1668,2,V,12.0
V12,45.0,32.0,26.0,42.0,20.0,42,2262.0,square3,i,0.108,2,V,12.0
V12,46.0,36.0,29.0,43.0,24.0,43,2305.0,square3,i,0.0572,2,V,12.0
V12,47.0,37.0,30.0,46.0,21.0,30,2335.0,square2,j,0.2545,1,V,12.0
V12,48.0,37.0,27.0,44.0,19.0,37,2372.0,square1,f,1.1855,0,V,12.0
V12,49.0,36.0,33.0,55.0,16.0,16,2388.0,square4,r,1.4138,3,V,12.0
V12,50.0,45.0,28.0,44.0,18.0,44,2432.0,square3,i,0.1605,2,V,12.0
V12,51.0,35.0,32.0,49.0,19.0,49,2481.0,square3,i,0.0952,2,V,12.0
V12,52.0,36.0,56.0,31.0,52.0,31,2512.0,square3,i,0.0022,2,V,12.0
V12,53.0,36.0,57.0,29.0,45.0,57,2569.0,square2,j,0.4347,1,V,12.0
V12,54.0,38.0,61.0,28.0,51.0,61,2630.0,square2,j,0.0189,1,V,12.0
V12,55.0,35.0,60.0,29.0,47.0,60,2690.0,square2,j,0.0351,1,V,12.0
V12,56.0,34.0,62.0,29.0,46.0,34,2724.0,square1,f,0.2445,0,V,12.0
V12,57.0,43.0,57.0,32.0,46.0,46,2770.0,square4,r,0.2185,3,V,12.0
V12,58.0,40.0,59.0,32.0,50.0,32,2802.0,square3,i,0.1424,2,V,12.0
V12,59.0,41.0,62.0,33.0,48.0,62,2864.0,square2,j,0.0108,1,V,12.0
V12,60.0,36.0,61.0,32.0,49.0,61,2925.0,square2,j,0.0115,1,V,12.0
V12,61.0,39.0,56.0,32.0,44.0,56,2981.0,square2,j,0.1057,1,V,12.0
V12,62.0,39.0,57.0,30.0,46.0,57,3038.0,square2,j,0.0855,1,V,12.0
V12,63.0,42.0,53.0,29.0,46.0,53,3091.0,square2,j,0.1035,1,V,12.0
V12,64.0,35.0,57.0,32.0,50.0,57,3148.0,square2,j,0.0024,1,V,12.0
V12,65.0,44.0,58.0,32.0,49.0,58,3206.0,square2,j,0.1598,1,V,12.0
V12,66.0,44.0,56.0,29.0,52.0,56,3262.0,square2,j,0.0025,1,V,12.0
V12,67.0,41.0,60.0,30.0,49.0,60,3322.0,square2,j,0.1543,1,V,12.0
V12,68.0,42.0,58.0,32.0,45.0,58,3380.0,square2,j,0.0024,1,V,12.0
V12,69.0,36.0,60.0,33.0,50.0,60,3440.0,square2,j,0.1976,1,V,12.0
V12,70.0,36.0,57.0,27.0,46.0,57,3497.0,square2,j,0.1022,1,V,12.0
V12,71.0,41.0,59.0,32.0,48.0,59,3556.0,square2,j,0.1074,1,V,12.0
V12,72.0,34.0,59.0,31.0,49.0,59,3615.0,square2,j,0.084,1,V,12.0
V12,73.0,71.0,53.0,65.0,49.0,53,3668.0,square2,j,0.3123,1,V,12.0
V12,74.0,69.0,49.0,63.0,45.0,49,3717.0,square2,j,0.0597,1,V,12.0
V12,75.0,72.0,51.0,56.0,46.0,51,3768.0,square2,j,0.0772,1,V,12.0
V12,76.0,72.0,48.0,58.0,43.0,72,3840.0,square1,f,0.0027,0,V,12.0
V12,77.0,74.0,57.0,59.0,44.0,74,3914.0,square1,f,0.0023,0,V,12.0
V12,78.0,69.0,55.0,63.0,50.0,69,3983.0,square1,f,0.0818,0,V,12.0
V12,79.0,73.0,53.0,58.0,43.0,73,4056.0,square1,f,0.1348,0,V,12.0
V12,80.0,71.0,47.0,65.0,40.0,71,4127.0,square1,f,0.1521,0,V,12.0
V12,81.0,66.0,49.0,57.0,40.0,66,4193.0,square1,f,0.1544,0,V,12.0
V12,82.0,71.0,53.0,57.0,48.0,71,4264.0,square1,f,0.0485,0,V,12.0
V12,83.0,70.0,50.0,56.0,49.0,70,4334.0,square1,f,0.0596,0,V,12.0
V12,84.0,69.0,45.0,64.0,43.0,69,4403.0,square1,f,0.1113,0,V,12.0
V12,85.0,64.0,48.0,54.0,42.0,64,4467.0,square1,f,0.1121,0,V,12.0
V12,86.0,71.0,49.0,63.0,44.0,71,4538.0,square1,f,0.0129,0,V,12.0
V12,87.0,72.0,52.0,55.0,42.0,42,4580.0,square4,r,0.1163,3,V,12.0
V12,88.0,64.0,48.0,59.0,44.0,59,4639.0,square3,i,0.4131,2,V,12.0
V12,89.0,69.0,48.0,62.0,45.0,48,4687.0,square2,j,0.1169,1,V,12.0
V12,90.0,68.0,56.0,60.0,42.0,68,4755.0,square1,f,0.0027,0,V,12.0
V12,91.0,69.0,52.0,62.0,45.0,69,4824.0,square1,f,0.117,0,V,12.0
V12,92.0,65.0,50.0,64.0,47.0,65,4889.0,square1,f,0.0826,0,V,12.0
V12,93.0,68.0,51.0,62.0,43.0,68,4957.0,square1,f,0.1631,0,V,12.0
V12,94.0,68.0,52.0,60.0,38.0,68,5025.0,square1,f,0.0399,0,V,12.0
V12,95.0,71.0,52.0,58.0,47.0,71,5096.0,square1,f,0.0339,0,V,12.0
V12,96.0,66.0,49.0,59.0,44.0,66,5162.0,square1,f,0.1757,0,V,12.0
V12,97.0,74.0,47.0,54.0,47.0,74,5236.0,square1,f,0.1695,0,V,12.0
V12,98.0,68.0,43.0,64.0,41.0,68,5304.0,square1,f,0.0933,0,V,12.0
V12,99.0,71.0,53.0,62.0,44.0,71,5375.0,square1,f,0.4452,0,V,12.0
