block,Trial,square1,square2,square3,square4,currPoints,totalPoints,square,choiceKey.keys,choiceKey.rt,armNum,blockType,blockNum
prac,0.0,100.0,0.0,0.0,0.0,99999,0.0,invalid,,,-1,p,0.0
prac,1.0,100.0,0.0,0.0,0.0,99999,0.0,invalid,,,-1,p,0.0
prac,2.0,100.0,0.0,0.0,0.0,0,0.0,square4,,,3,p,0.0
prac,3.0,100.0,0.0,0.0,0.0,0,0.0,square3,,,2,p,0.0
prac,4.0,100.0,0.0,0.0,0.0,100,100.0,square1,,,0,p,0.0
prac,5.0,100.0,0.0,0.0,0.0,0,100.0,square2,,,1,p,0.0
prac,6.0,100.0,0.0,0.0,0.0,100,200.0,square1,,,0,p,0.0
prac,7.0,100.0,0.0,0.0,0.0,100,300.0,square1,,,0,p,0.0
prac,8.0,100.0,0.0,0.0,0.0,100,400.0,square1,,,0,p,0.0
prac,9.0,100.0,0.0,0.0,0.0,99999,400.0,invalid,,,-1,p,0.0
S6,0.0,40.0,29.0,39.0,26.0,26,26.0,square4,f,0.9394,3,S,6.0
S6,1.0,34.0,40.0,31.0,25.0,25,51.0,square4,f,0.2508,3,S,6.0
S6,2.0,37.0,31.0,25.0,30.0,25,76.0,square3,j,0.3453,2,S,6.0
S6,3.0,39.0,37.0,30.0,27.0,39,115.0,square1,i,0.2498,0,S,6.0
S6,4.0,42.0,40.0,28.0,32.0,42,157.0,square1,i,0.2119,0,S,6.0
S6,5.0,35.0,35.0,39.0,29.0,35,192.0,square1,i,0.3655,0,S,6.0
S6,6.0,48.0,30.0,37.0,33.0,30,222.0,square2,r,0.4423,1,S,6.0
S6,7.0,47.0,34.0,31.0,29.0,29,251.0,square4,f,0.3271,3,S,6.0
S6,8.0,43.0,35.0,30.0,25.0,30,281.0,square3,j,0.1997,2,S,6.0
S6,9.0,36.0,38.0,35.0,35.0,36,317.0,square1,i,0.4362,0,S,6.0
S6,10.0,38.0,35.0,31.0,21.0,38,355.0,square1,i,0.2726,0,S,6.0
S6,11.0,30.0,36.0,31.0,20.0,30,385.0,square1,i,0.1417,0,S,6.0
S6,12.0,37.0,40.0,33.0,22.0,37,422.0,square1,i,0.2299,0,S,6.0
S6,13.0,32.0,41.0,35.0,29.0,32,454.0,square1,i,0.1102,0,S,6.0
S6,14.0,41.0,29.0,30.0,32.0,41,495.0,square1,i,0.1723,0,S,6.0
S6,15.0,43.0,37.0,31.0,27.0,43,538.0,square1,i,0.2267,0,S,6.0
S6,16.0,34.0,34.0,35.0,31.0,34,572.0,square1,i,0.3055,0,S,6.0
S6,17.0,47.0,40.0,29.0,28.0,28,600.0,square4,f,0.4908,3,S,6.0
S6,18.0,37.0,38.0,34.0,35.0,99999,600.0,invalid,,,-1,S,6.0
S6,19.0,36.0,39.0,31.0,26.0,39,639.0,square2,r,0.0915,1,S,6.0
S6,20.0,44.0,40.0,31.0,25.0,40,679.0,square2,r,0.2973,1,S,6.0
S6,21.0,39.0,41.0,35.0,24.0,41,720.0,square2,r,0.2248,1,S,6.0
S6,22.0,41.0,38.0,41.0,31.0,38,758.0,square2,r,0.2017,1,S,6.0
S6,23.0,37.0,31.0,30.0,32.0,37,795.0,square1,i,0.1512,0,S,6.0
S6,24.0,48.0,34.0,34.0,21.0,48,843.0,square1,i,0.2617,0,S,6.0
S6,25.0,42.0,45.0,26.0,29.0,26,869.0,square3,j,0.7453,2,S,6.0
S6,26.0,40.0,39.0,36.0,28.0,40,909.0,square1,i,0.1876,0,S,6.0
S6,27.0,42.0,33.0,29.0,29.0,42,951.0,square1,i,0.1948,0,S,6.0
S6,28.0,41.0,30.0,29.0,29.0,41,992.0,square1,i,0.1755,0,S,6.0
S6,29.0,42.0,40.0,32.0,27.0,42,1034.0,square1,i,0.624,0,S,6.0
S6,30.0,42.0,36.0,30.0,26.0,30,1064.0,square3,j,0.3403,2,S,6.0
S6,31.0,42.0,34.0,35.0,29.0,42,1106.0,square1,i,0.1159,0,S,6.0
S6,32.0,35.0,36.0,31.0,23.0,31,1137.0,square3,j,0.1271,2,S,6.0
S6,33.0,35.0,31.0,35.0,30.0,35,1172.0,square1,i,0.1167,0,S,6.0
S6,34.0,40.0,38.0,31.0,27.0,27,1199.0,square4,f,0.2239,3,S,6.0
S6,35.0,42.0,37.0,34.0,34.0,42,1241.0,square1,i,0.0788,0,S,6.0
S6,36.0,37.0,46.0,31.0,34.0,37,1278.0,square1,i,0.076,0,S,6.0
S6,37.0,38.0,40.0,30.0,26.0,38,1316.0,square1,i,0.0738,0,S,6.0
S6,38.0,36.0,34.0,31.0,33.0,36,1352.0,square1,i,0.088,0,S,6.0
S6,39.0,44.0,37.0,33.0,31.0,44,1396.0,square1,i,0.1089,0,S,6.0
S6,40.0,40.0,38.0,31.0,25.0,40,1436.0,square1,i,0.2179,0,S,6.0
S6,41.0,49.0,35.0,35.0,28.0,49,1485.0,square1,i,0.1997,0,S,6.0
S6,42.0,44.0,40.0,32.0,28.0,44,1529.0,square1,i,0.1223,0,S,6.0
S6,43.0,43.0,36.0,33.0,26.0,43,1572.0,square1,i,0.1534,0,S,6.0
S6,44.0,38.0,33.0,34.0,26.0,38,1610.0,square1,i,0.1876,0,S,6.0
S6,45.0,32.0,35.0,30.0,28.0,32,1642.0,square1,i,0.0802,0,S,6.0
S6,46.0,38.0,36.0,34.0,30.0,30,1672.0,square4,f,1.1106,3,S,6.0
S6,47.0,44.0,35.0,32.0,31.0,31,1703.0,square4,f,0.1999,3,S,6.0
S6,48.0,40.0,40.0,31.0,33.0,33,1736.0,square4,f,0.0663,3,S,6.0
S6,49.0,41.0,29.0,29.0,29.0,29,1765.0,square4,f,0.4209,3,S,6.0
S8,0.0,58.0,60.0,52.0,45.0,99999,0.0,invalid,,,-1,S,8.0
S8,1.0,55.0,57.0,56.0,52.0,57,57.0,square2,i,0.106,1,S,8.0
S8,2.0,54.0,58.0,58.0,49.0,58,115.0,square2,i,0.085,1,S,8.0
S8,3.0,55.0,62.0,52.0,53.0,53,168.0,square4,r,1.6974,3,S,8.0
S8,4.0,55.0,60.0,49.0,51.0,51,219.0,square4,r,0.5695,3,S,8.0
S8,5.0,48.0,63.0,61.0,49.0,49,268.0,square4,r,0.1149,3,S,8.0
S8,6.0,58.0,63.0,59.0,55.0,55,323.0,square4,r,0.0061,3,S,8.0
S8,7.0,56.0,53.0,49.0,51.0,49,372.0,square3,f,0.182,2,S,8.0
S8,8.0,61.0,63.0,66.0,49.0,66,438.0,square3,f,0.087,2,S,8.0
S8,9.0,60.0,59.0,53.0,47.0,53,491.0,square3,f,0.1338,2,S,8.0
S8,10.0,55.0,63.0,52.0,55.0,52,543.0,square3,f,0.1711,2,S,8.0
S8,11.0,62.0,60.0,54.0,50.0,54,597.0,square3,f,0.1087,2,S,8.0
S8,12.0,58.0,64.0,51.0,52.0,58,655.0,square1,j,0.9091,0,S,8.0
S8,13.0,62.0,59.0,53.0,53.0,62,717.0,square1,j,0.2697,0,S,8.0
S8,14.0,51.0,62.0,61.0,54.0,51,768.0,square1,j,0.0905,0,S,8.0
S8,15.0,56.0,68.0,56.0,50.0,56,824.0,square1,j,0.0725,0,S,8.0
S8,16.0,58.0,64.0,56.0,50.0,58,882.0,square1,j,0.1515,0,S,8.0
S8,17.0,64.0,63.0,60.0,42.0,64,946.0,square1,j,0.0153,0,S,8.0
S8,18.0,54.0,64.0,57.0,55.0,54,1000.0,square1,j,0.1269,0,S,8.0
S8,19.0,56.0,53.0,57.0,53.0,53,1053.0,square2,i,0.0392,1,S,8.0
S8,20.0,59.0,64.0,56.0,49.0,64,1117.0,square2,i,0.1452,1,S,8.0
S8,21.0,54.0,59.0,55.0,48.0,59,1176.0,square2,i,0.0011,1,S,8.0
S8,22.0,63.0,63.0,59.0,49.0,63,1239.0,square2,i,0.0307,1,S,8.0
S8,23.0,59.0,60.0,48.0,52.0,60,1299.0,square2,i,0.0178,1,S,8.0
S8,24.0,55.0,53.0,60.0,50.0,53,1352.0,square2,i,0.1513,1,S,8.0
S8,25.0,57.0,60.0,55.0,54.0,57,1409.0,square1,j,0.0313,0,S,8.0
S8,26.0,62.0,66.0,57.0,58.0,62,1471.0,square1,j,0.1156,0,S,8.0
S8,27.0,58.0,55.0,52.0,48.0,58,1529.0,square1,j,0.0942,0,S,8.0
S8,28.0,53.0,59.0,53.0,55.0,53,1582.0,square1,j,0.1784,0,S,8.0
S8,29.0,60.0,58.0,57.0,53.0,60,1642.0,square1,j,0.182,0,S,8.0
S8,30.0,57.0,67.0,52.0,56.0,57,1699.0,square1,j,0.068,0,S,8.0
S8,31.0,60.0,58.0,52.0,50.0,60,1759.0,square1,j,0.0542,0,S,8.0
S8,32.0,54.0,61.0,56.0,57.0,54,1813.0,square1,j,0.021,0,S,8.0
S8,33.0,66.0,64.0,63.0,52.0,66,1879.0,square1,j,0.042,0,S,8.0
S8,34.0,54.0,65.0,66.0,56.0,54,1933.0,square1,j,0.0608,0,S,8.0
S8,35.0,54.0,62.0,61.0,48.0,54,1987.0,square1,j,0.1027,0,S,8.0
S8,36.0,53.0,63.0,54.0,55.0,53,2040.0,square1,j,0.1776,0,S,8.0
S8,37.0,64.0,58.0,57.0,51.0,64,2104.0,square1,j,0.027,0,S,8.0
S8,38.0,68.0,65.0,59.0,57.0,68,2172.0,square1,j,0.0429,0,S,8.0
S8,39.0,64.0,65.0,51.0,55.0,64,2236.0,square1,j,0.1215,0,S,8.0
S8,40.0,63.0,61.0,57.0,47.0,63,2299.0,square1,j,0.1638,0,S,8.0
S8,41.0,65.0,58.0,55.0,49.0,65,2364.0,square1,j,0.1059,0,S,8.0
S8,42.0,52.0,60.0,51.0,56.0,52,2416.0,square1,j,0.0811,0,S,8.0
S8,43.0,63.0,57.0,48.0,50.0,63,2479.0,square1,j,0.0906,0,S,8.0
S8,44.0,59.0,63.0,53.0,53.0,59,2538.0,square1,j,0.1148,0,S,8.0
S8,45.0,62.0,62.0,60.0,53.0,62,2600.0,square1,j,0.0319,0,S,8.0
S8,46.0,56.0,62.0,57.0,60.0,56,2656.0,square1,j,0.0254,0,S,8.0
S8,47.0,60.0,63.0,58.0,56.0,60,2716.0,square1,j,0.0185,0,S,8.0
S8,48.0,59.0,63.0,49.0,53.0,59,2775.0,square1,j,0.024,0,S,8.0
S8,49.0,67.0,67.0,59.0,55.0,67,2842.0,square1,j,0.0133,0,S,8.0
S4,0.0,18.0,16.0,34.0,20.0,18,18.0,square1,i,1.9045,0,S,4.0
S4,1.0,33.0,26.0,26.0,23.0,33,51.0,square1,i,0.0131,0,S,4.0
S4,2.0,35.0,15.0,33.0,22.0,35,86.0,square1,i,0.042,0,S,4.0
S4,3.0,28.0,19.0,27.0,27.0,28,114.0,square1,i,0.1358,0,S,4.0
S4,4.0,27.0,16.0,25.0,28.0,25,139.0,square3,j,0.1886,2,S,4.0
S4,5.0,23.0,22.0,31.0,24.0,24,163.0,square4,f,1.0639,3,S,4.0
S4,6.0,25.0,20.0,34.0,23.0,20,183.0,square2,r,0.0002,1,S,4.0
S4,7.0,21.0,22.0,30.0,21.0,21,204.0,square1,i,1.1089,0,S,4.0
S4,8.0,33.0,24.0,33.0,17.0,33,237.0,square1,i,0.1638,0,S,4.0
S4,9.0,24.0,18.0,31.0,28.0,24,261.0,square1,i,0.0846,0,S,4.0
S4,10.0,31.0,26.0,35.0,20.0,31,292.0,square1,i,0.0603,0,S,4.0
S4,11.0,25.0,15.0,31.0,25.0,25,317.0,square1,i,0.0674,0,S,4.0
S4,12.0,24.0,16.0,29.0,22.0,29,346.0,square3,j,0.0547,2,S,4.0
S4,13.0,28.0,23.0,25.0,17.0,25,371.0,square3,j,0.0325,2,S,4.0
S4,14.0,22.0,23.0,21.0,23.0,21,392.0,square3,j,0.0084,2,S,4.0
S4,15.0,25.0,19.0,28.0,25.0,25,417.0,square1,i,0.0178,0,S,4.0
S4,16.0,26.0,17.0,30.0,21.0,26,443.0,square1,i,0.0084,0,S,4.0
S4,17.0,22.0,21.0,29.0,22.0,22,465.0,square1,i,0.0207,0,S,4.0
S4,18.0,28.0,22.0,32.0,22.0,28,493.0,square1,i,0.1416,0,S,4.0
S4,19.0,26.0,19.0,31.0,26.0,26,519.0,square1,i,0.1042,0,S,4.0
S4,20.0,28.0,18.0,28.0,25.0,28,547.0,square1,i,0.1089,0,S,4.0
S4,21.0,33.0,26.0,21.0,29.0,33,580.0,square1,i,0.0067,0,S,4.0
S4,22.0,31.0,19.0,29.0,20.0,31,611.0,square1,i,0.1027,0,S,4.0
S4,23.0,27.0,21.0,36.0,26.0,27,638.0,square1,i,0.0749,0,S,4.0
S4,24.0,28.0,15.0,32.0,21.0,28,666.0,square1,i,0.0724,0,S,4.0
S4,25.0,27.0,18.0,28.0,25.0,27,693.0,square1,i,0.0967,0,S,4.0
S4,26.0,26.0,20.0,27.0,14.0,26,719.0,square1,i,0.0725,0,S,4.0
S4,27.0,28.0,19.0,36.0,18.0,28,747.0,square1,i,0.1965,0,S,4.0
S4,28.0,28.0,19.0,28.0,23.0,28,775.0,square1,i,0.1512,0,S,4.0
S4,29.0,25.0,22.0,29.0,23.0,25,800.0,square1,i,0.024,0,S,4.0
S4,30.0,26.0,16.0,30.0,20.0,26,826.0,square1,i,0.0603,0,S,4.0
S4,31.0,23.0,25.0,26.0,30.0,23,849.0,square1,i,0.1095,0,S,4.0
S4,32.0,21.0,26.0,22.0,23.0,21,870.0,square1,i,0.1088,0,S,4.0
S4,33.0,25.0,22.0,24.0,17.0,25,895.0,square1,i,0.115,0,S,4.0
S4,34.0,30.0,22.0,33.0,24.0,30,925.0,square1,i,0.1755,0,S,4.0
S4,35.0,23.0,21.0,35.0,26.0,23,948.0,square1,i,0.0179,0,S,4.0
S4,36.0,19.0,21.0,33.0,24.0,19,967.0,square1,i,0.0004,0,S,4.0
S4,37.0,20.0,17.0,26.0,26.0,20,987.0,square1,i,0.1241,0,S,4.0
S4,38.0,28.0,20.0,28.0,26.0,28,1015.0,square1,i,0.11,0,S,4.0
S4,39.0,28.0,23.0,40.0,27.0,28,1043.0,square1,i,0.0968,0,S,4.0
S4,40.0,25.0,24.0,32.0,22.0,25,1068.0,square1,i,0.0634,0,S,4.0
S4,41.0,23.0,23.0,26.0,17.0,23,1091.0,square1,i,0.1179,0,S,4.0
S4,42.0,26.0,18.0,33.0,22.0,26,1117.0,square1,i,0.0845,0,S,4.0
S4,43.0,22.0,21.0,36.0,25.0,22,1139.0,square1,i,0.0303,0,S,4.0
S4,44.0,21.0,18.0,33.0,14.0,21,1160.0,square1,i,0.1331,0,S,4.0
S4,45.0,29.0,19.0,30.0,29.0,29,1189.0,square1,i,0.085,0,S,4.0
S4,46.0,21.0,16.0,22.0,23.0,21,1210.0,square1,i,0.0967,0,S,4.0
S4,47.0,22.0,18.0,28.0,22.0,22,1232.0,square1,i,0.0543,0,S,4.0
S4,48.0,33.0,21.0,32.0,26.0,33,1265.0,square1,i,0.0619,0,S,4.0
S4,49.0,23.0,17.0,20.0,21.0,23,1288.0,square1,i,0.1452,0,S,4.0
S9,0.0,36.0,36.0,32.0,32.0,36,36.0,square1,r,1.7627,0,S,9.0
S9,1.0,40.0,29.0,36.0,24.0,36,72.0,square3,i,0.7817,2,S,9.0
S9,2.0,31.0,43.0,22.0,29.0,22,94.0,square3,i,0.3377,2,S,9.0
S9,3.0,41.0,33.0,28.0,27.0,41,135.0,square1,r,0.0003,0,S,9.0
S9,4.0,34.0,29.0,32.0,31.0,34,169.0,square1,r,0.1791,0,S,9.0
S9,5.0,41.0,32.0,22.0,29.0,41,210.0,square1,r,0.0394,0,S,9.0
S9,6.0,44.0,30.0,21.0,28.0,30,240.0,square2,f,0.1293,1,S,9.0
S9,7.0,39.0,37.0,26.0,24.0,37,277.0,square2,f,0.0239,1,S,9.0
S9,8.0,41.0,33.0,23.0,20.0,33,310.0,square2,f,0.1049,1,S,9.0
S9,9.0,30.0,35.0,24.0,27.0,27,337.0,square4,j,0.618,3,S,9.0
S9,10.0,41.0,29.0,23.0,28.0,28,365.0,square4,j,0.0979,3,S,9.0
S9,11.0,37.0,38.0,22.0,33.0,37,402.0,square1,r,0.112,0,S,9.0
S9,12.0,35.0,31.0,27.0,32.0,35,437.0,square1,r,0.1393,0,S,9.0
S9,13.0,38.0,37.0,30.0,29.0,38,475.0,square1,r,0.1087,0,S,9.0
S9,14.0,36.0,38.0,30.0,37.0,36,511.0,square1,r,0.0368,0,S,9.0
S9,15.0,40.0,29.0,27.0,24.0,40,551.0,square1,r,1.0121,0,S,9.0
S9,16.0,33.0,37.0,29.0,28.0,33,584.0,square1,r,0.2615,0,S,9.0
S9,17.0,41.0,32.0,36.0,31.0,41,625.0,square1,r,0.0571,0,S,9.0
S9,18.0,39.0,26.0,16.0,35.0,39,664.0,square1,r,0.0916,0,S,9.0
S9,19.0,35.0,30.0,23.0,27.0,35,699.0,square1,r,0.0664,0,S,9.0
S9,20.0,39.0,34.0,23.0,29.0,39,738.0,square1,r,0.0534,0,S,9.0
S9,21.0,35.0,37.0,28.0,31.0,35,773.0,square1,r,0.0801,0,S,9.0
S9,22.0,37.0,30.0,23.0,38.0,37,810.0,square1,r,0.0603,0,S,9.0
S9,23.0,37.0,34.0,27.0,34.0,37,847.0,square1,r,0.0918,0,S,9.0
S9,24.0,31.0,34.0,26.0,27.0,31,878.0,square1,r,0.0122,0,S,9.0
S9,25.0,38.0,40.0,29.0,24.0,38,916.0,square1,r,0.1293,0,S,9.0
S9,26.0,43.0,31.0,21.0,24.0,43,959.0,square1,r,0.0371,0,S,9.0
S9,27.0,30.0,31.0,23.0,28.0,30,989.0,square1,r,0.0089,0,S,9.0
S9,28.0,44.0,32.0,31.0,32.0,44,1033.0,square1,r,0.1149,0,S,9.0
S9,29.0,36.0,38.0,22.0,22.0,36,1069.0,square1,r,0.0058,0,S,9.0
S9,30.0,41.0,30.0,26.0,29.0,41,1110.0,square1,r,0.1281,0,S,9.0
S9,31.0,39.0,37.0,30.0,32.0,39,1149.0,square1,r,0.044,0,S,9.0
S9,32.0,35.0,39.0,28.0,31.0,35,1184.0,square1,r,0.085,0,S,9.0
S9,33.0,37.0,39.0,29.0,32.0,37,1221.0,square1,r,0.321,0,S,9.0
S9,34.0,46.0,33.0,21.0,25.0,46,1267.0,square1,r,0.018,0,S,9.0
S9,35.0,38.0,33.0,28.0,28.0,38,1305.0,square1,r,0.0546,0,S,9.0
S9,36.0,40.0,37.0,21.0,32.0,40,1345.0,square1,r,0.0485,0,S,9.0
S9,37.0,38.0,43.0,23.0,37.0,38,1383.0,square1,r,0.0021,0,S,9.0
S9,38.0,36.0,31.0,29.0,29.0,36,1419.0,square1,r,0.0363,0,S,9.0
S9,39.0,41.0,29.0,26.0,28.0,41,1460.0,square1,r,0.1341,0,S,9.0
S9,40.0,32.0,36.0,26.0,28.0,32,1492.0,square1,r,0.0198,0,S,9.0
S9,41.0,40.0,37.0,35.0,28.0,40,1532.0,square1,r,0.0198,0,S,9.0
S9,42.0,43.0,32.0,26.0,37.0,43,1575.0,square1,r,0.0878,0,S,9.0
S9,43.0,40.0,31.0,23.0,31.0,40,1615.0,square1,r,0.03,0,S,9.0
S9,44.0,42.0,38.0,24.0,40.0,42,1657.0,square1,r,0.1512,0,S,9.0
S9,45.0,36.0,35.0,30.0,33.0,36,1693.0,square1,r,0.0002,0,S,9.0
S9,46.0,38.0,30.0,33.0,26.0,38,1731.0,square1,r,0.1213,0,S,9.0
S9,47.0,39.0,37.0,25.0,26.0,39,1770.0,square1,r,0.1047,0,S,9.0
S9,48.0,36.0,35.0,26.0,27.0,36,1806.0,square1,r,0.0578,0,S,9.0
S9,49.0,40.0,32.0,24.0,28.0,40,1846.0,square1,r,0.2053,0,S,9.0
S5,0.0,90.0,70.0,79.0,84.0,84,84.0,square4,i,0.5209,3,S,5.0
S5,1.0,92.0,77.0,83.0,81.0,81,165.0,square4,i,0.0002,3,S,5.0
S5,2.0,83.0,72.0,81.0,76.0,76,241.0,square4,i,0.121,3,S,5.0
S5,3.0,87.0,72.0,79.0,81.0,81,322.0,square4,i,0.1756,3,S,5.0
S5,4.0,86.0,81.0,78.0,72.0,81,403.0,square2,r,0.1182,1,S,5.0
S5,5.0,89.0,70.0,79.0,83.0,70,473.0,square2,r,0.0058,1,S,5.0
S5,6.0,86.0,69.0,81.0,81.0,69,542.0,square2,r,0.0118,1,S,5.0
S5,7.0,82.0,72.0,86.0,80.0,86,628.0,square3,f,0.1937,2,S,5.0
S5,8.0,84.0,67.0,80.0,77.0,80,708.0,square3,f,0.1573,2,S,5.0
S5,9.0,92.0,80.0,86.0,84.0,86,794.0,square3,f,0.16,2,S,5.0
S5,10.0,82.0,71.0,80.0,80.0,80,874.0,square3,f,0.0543,2,S,5.0
S5,11.0,80.0,75.0,79.0,75.0,80,954.0,square1,j,0.2244,0,S,5.0
S5,12.0,84.0,75.0,80.0,82.0,84,1038.0,square1,j,0.1405,0,S,5.0
S5,13.0,85.0,74.0,74.0,81.0,85,1123.0,square1,j,0.0365,0,S,5.0
S5,14.0,81.0,79.0,85.0,81.0,81,1204.0,square1,j,0.038,0,S,5.0
S5,15.0,81.0,75.0,76.0,77.0,76,1280.0,square3,f,0.0834,2,S,5.0
S5,16.0,86.0,74.0,78.0,74.0,78,1358.0,square3,f,0.0849,2,S,5.0
S5,17.0,81.0,77.0,81.0,77.0,81,1439.0,square3,f,0.1088,2,S,5.0
S5,18.0,87.0,70.0,84.0,82.0,84,1523.0,square3,f,0.1634,2,S,5.0
S5,19.0,84.0,76.0,83.0,76.0,83,1606.0,square3,f,0.0238,2,S,5.0
S5,20.0,79.0,78.0,82.0,76.0,82,1688.0,square3,f,0.1214,2,S,5.0
S5,21.0,86.0,68.0,80.0,72.0,80,1768.0,square3,f,0.0614,2,S,5.0
S5,22.0,93.0,80.0,85.0,84.0,85,1853.0,square3,f,0.0389,2,S,5.0
S5,23.0,87.0,73.0,76.0,70.0,76,1929.0,square3,f,0.0662,2,S,5.0
S5,24.0,85.0,69.0,81.0,78.0,81,2010.0,square3,f,0.0247,2,S,5.0
S5,25.0,89.0,77.0,77.0,76.0,77,2087.0,square3,f,0.0422,2,S,5.0
S5,26.0,84.0,71.0,81.0,75.0,75,2162.0,square4,i,0.0392,3,S,5.0
S5,27.0,84.0,75.0,82.0,71.0,71,2233.0,square4,i,0.0198,3,S,5.0
S5,28.0,83.0,72.0,82.0,78.0,78,2311.0,square4,i,0.0002,3,S,5.0
S5,29.0,91.0,67.0,79.0,74.0,74,2385.0,square4,i,0.0483,3,S,5.0
S5,30.0,82.0,69.0,81.0,77.0,81,2466.0,square3,f,0.0481,2,S,5.0
S5,31.0,82.0,72.0,80.0,78.0,80,2546.0,square3,f,0.0273,2,S,5.0
S5,32.0,83.0,73.0,91.0,80.0,91,2637.0,square3,f,0.024,2,S,5.0
S5,33.0,83.0,68.0,85.0,78.0,85,2722.0,square3,f,0.1694,2,S,5.0
S5,34.0,89.0,79.0,83.0,77.0,83,2805.0,square3,f,0.0125,2,S,5.0
S5,35.0,88.0,72.0,79.0,80.0,79,2884.0,square3,f,0.0786,2,S,5.0
S5,36.0,90.0,74.0,84.0,76.0,84,2968.0,square3,f,0.1572,2,S,5.0
S5,37.0,85.0,75.0,80.0,82.0,80,3048.0,square3,f,0.0301,2,S,5.0
S5,38.0,78.0,74.0,85.0,79.0,85,3133.0,square3,f,0.1244,2,S,5.0
S5,39.0,87.0,73.0,87.0,85.0,87,3220.0,square3,f,0.0002,2,S,5.0
S5,40.0,83.0,67.0,81.0,80.0,81,3301.0,square3,f,0.1045,2,S,5.0
S5,41.0,82.0,69.0,88.0,80.0,88,3389.0,square3,f,0.0255,2,S,5.0
S5,42.0,85.0,78.0,91.0,80.0,91,3480.0,square3,f,0.0547,2,S,5.0
S5,43.0,89.0,74.0,78.0,74.0,78,3558.0,square3,f,0.091,2,S,5.0
S5,44.0,90.0,74.0,77.0,85.0,77,3635.0,square3,f,0.0726,2,S,5.0
S5,45.0,89.0,68.0,81.0,78.0,81,3716.0,square3,f,0.0608,2,S,5.0
S5,46.0,86.0,70.0,86.0,68.0,70,3786.0,square2,r,0.2073,1,S,5.0
S5,47.0,90.0,77.0,85.0,84.0,85,3871.0,square3,f,0.0635,2,S,5.0
S5,48.0,76.0,66.0,82.0,79.0,82,3953.0,square3,f,0.0181,2,S,5.0
S5,49.0,84.0,73.0,82.0,75.0,82,4035.0,square3,f,0.1395,2,S,5.0
S11,0.0,49.0,53.0,49.0,45.0,49,49.0,square3,j,1.3663,2,S,11.0
S11,1.0,54.0,56.0,42.0,50.0,56,105.0,square2,i,0.0002,1,S,11.0
S11,2.0,39.0,51.0,39.0,43.0,51,156.0,square2,i,0.1627,1,S,11.0
S11,3.0,53.0,50.0,38.0,43.0,53,209.0,square1,r,0.2423,0,S,11.0
S11,4.0,47.0,54.0,39.0,48.0,47,256.0,square1,r,0.0789,0,S,11.0
S11,5.0,47.0,52.0,40.0,46.0,46,302.0,square4,f,0.0542,3,S,11.0
S11,6.0,47.0,46.0,44.0,54.0,46,348.0,square2,i,0.1394,1,S,11.0
S11,7.0,48.0,51.0,35.0,51.0,51,399.0,square2,i,0.0988,1,S,11.0
S11,8.0,52.0,49.0,36.0,43.0,49,448.0,square2,i,0.0121,1,S,11.0
S11,9.0,47.0,53.0,41.0,55.0,53,501.0,square2,i,0.0786,1,S,11.0
S11,10.0,44.0,48.0,41.0,43.0,48,549.0,square2,i,0.0982,1,S,11.0
S11,11.0,41.0,54.0,38.0,43.0,54,603.0,square2,i,0.0799,1,S,11.0
S11,12.0,45.0,54.0,44.0,45.0,54,657.0,square2,i,0.1456,1,S,11.0
S11,13.0,54.0,52.0,44.0,50.0,52,709.0,square2,i,0.1395,1,S,11.0
S11,14.0,57.0,58.0,36.0,45.0,58,767.0,square2,i,0.1395,1,S,11.0
S11,15.0,48.0,54.0,43.0,49.0,54,821.0,square2,i,0.0061,1,S,11.0
S11,16.0,58.0,47.0,42.0,46.0,47,868.0,square2,i,0.0243,1,S,11.0
S11,17.0,41.0,61.0,42.0,53.0,61,929.0,square2,i,0.0365,1,S,11.0
S11,18.0,51.0,58.0,33.0,39.0,58,987.0,square2,i,0.0785,1,S,11.0
S11,19.0,48.0,49.0,37.0,42.0,49,1036.0,square2,i,0.0303,1,S,11.0
S11,20.0,52.0,52.0,45.0,46.0,52,1088.0,square2,i,0.0364,1,S,11.0
S11,21.0,47.0,53.0,44.0,51.0,53,1141.0,square2,i,0.0728,1,S,11.0
S11,22.0,49.0,54.0,37.0,41.0,54,1195.0,square2,i,0.1396,1,S,11.0
S11,23.0,52.0,54.0,41.0,45.0,54,1249.0,square2,i,0.1274,1,S,11.0
S11,24.0,42.0,56.0,41.0,45.0,56,1305.0,square2,i,0.2183,1,S,11.0
S11,25.0,52.0,56.0,42.0,44.0,56,1361.0,square2,i,0.0849,1,S,11.0
S11,26.0,43.0,56.0,41.0,45.0,56,1417.0,square2,i,0.0182,1,S,11.0
S11,27.0,48.0,50.0,40.0,43.0,50,1467.0,square2,i,0.0303,1,S,11.0
S11,28.0,46.0,49.0,38.0,48.0,49,1516.0,square2,i,0.0668,1,S,11.0
S11,29.0,46.0,55.0,40.0,42.0,55,1571.0,square2,i,0.0002,1,S,11.0
S11,30.0,46.0,56.0,43.0,37.0,56,1627.0,square2,i,0.1152,1,S,11.0
S11,31.0,42.0,49.0,44.0,42.0,49,1676.0,square2,i,0.9032,1,S,11.0
S11,32.0,51.0,52.0,36.0,40.0,52,1728.0,square2,i,0.1334,1,S,11.0
S11,33.0,44.0,53.0,39.0,43.0,53,1781.0,square2,i,0.1213,1,S,11.0
S11,34.0,52.0,52.0,43.0,49.0,52,1833.0,square2,i,0.0364,1,S,11.0
S11,35.0,53.0,51.0,38.0,45.0,51,1884.0,square2,i,0.0665,1,S,11.0
S11,36.0,50.0,44.0,42.0,48.0,44,1928.0,square2,i,0.097,1,S,11.0
S11,37.0,49.0,51.0,40.0,48.0,51,1979.0,square2,i,0.0849,1,S,11.0
S11,38.0,47.0,47.0,39.0,38.0,47,2026.0,square2,i,0.0486,1,S,11.0
S11,39.0,51.0,55.0,40.0,42.0,55,2081.0,square2,i,0.1214,1,S,11.0
S11,40.0,50.0,52.0,41.0,44.0,52,2133.0,square2,i,0.1818,1,S,11.0
S11,41.0,47.0,50.0,46.0,50.0,50,2183.0,square2,i,0.0787,1,S,11.0
S11,42.0,52.0,48.0,41.0,47.0,48,2231.0,square2,i,0.3009,1,S,11.0
S11,43.0,50.0,56.0,34.0,42.0,56,2287.0,square2,i,0.0304,1,S,11.0
S11,44.0,42.0,48.0,37.0,49.0,48,2335.0,square2,i,0.0606,1,S,11.0
S11,45.0,47.0,47.0,41.0,40.0,47,2382.0,square2,i,0.17,1,S,11.0
S11,46.0,50.0,56.0,40.0,44.0,56,2438.0,square2,i,0.0785,1,S,11.0
S11,47.0,46.0,48.0,38.0,47.0,48,2486.0,square2,i,0.3941,1,S,11.0
S11,48.0,45.0,54.0,44.0,41.0,99999,2486.0,invalid,,,-1,S,11.0
S11,49.0,44.0,53.0,41.0,41.0,53,2539.0,square2,i,0.3821,1,S,11.0
V9,0.0,20.0,29.0,37.0,45.0,99999,0.0,invalid,,,-1,V,9.0
V9,1.0,21.0,32.0,39.0,45.0,45,45.0,square4,i,0.1176,3,V,9.0
V9,2.0,16.0,27.0,41.0,48.0,99999,45.0,invalid,,,-1,V,9.0
V9,3.0,20.0,30.0,42.0,50.0,20,65.0,square1,j,0.0184,0,V,9.0
V9,4.0,22.0,34.0,37.0,47.0,22,87.0,square1,j,0.0003,0,V,9.0
V9,5.0,17.0,32.0,38.0,49.0,49,136.0,square4,i,0.2305,3,V,9.0
V9,6.0,17.0,25.0,39.0,47.0,47,183.0,square4,i,0.1516,3,V,9.0
V9,7.0,22.0,28.0,33.0,48.0,48,231.0,square4,i,0.0303,3,V,9.0
V9,8.0,20.0,24.0,34.0,41.0,41,272.0,square4,i,0.013,3,V,9.0
V9,9.0,20.0,33.0,30.0,51.0,51,323.0,square4,i,0.0122,3,V,9.0
V9,10.0,21.0,35.0,38.0,50.0,50,373.0,square4,i,0.0002,3,V,9.0
V9,11.0,19.0,29.0,44.0,45.0,45,418.0,square4,i,0.0245,3,V,9.0
V9,12.0,27.0,24.0,38.0,54.0,54,472.0,square4,i,0.0304,3,V,9.0
V9,13.0,15.0,26.0,37.0,50.0,50,522.0,square4,i,0.1092,3,V,9.0
V9,14.0,24.0,26.0,39.0,42.0,42,564.0,square4,i,0.1639,3,V,9.0
V9,15.0,26.0,27.0,43.0,49.0,49,613.0,square4,i,0.0241,3,V,9.0
V9,16.0,19.0,30.0,42.0,49.0,49,662.0,square4,i,0.1525,3,V,9.0
V9,17.0,21.0,30.0,34.0,49.0,49,711.0,square4,i,0.1574,3,V,9.0
V9,18.0,25.0,33.0,41.0,51.0,51,762.0,square4,i,0.1517,3,V,9.0
V9,19.0,17.0,31.0,41.0,45.0,45,807.0,square4,i,0.097,3,V,9.0
V9,20.0,19.0,31.0,34.0,49.0,49,856.0,square4,i,0.0119,3,V,9.0
V9,21.0,23.0,29.0,37.0,48.0,48,904.0,square4,i,0.0909,3,V,9.0
V9,22.0,15.0,32.0,36.0,48.0,48,952.0,square4,i,0.1455,3,V,9.0
V9,23.0,25.0,33.0,39.0,47.0,47,999.0,square4,i,0.1335,3,V,9.0
V9,24.0,21.0,30.0,38.0,52.0,52,1051.0,square4,i,0.0143,3,V,9.0
V9,25.0,25.0,29.0,42.0,48.0,48,1099.0,square4,i,0.0184,3,V,9.0
V9,26.0,22.0,29.0,39.0,47.0,47,1146.0,square4,i,0.0365,3,V,9.0
V9,27.0,17.0,31.0,45.0,41.0,41,1187.0,square4,i,0.0681,3,V,9.0
V9,28.0,29.0,28.0,43.0,43.0,43,1230.0,square4,i,0.1579,3,V,9.0
V9,29.0,20.0,31.0,43.0,49.0,49,1279.0,square4,i,0.0002,3,V,9.0
V9,30.0,23.0,33.0,39.0,48.0,48,1327.0,square4,i,0.1273,3,V,9.0
V9,31.0,20.0,27.0,38.0,53.0,53,1380.0,square4,i,0.0003,3,V,9.0
V9,32.0,23.0,29.0,37.0,49.0,49,1429.0,square4,i,0.0365,3,V,9.0
V9,33.0,24.0,33.0,37.0,49.0,49,1478.0,square4,i,0.1092,3,V,9.0
V9,34.0,43.0,58.0,48.0,30.0,30,1508.0,square4,i,0.0789,3,V,9.0
V9,35.0,48.0,59.0,45.0,34.0,34,1542.0,square4,i,0.1456,3,V,9.0
V9,36.0,39.0,56.0,54.0,32.0,32,1574.0,square4,i,0.1092,3,V,9.0
V9,37.0,40.0,57.0,50.0,35.0,35,1609.0,square4,i,0.0913,3,V,9.0
V9,38.0,49.0,62.0,51.0,33.0,33,1642.0,square4,i,0.085,3,V,9.0
V9,39.0,45.0,61.0,48.0,34.0,34,1676.0,square4,i,0.0002,3,V,9.0
V9,40.0,40.0,65.0,51.0,29.0,29,1705.0,square4,i,0.0425,3,V,9.0
V9,41.0,44.0,57.0,50.0,38.0,38,1743.0,square4,i,0.0607,3,V,9.0
V9,42.0,40.0,57.0,49.0,33.0,33,1776.0,square4,i,0.0546,3,V,9.0
V9,43.0,42.0,64.0,54.0,35.0,35,1811.0,square4,i,0.0061,3,V,9.0
V9,44.0,44.0,55.0,49.0,39.0,39,1850.0,square4,i,0.0122,3,V,9.0
V9,45.0,37.0,66.0,51.0,35.0,35,1885.0,square4,i,0.0425,3,V,9.0
V9,46.0,40.0,59.0,51.0,32.0,32,1917.0,square4,i,0.0548,3,V,9.0
V9,47.0,38.0,62.0,57.0,31.0,31,1948.0,square4,i,0.0181,3,V,9.0
V9,48.0,43.0,61.0,54.0,34.0,34,1982.0,square4,i,0.0323,3,V,9.0
V9,49.0,43.0,61.0,49.0,40.0,40,2022.0,square4,i,0.0725,3,V,9.0
V9,50.0,37.0,58.0,51.0,32.0,32,2054.0,square4,i,0.097,3,V,9.0
V9,51.0,44.0,63.0,48.0,39.0,39,2093.0,square4,i,0.0183,3,V,9.0
V9,52.0,35.0,65.0,48.0,30.0,30,2123.0,square4,i,0.0183,3,V,9.0
V9,53.0,43.0,59.0,48.0,39.0,39,2162.0,square4,i,0.1334,3,V,9.0
V9,54.0,43.0,59.0,52.0,30.0,30,2192.0,square4,i,0.4486,3,V,9.0
V9,55.0,41.0,58.0,51.0,34.0,34,2226.0,square4,i,0.4668,3,V,9.0
V9,56.0,44.0,63.0,50.0,33.0,33,2259.0,square4,i,0.1395,3,V,9.0
V9,57.0,42.0,60.0,49.0,32.0,32,2291.0,square4,i,0.0332,3,V,9.0
V9,58.0,44.0,62.0,57.0,30.0,30,2321.0,square4,i,0.0789,3,V,9.0
V9,59.0,45.0,61.0,45.0,31.0,31,2352.0,square4,i,0.1211,3,V,9.0
V9,60.0,43.0,63.0,53.0,33.0,33,2385.0,square4,i,0.0203,3,V,9.0
V9,61.0,39.0,56.0,55.0,31.0,31,2416.0,square4,i,0.1638,3,V,9.0
V9,62.0,39.0,61.0,50.0,34.0,34,2450.0,square4,i,0.0807,3,V,9.0
V9,63.0,44.0,57.0,48.0,36.0,57,2507.0,square2,r,0.0243,1,V,9.0
V9,64.0,40.0,60.0,58.0,35.0,60,2567.0,square2,r,0.0547,1,V,9.0
V9,65.0,42.0,60.0,54.0,38.0,60,2627.0,square2,r,0.0002,1,V,9.0
V9,66.0,41.0,60.0,54.0,37.0,60,2687.0,square2,r,0.1092,1,V,9.0
V9,67.0,43.0,61.0,54.0,40.0,61,2748.0,square2,r,0.1336,1,V,9.0
V9,68.0,45.0,40.0,26.0,18.0,40,2788.0,square2,r,0.0192,1,V,9.0
V9,69.0,50.0,41.0,29.0,20.0,41,2829.0,square2,r,0.0137,1,V,9.0
V9,70.0,43.0,36.0,27.0,15.0,36,2865.0,square2,r,0.0183,1,V,9.0
V9,71.0,44.0,40.0,28.0,18.0,44,2909.0,square1,j,0.7598,0,V,9.0
V9,72.0,42.0,38.0,27.0,18.0,42,2951.0,square1,j,0.1334,0,V,9.0
V9,73.0,46.0,33.0,25.0,19.0,19,2970.0,square4,i,0.3891,3,V,9.0
V9,74.0,47.0,40.0,28.0,20.0,47,3017.0,square1,j,0.0364,0,V,9.0
V9,75.0,39.0,39.0,27.0,25.0,27,3044.0,square3,f,0.5518,2,V,9.0
V9,76.0,50.0,31.0,29.0,23.0,50,3094.0,square1,j,0.1214,0,V,9.0
V9,77.0,44.0,37.0,28.0,13.0,44,3138.0,square1,j,0.1577,0,V,9.0
V9,78.0,43.0,36.0,23.0,17.0,43,3181.0,square1,j,0.1651,0,V,9.0
V9,79.0,42.0,36.0,28.0,24.0,42,3223.0,square1,j,0.1574,0,V,9.0
V9,80.0,47.0,35.0,30.0,14.0,47,3270.0,square1,j,0.1153,0,V,9.0
V9,81.0,46.0,33.0,29.0,18.0,46,3316.0,square1,j,0.0665,0,V,9.0
V9,82.0,46.0,35.0,28.0,18.0,46,3362.0,square1,j,0.0122,0,V,9.0
V9,83.0,47.0,41.0,32.0,15.0,47,3409.0,square1,j,0.0486,0,V,9.0
V9,84.0,45.0,38.0,31.0,18.0,45,3454.0,square1,j,0.1585,0,V,9.0
V9,85.0,42.0,35.0,30.0,21.0,42,3496.0,square1,j,0.1455,0,V,9.0
V9,86.0,49.0,39.0,23.0,18.0,49,3545.0,square1,j,0.0634,0,V,9.0
V9,87.0,49.0,39.0,27.0,16.0,49,3594.0,square1,j,0.0728,0,V,9.0
V9,88.0,45.0,38.0,25.0,14.0,45,3639.0,square1,j,0.2304,0,V,9.0
V9,89.0,45.0,32.0,28.0,19.0,45,3684.0,square1,j,0.1335,0,V,9.0
V9,90.0,44.0,35.0,29.0,20.0,44,3728.0,square1,j,0.1092,0,V,9.0
V9,91.0,42.0,38.0,32.0,16.0,42,3770.0,square1,j,0.0607,0,V,9.0
V9,92.0,45.0,36.0,23.0,20.0,45,3815.0,square1,j,0.0849,0,V,9.0
V9,93.0,45.0,35.0,26.0,18.0,45,3860.0,square1,j,0.0545,0,V,9.0
V9,94.0,44.0,37.0,27.0,13.0,44,3904.0,square1,j,0.2147,0,V,9.0
V9,95.0,46.0,36.0,25.0,20.0,46,3950.0,square1,j,0.0971,0,V,9.0
V9,96.0,43.0,39.0,27.0,16.0,43,3993.0,square1,j,0.0628,0,V,9.0
V9,97.0,48.0,39.0,30.0,16.0,48,4041.0,square1,j,0.1038,0,V,9.0
V9,98.0,49.0,40.0,26.0,20.0,49,4090.0,square1,j,0.1698,0,V,9.0
V9,99.0,49.0,41.0,27.0,18.0,49,4139.0,square1,j,0.0207,0,V,9.0
V10,0.0,28.0,21.0,37.0,46.0,99999,0.0,invalid,,,-1,V,10.0
V10,1.0,26.0,19.0,41.0,49.0,41,41.0,square3,r,1.855,2,V,10.0
V10,2.0,29.0,20.0,43.0,48.0,43,84.0,square3,r,0.1394,2,V,10.0
V10,3.0,27.0,27.0,37.0,44.0,37,121.0,square3,r,0.0011,2,V,10.0
V10,4.0,28.0,16.0,36.0,47.0,36,157.0,square3,r,0.0305,2,V,10.0
V10,5.0,33.0,25.0,42.0,54.0,42,199.0,square3,r,0.1028,2,V,10.0
V10,6.0,28.0,19.0,35.0,45.0,35,234.0,square3,r,0.1336,2,V,10.0
V10,7.0,30.0,24.0,35.0,49.0,49,283.0,square4,f,0.079,3,V,10.0
V10,8.0,37.0,29.0,41.0,47.0,47,330.0,square4,f,0.4789,3,V,10.0
V10,9.0,28.0,21.0,41.0,48.0,48,378.0,square4,f,0.1697,3,V,10.0
V10,10.0,27.0,22.0,39.0,42.0,42,420.0,square4,f,0.1699,3,V,10.0
V10,11.0,32.0,16.0,41.0,48.0,48,468.0,square4,f,0.1668,3,V,10.0
V10,12.0,34.0,15.0,33.0,49.0,49,517.0,square4,f,0.109,3,V,10.0
V10,13.0,36.0,19.0,41.0,45.0,45,562.0,square4,f,0.0667,3,V,10.0
V10,14.0,28.0,23.0,35.0,53.0,53,615.0,square4,f,0.0971,3,V,10.0
V10,15.0,26.0,28.0,40.0,50.0,50,665.0,square4,f,0.0605,3,V,10.0
V10,16.0,30.0,25.0,42.0,47.0,47,712.0,square4,f,0.0425,3,V,10.0
V10,17.0,31.0,19.0,38.0,50.0,50,762.0,square4,f,0.1697,3,V,10.0
V10,18.0,34.0,21.0,35.0,48.0,48,810.0,square4,f,0.1153,3,V,10.0
V10,19.0,31.0,24.0,39.0,46.0,99999,810.0,invalid,,,-1,V,10.0
V10,20.0,28.0,22.0,42.0,47.0,47,857.0,square4,f,0.4002,3,V,10.0
V10,21.0,24.0,20.0,41.0,47.0,47,904.0,square4,f,0.1162,3,V,10.0
V10,22.0,32.0,22.0,34.0,44.0,44,948.0,square4,f,0.1035,3,V,10.0
V10,23.0,29.0,23.0,37.0,47.0,47,995.0,square4,f,0.0364,3,V,10.0
V10,24.0,25.0,25.0,38.0,46.0,46,1041.0,square4,f,0.1393,3,V,10.0
V10,25.0,30.0,24.0,41.0,45.0,45,1086.0,square4,f,0.091,3,V,10.0
V10,26.0,32.0,17.0,38.0,49.0,49,1135.0,square4,f,0.0497,3,V,10.0
V10,27.0,34.0,21.0,38.0,47.0,47,1182.0,square4,f,0.4002,3,V,10.0
V10,28.0,29.0,21.0,37.0,45.0,45,1227.0,square4,f,0.7639,3,V,10.0
V10,29.0,30.0,20.0,31.0,47.0,47,1274.0,square4,f,0.1335,3,V,10.0
V10,30.0,28.0,21.0,35.0,44.0,44,1318.0,square4,f,0.0373,3,V,10.0
V10,31.0,36.0,25.0,14.0,8.0,8,1326.0,square4,f,0.3221,3,V,10.0
V10,32.0,38.0,27.0,19.0,11.0,11,1337.0,square4,f,0.3578,3,V,10.0
V10,33.0,39.0,21.0,20.0,13.0,99999,1337.0,invalid,,,-1,V,10.0
V10,34.0,34.0,24.0,20.0,10.0,10,1347.0,square4,f,0.6695,3,V,10.0
V10,35.0,44.0,29.0,17.0,11.0,44,1391.0,square1,i,0.1645,0,V,10.0
V10,36.0,33.0,30.0,17.0,9.0,33,1424.0,square1,i,0.7112,0,V,10.0
V10,37.0,31.0,27.0,12.0,6.0,6,1430.0,square4,f,0.0974,3,V,10.0
V10,38.0,34.0,29.0,15.0,10.0,10,1440.0,square4,f,0.0122,3,V,10.0
V10,39.0,35.0,21.0,19.0,5.0,19,1459.0,square3,r,0.5153,2,V,10.0
V10,40.0,32.0,26.0,18.0,6.0,99999,1459.0,invalid,,,-1,V,10.0
V10,41.0,34.0,32.0,13.0,9.0,99999,1459.0,invalid,,,-1,V,10.0
V10,42.0,35.0,30.0,16.0,8.0,8,1467.0,square4,f,1.8463,3,V,10.0
V10,43.0,38.0,32.0,16.0,8.0,38,1505.0,square1,i,1.1274,0,V,10.0
V10,44.0,34.0,20.0,18.0,3.0,99999,1505.0,invalid,,,-1,V,10.0
V10,45.0,38.0,22.0,23.0,9.0,99999,1505.0,invalid,,,-1,V,10.0
V10,46.0,36.0,28.0,16.0,10.0,16,1521.0,square3,r,1.1581,2,V,10.0
V10,47.0,36.0,27.0,13.0,8.0,13,1534.0,square3,r,0.5336,2,V,10.0
V10,48.0,35.0,27.0,14.0,12.0,14,1548.0,square3,r,0.1092,2,V,10.0
V10,49.0,33.0,28.0,16.0,10.0,33,1581.0,square1,i,1.2792,0,V,10.0
V10,50.0,31.0,29.0,19.0,8.0,31,1612.0,square1,i,0.0003,0,V,10.0
V10,51.0,32.0,21.0,20.0,12.0,32,1644.0,square1,i,0.0685,0,V,10.0
V10,52.0,29.0,25.0,21.0,10.0,25,1669.0,square2,j,0.0727,1,V,10.0
V10,53.0,39.0,29.0,23.0,2.0,2,1671.0,square4,f,0.2737,3,V,10.0
V10,54.0,33.0,28.0,19.0,7.0,99999,1671.0,invalid,,,-1,V,10.0
V10,55.0,34.0,24.0,15.0,8.0,99999,1671.0,invalid,,,-1,V,10.0
V10,56.0,35.0,20.0,21.0,9.0,9,1680.0,square4,f,0.5941,3,V,10.0
V10,57.0,33.0,27.0,19.0,7.0,99999,1680.0,invalid,,,-1,V,10.0
V10,58.0,38.0,24.0,16.0,7.0,24,1704.0,square2,j,1.0205,1,V,10.0
V10,59.0,34.0,29.0,15.0,5.0,99999,1704.0,invalid,,,-1,V,10.0
V10,60.0,34.0,22.0,19.0,9.0,34,1738.0,square1,i,1.395,0,V,10.0
V10,61.0,39.0,31.0,20.0,10.0,99999,1738.0,invalid,,,-1,V,10.0
V10,62.0,35.0,24.0,18.0,6.0,6,1744.0,square4,f,0.364,3,V,10.0
V10,63.0,35.0,26.0,18.0,9.0,18,1762.0,square3,r,0.4623,2,V,10.0
V10,64.0,31.0,55.0,23.0,23.0,31,1793.0,square1,i,0.4927,0,V,10.0
V10,65.0,35.0,50.0,22.0,27.0,27,1820.0,square4,f,0.5578,3,V,10.0
V10,66.0,35.0,53.0,25.0,29.0,25,1845.0,square3,r,0.6735,2,V,10.0
V10,67.0,38.0,44.0,17.0,29.0,38,1883.0,square1,i,0.2849,0,V,10.0
V10,68.0,36.0,48.0,22.0,27.0,48,1931.0,square2,j,1.2872,1,V,10.0
V10,69.0,41.0,53.0,17.0,28.0,28,1959.0,square4,f,0.7577,3,V,10.0
V10,70.0,40.0,48.0,23.0,28.0,48,2007.0,square2,j,0.1667,1,V,10.0
V10,71.0,39.0,43.0,24.0,20.0,24,2031.0,square3,r,0.8633,2,V,10.0
V10,72.0,36.0,49.0,19.0,25.0,36,2067.0,square1,i,0.1636,0,V,10.0
V10,73.0,39.0,49.0,23.0,32.0,32,2099.0,square4,f,1.3095,3,V,10.0
V10,74.0,36.0,44.0,17.0,29.0,36,2135.0,square1,i,0.7396,0,V,10.0
V10,75.0,37.0,46.0,20.0,30.0,20,2155.0,square3,r,0.776,2,V,10.0
V10,76.0,38.0,47.0,23.0,30.0,47,2202.0,square2,j,0.0354,1,V,10.0
V10,77.0,36.0,49.0,22.0,32.0,99999,2202.0,invalid,,,-1,V,10.0
V10,78.0,41.0,44.0,19.0,27.0,19,2221.0,square3,r,0.5638,2,V,10.0
V10,79.0,41.0,48.0,22.0,27.0,99999,2221.0,invalid,,,-1,V,10.0
V10,80.0,34.0,44.0,26.0,29.0,34,2255.0,square1,i,0.8909,0,V,10.0
V10,81.0,38.0,47.0,18.0,29.0,47,2302.0,square2,j,0.0789,1,V,10.0
V10,82.0,43.0,43.0,23.0,28.0,28,2330.0,square4,f,0.8608,3,V,10.0
V10,83.0,34.0,51.0,23.0,26.0,51,2381.0,square2,j,1.1597,1,V,10.0
V10,84.0,36.0,46.0,18.0,25.0,18,2399.0,square3,r,0.4183,2,V,10.0
V10,85.0,39.0,46.0,25.0,26.0,39,2438.0,square1,i,0.7881,0,V,10.0
V10,86.0,39.0,50.0,27.0,27.0,50,2488.0,square2,j,0.5285,1,V,10.0
V10,87.0,38.0,46.0,20.0,30.0,30,2518.0,square4,f,0.2789,3,V,10.0
V10,88.0,37.0,49.0,22.0,28.0,22,2540.0,square3,r,0.2624,2,V,10.0
V10,89.0,34.0,51.0,25.0,26.0,34,2574.0,square1,i,0.225,0,V,10.0
V10,90.0,41.0,49.0,22.0,29.0,49,2623.0,square2,j,0.3789,1,V,10.0
V10,91.0,37.0,45.0,26.0,32.0,45,2668.0,square2,j,0.3222,1,V,10.0
V10,92.0,42.0,42.0,27.0,28.0,42,2710.0,square2,j,1.6003,1,V,10.0
V10,93.0,41.0,48.0,19.0,36.0,36,2746.0,square4,f,0.1334,3,V,10.0
V10,94.0,43.0,49.0,23.0,31.0,23,2769.0,square3,r,0.161,2,V,10.0
V10,95.0,39.0,46.0,18.0,27.0,39,2808.0,square1,i,0.9605,0,V,10.0
V10,96.0,37.0,48.0,24.0,27.0,27,2835.0,square4,f,1.3823,3,V,10.0
V10,97.0,42.0,50.0,23.0,31.0,23,2858.0,square3,r,0.1359,2,V,10.0
V10,98.0,33.0,47.0,25.0,32.0,33,2891.0,square1,i,0.2426,0,V,10.0
V10,99.0,39.0,48.0,23.0,32.0,48,2939.0,square2,j,0.2194,1,V,10.0
V7,0.0,86.0,61.0,78.0,68.0,99999,0.0,invalid,,,-1,V,7.0
V7,1.0,95.0,62.0,79.0,70.0,70,70.0,square4,j,0.579,3,V,7.0
V7,2.0,89.0,67.0,81.0,77.0,67,137.0,square2,r,1.6211,1,V,7.0
V7,3.0,90.0,56.0,85.0,72.0,90,227.0,square1,f,1.273,0,V,7.0
V7,4.0,91.0,65.0,77.0,71.0,77,304.0,square3,i,0.8549,2,V,7.0
V7,5.0,91.0,58.0,84.0,72.0,58,362.0,square2,r,0.9578,1,V,7.0
V7,6.0,94.0,65.0,87.0,72.0,99999,362.0,invalid,,,-1,V,7.0
V7,7.0,89.0,67.0,79.0,67.0,67,429.0,square4,j,0.9822,3,V,7.0
V7,8.0,91.0,65.0,84.0,68.0,91,520.0,square1,f,0.3031,0,V,7.0
V7,9.0,92.0,60.0,87.0,69.0,87,607.0,square3,i,1.8065,2,V,7.0
V7,10.0,90.0,67.0,81.0,76.0,76,683.0,square4,j,0.4972,3,V,7.0
V7,11.0,86.0,67.0,83.0,73.0,86,769.0,square1,f,0.4971,0,V,7.0
V7,12.0,90.0,62.0,80.0,72.0,62,831.0,square2,r,0.1394,1,V,7.0
V7,13.0,84.0,60.0,88.0,71.0,88,919.0,square3,i,0.1095,2,V,7.0
V7,14.0,95.0,64.0,80.0,70.0,70,989.0,square4,j,0.7578,3,V,7.0
V7,15.0,86.0,60.0,81.0,70.0,81,1070.0,square3,i,1.8369,2,V,7.0
V7,16.0,85.0,65.0,77.0,69.0,65,1135.0,square2,r,0.1698,1,V,7.0
V7,17.0,91.0,65.0,81.0,70.0,91,1226.0,square1,f,0.2002,0,V,7.0
V7,18.0,95.0,61.0,81.0,76.0,76,1302.0,square4,j,0.3443,3,V,7.0
V7,19.0,90.0,58.0,79.0,72.0,90,1392.0,square1,f,0.9182,0,V,7.0
V7,20.0,94.0,68.0,80.0,79.0,68,1460.0,square2,r,1.0324,1,V,7.0
V7,21.0,92.0,66.0,82.0,70.0,82,1542.0,square3,i,0.2454,2,V,7.0
V7,22.0,92.0,64.0,83.0,72.0,72,1614.0,square4,j,0.3818,3,V,7.0
V7,23.0,91.0,68.0,82.0,73.0,73,1687.0,square4,j,0.491,3,V,7.0
V7,24.0,87.0,71.0,82.0,72.0,87,1774.0,square1,f,0.1515,0,V,7.0
V7,25.0,91.0,68.0,90.0,74.0,68,1842.0,square2,r,0.1698,1,V,7.0
V7,26.0,89.0,65.0,83.0,72.0,83,1925.0,square3,i,0.3478,2,V,7.0
V7,27.0,91.0,61.0,81.0,73.0,73,1998.0,square4,j,0.5115,3,V,7.0
V7,28.0,90.0,66.0,81.0,72.0,99999,1998.0,invalid,,,-1,V,7.0
V7,29.0,89.0,67.0,77.0,71.0,89,2087.0,square1,f,0.5214,0,V,7.0
V7,30.0,95.0,68.0,84.0,71.0,68,2155.0,square2,r,0.5891,1,V,7.0
V7,31.0,95.0,61.0,81.0,70.0,81,2236.0,square3,i,0.2573,2,V,7.0
V7,32.0,89.0,65.0,82.0,75.0,75,2311.0,square4,j,0.5759,3,V,7.0
V7,33.0,77.0,50.0,80.0,61.0,80,2391.0,square3,i,1.7974,2,V,7.0
V7,34.0,76.0,54.0,78.0,61.0,54,2445.0,square2,r,0.479,1,V,7.0
V7,35.0,71.0,51.0,80.0,64.0,71,2516.0,square1,f,0.9545,0,V,7.0
V7,36.0,75.0,51.0,80.0,62.0,62,2578.0,square4,j,0.1334,3,V,7.0
V7,37.0,73.0,58.0,86.0,63.0,58,2636.0,square2,r,0.2128,1,V,7.0
V7,38.0,73.0,50.0,86.0,61.0,86,2722.0,square3,i,0.1698,2,V,7.0
V7,39.0,67.0,53.0,78.0,61.0,67,2789.0,square1,f,0.1654,0,V,7.0
V7,40.0,71.0,53.0,84.0,58.0,58,2847.0,square4,j,0.117,3,V,7.0
V7,41.0,75.0,51.0,83.0,63.0,83,2930.0,square3,i,1.5532,2,V,7.0
V7,42.0,69.0,48.0,87.0,63.0,69,2999.0,square1,f,0.1152,0,V,7.0
V7,43.0,70.0,58.0,81.0,60.0,58,3057.0,square2,r,0.4366,1,V,7.0
V7,44.0,68.0,56.0,76.0,63.0,63,3120.0,square4,j,0.1936,3,V,7.0
V7,45.0,74.0,59.0,76.0,56.0,74,3194.0,square1,f,0.7396,0,V,7.0
V7,46.0,72.0,54.0,77.0,61.0,54,3248.0,square2,r,0.4131,1,V,7.0
V7,47.0,69.0,47.0,81.0,62.0,81,3329.0,square3,i,0.3063,2,V,7.0
V7,48.0,75.0,52.0,81.0,57.0,57,3386.0,square4,j,0.4013,3,V,7.0
V7,49.0,74.0,55.0,78.0,60.0,74,3460.0,square1,f,0.5666,0,V,7.0
V7,50.0,71.0,51.0,80.0,61.0,51,3511.0,square2,r,0.2068,1,V,7.0
V7,51.0,75.0,55.0,85.0,62.0,85,3596.0,square3,i,0.3051,2,V,7.0
V7,52.0,75.0,59.0,76.0,59.0,59,3655.0,square4,j,1.1275,3,V,7.0
V7,53.0,72.0,53.0,84.0,66.0,72,3727.0,square1,f,0.1907,0,V,7.0
V7,54.0,69.0,51.0,81.0,60.0,51,3778.0,square2,r,0.1331,1,V,7.0
V7,55.0,74.0,56.0,75.0,54.0,75,3853.0,square3,i,0.1273,2,V,7.0
V7,56.0,76.0,51.0,83.0,58.0,58,3911.0,square4,j,0.5059,3,V,7.0
V7,57.0,71.0,53.0,80.0,64.0,71,3982.0,square1,f,1.9519,0,V,7.0
V7,58.0,81.0,56.0,79.0,61.0,56,4038.0,square2,r,0.6141,1,V,7.0
V7,59.0,71.0,55.0,83.0,59.0,83,4121.0,square3,i,0.776,2,V,7.0
V7,60.0,73.0,53.0,83.0,64.0,73,4194.0,square1,f,1.2852,0,V,7.0
V7,61.0,70.0,53.0,77.0,63.0,63,4257.0,square4,j,0.5153,3,V,7.0
V7,62.0,71.0,54.0,76.0,61.0,71,4328.0,square1,f,0.3456,0,V,7.0
V7,63.0,68.0,45.0,79.0,65.0,45,4373.0,square2,r,0.4077,1,V,7.0
V7,64.0,65.0,55.0,79.0,59.0,79,4452.0,square3,i,0.1819,2,V,7.0
V7,65.0,74.0,54.0,81.0,61.0,61,4513.0,square4,j,0.3231,3,V,7.0
V7,66.0,70.0,56.0,81.0,63.0,81,4594.0,square3,i,0.2607,2,V,7.0
V7,67.0,70.0,85.0,64.0,92.0,70,4664.0,square1,f,0.2668,0,V,7.0
V7,68.0,73.0,85.0,68.0,92.0,85,4749.0,square2,r,0.203,1,V,7.0
V7,69.0,75.0,83.0,70.0,91.0,91,4840.0,square4,j,0.9102,3,V,7.0
V7,70.0,75.0,85.0,69.0,91.0,91,4931.0,square4,j,1.8714,3,V,7.0
V7,71.0,71.0,86.0,65.0,94.0,71,5002.0,square1,f,0.3274,0,V,7.0
V7,72.0,77.0,86.0,65.0,98.0,86,5088.0,square2,r,0.2123,1,V,7.0
V7,73.0,77.0,84.0,63.0,94.0,63,5151.0,square3,i,0.0971,2,V,7.0
V7,74.0,71.0,86.0,64.0,91.0,86,5237.0,square2,r,0.6494,1,V,7.0
V7,75.0,73.0,90.0,60.0,90.0,73,5310.0,square1,f,0.0971,0,V,7.0
V7,76.0,79.0,84.0,68.0,95.0,95,5405.0,square4,j,0.2433,3,V,7.0
V7,77.0,73.0,85.0,66.0,89.0,66,5471.0,square3,i,0.224,2,V,7.0
V7,78.0,75.0,82.0,67.0,91.0,91,5562.0,square4,j,1.1823,3,V,7.0
V7,79.0,72.0,85.0,60.0,90.0,72,5634.0,square1,f,0.3395,0,V,7.0
V7,80.0,73.0,83.0,66.0,97.0,83,5717.0,square2,r,0.1759,1,V,7.0
V7,81.0,73.0,84.0,67.0,92.0,67,5784.0,square3,i,0.2304,2,V,7.0
V7,82.0,69.0,84.0,65.0,91.0,91,5875.0,square4,j,0.3697,3,V,7.0
V7,83.0,76.0,83.0,72.0,99.0,76,5951.0,square1,f,0.2985,0,V,7.0
V7,84.0,72.0,84.0,70.0,94.0,70,6021.0,square3,i,0.382,2,V,7.0
V7,85.0,77.0,83.0,67.0,88.0,83,6104.0,square2,r,0.1091,1,V,7.0
V7,86.0,76.0,80.0,67.0,90.0,90,6194.0,square4,j,0.5397,3,V,7.0
V7,87.0,70.0,86.0,67.0,95.0,70,6264.0,square1,f,0.3577,0,V,7.0
V7,88.0,76.0,84.0,67.0,100.0,84,6348.0,square2,r,0.2002,1,V,7.0
V7,89.0,71.0,88.0,60.0,97.0,60,6408.0,square3,i,0.8548,2,V,7.0
V7,90.0,69.0,82.0,71.0,95.0,69,6477.0,square1,f,0.5271,0,V,7.0
V7,91.0,80.0,84.0,65.0,92.0,84,6561.0,square2,r,0.1395,1,V,7.0
V7,92.0,77.0,85.0,68.0,85.0,85,6646.0,square4,j,0.5396,3,V,7.0
V7,93.0,72.0,84.0,66.0,91.0,66,6712.0,square3,i,0.1129,2,V,7.0
V7,94.0,69.0,83.0,66.0,95.0,69,6781.0,square1,f,0.6123,0,V,7.0
V7,95.0,70.0,86.0,75.0,91.0,86,6867.0,square2,r,0.2486,1,V,7.0
V7,96.0,74.0,85.0,66.0,88.0,66,6933.0,square3,i,0.4305,2,V,7.0
V7,97.0,77.0,82.0,73.0,91.0,91,7024.0,square4,j,0.4789,3,V,7.0
V7,98.0,76.0,91.0,62.0,94.0,94,7118.0,square4,j,0.3031,3,V,7.0
V7,99.0,74.0,84.0,67.0,88.0,74,7192.0,square1,f,0.3539,0,V,7.0
