block,Trial,square1,square2,square3,square4,currPoints,totalPoints,square,choiceKey.keys,choiceKey.rt,armNum,blockType,blockNum
prac,0.0,100.0,0.0,0.0,0.0,0,0.0,square4,,,3,p,0.0
prac,1.0,100.0,0.0,0.0,0.0,0,0.0,square3,,,2,p,0.0
prac,2.0,100.0,0.0,0.0,0.0,0,0.0,square2,,,1,p,0.0
prac,3.0,100.0,0.0,0.0,0.0,100,100.0,square1,,,0,p,0.0
prac,4.0,100.0,0.0,0.0,0.0,0,100.0,square2,,,1,p,0.0
prac,5.0,100.0,0.0,0.0,0.0,100,200.0,square1,,,0,p,0.0
prac,6.0,100.0,0.0,0.0,0.0,100,300.0,square1,,,0,p,0.0
prac,7.0,100.0,0.0,0.0,0.0,100,400.0,square1,,,0,p,0.0
prac,8.0,100.0,0.0,0.0,0.0,100,500.0,square1,,,0,p,0.0
prac,9.0,100.0,0.0,0.0,0.0,100,600.0,square1,,,0,p,0.0
V6,0.0,43.0,59.0,68.0,49.0,68,68.0,square3,r,0.009,2,V,6.0
V6,1.0,43.0,62.0,71.0,50.0,71,139.0,square3,r,0.256,2,V,6.0
V6,2.0,48.0,61.0,72.0,51.0,72,211.0,square3,r,0.129,2,V,6.0
V6,3.0,46.0,55.0,71.0,51.0,46,257.0,square1,i,0.221,0,V,6.0
V6,4.0,44.0,61.0,74.0,48.0,61,318.0,square2,j,0.448,1,V,6.0
V6,5.0,45.0,62.0,70.0,51.0,51,369.0,square4,f,0.011,3,V,6.0
V6,6.0,42.0,67.0,73.0,46.0,73,442.0,square3,r,0.207,2,V,6.0
V6,7.0,44.0,63.0,71.0,53.0,71,513.0,square3,r,0.247,2,V,6.0
V6,8.0,41.0,62.0,73.0,52.0,41,554.0,square1,i,0.717,0,V,6.0
V6,9.0,46.0,59.0,72.0,54.0,72,626.0,square3,r,0.011,2,V,6.0
V6,10.0,45.0,59.0,70.0,53.0,70,696.0,square3,r,0.157,2,V,6.0
V6,11.0,45.0,60.0,70.0,49.0,70,766.0,square3,r,0.086,2,V,6.0
V6,12.0,45.0,66.0,64.0,48.0,64,830.0,square3,r,0.077,2,V,6.0
V6,13.0,45.0,61.0,69.0,47.0,69,899.0,square3,r,0.0,2,V,6.0
V6,14.0,47.0,60.0,71.0,56.0,60,959.0,square2,j,0.0,1,V,6.0
V6,15.0,46.0,64.0,67.0,52.0,67,1026.0,square3,r,0.017,2,V,6.0
V6,16.0,50.0,60.0,69.0,54.0,69,1095.0,square3,r,0.076,2,V,6.0
V6,17.0,43.0,60.0,70.0,53.0,70,1165.0,square3,r,0.04,2,V,6.0
V6,18.0,46.0,63.0,72.0,55.0,72,1237.0,square3,r,0.0,2,V,6.0
V6,19.0,46.0,65.0,73.0,51.0,73,1310.0,square3,r,0.007,2,V,6.0
V6,20.0,44.0,63.0,66.0,51.0,66,1376.0,square3,r,0.175,2,V,6.0
V6,21.0,43.0,63.0,70.0,49.0,70,1446.0,square3,r,0.454,2,V,6.0
V6,22.0,45.0,63.0,71.0,50.0,71,1517.0,square3,r,0.027,2,V,6.0
V6,23.0,45.0,38.0,28.0,60.0,60,1577.0,square4,f,0.119,3,V,6.0
V6,24.0,46.0,33.0,33.0,53.0,33,1610.0,square3,r,0.025,2,V,6.0
V6,25.0,45.0,36.0,32.0,63.0,32,1642.0,square3,r,0.062,2,V,6.0
V6,26.0,52.0,37.0,28.0,57.0,52,1694.0,square1,i,0.761,0,V,6.0
V6,27.0,45.0,33.0,30.0,62.0,33,1727.0,square2,j,0.893,1,V,6.0
V6,28.0,43.0,37.0,24.0,51.0,51,1778.0,square4,f,0.046,3,V,6.0
V6,29.0,48.0,39.0,34.0,61.0,61,1839.0,square4,f,0.077,3,V,6.0
V6,30.0,48.0,44.0,35.0,59.0,59,1898.0,square4,f,0.018,3,V,6.0
V6,31.0,50.0,39.0,34.0,53.0,53,1951.0,square4,f,0.198,3,V,6.0
V6,32.0,44.0,33.0,33.0,54.0,44,1995.0,square1,i,1.564,0,V,6.0
V6,33.0,48.0,37.0,30.0,56.0,30,2025.0,square3,r,0.195,2,V,6.0
V6,34.0,52.0,37.0,27.0,59.0,37,2062.0,square2,j,0.048,1,V,6.0
V6,35.0,47.0,32.0,29.0,59.0,59,2121.0,square4,f,0.113,3,V,6.0
V6,36.0,45.0,37.0,27.0,56.0,56,2177.0,square4,f,0.17,3,V,6.0
V6,37.0,39.0,37.0,31.0,57.0,57,2234.0,square4,f,0.101,3,V,6.0
V6,38.0,50.0,38.0,29.0,56.0,56,2290.0,square4,f,0.144,3,V,6.0
V6,39.0,48.0,37.0,27.0,57.0,57,2347.0,square4,f,0.005,3,V,6.0
V6,40.0,53.0,37.0,29.0,57.0,57,2404.0,square4,f,0.005,3,V,6.0
V6,41.0,41.0,34.0,33.0,58.0,58,2462.0,square4,f,0.0,3,V,6.0
V6,42.0,50.0,37.0,31.0,57.0,57,2519.0,square4,f,0.12,3,V,6.0
V6,43.0,48.0,34.0,30.0,58.0,58,2577.0,square4,f,0.138,3,V,6.0
V6,44.0,44.0,37.0,33.0,60.0,60,2637.0,square4,f,0.191,3,V,6.0
V6,45.0,44.0,32.0,33.0,55.0,55,2692.0,square4,f,0.087,3,V,6.0
V6,46.0,44.0,36.0,33.0,59.0,59,2751.0,square4,f,0.076,3,V,6.0
V6,47.0,42.0,34.0,29.0,52.0,52,2803.0,square4,f,0.048,3,V,6.0
V6,48.0,46.0,41.0,28.0,60.0,60,2863.0,square4,f,0.168,3,V,6.0
V6,49.0,46.0,40.0,27.0,55.0,55,2918.0,square4,f,0.137,3,V,6.0
V6,50.0,46.0,41.0,32.0,55.0,55,2973.0,square4,f,0.159,3,V,6.0
V6,51.0,41.0,39.0,30.0,55.0,55,3028.0,square4,f,0.184,3,V,6.0
V6,52.0,47.0,37.0,31.0,55.0,55,3083.0,square4,f,0.021,3,V,6.0
V6,53.0,57.0,36.0,30.0,58.0,58,3141.0,square4,f,0.001,3,V,6.0
V6,54.0,42.0,38.0,28.0,50.0,50,3191.0,square4,f,0.018,3,V,6.0
V6,55.0,56.0,42.0,67.0,46.0,46,3237.0,square4,f,0.068,3,V,6.0
V6,56.0,54.0,37.0,68.0,46.0,68,3305.0,square3,r,0.03,2,V,6.0
V6,57.0,57.0,40.0,64.0,52.0,64,3369.0,square3,r,0.053,2,V,6.0
V6,58.0,53.0,45.0,68.0,45.0,68,3437.0,square3,r,0.015,2,V,6.0
V6,59.0,59.0,41.0,69.0,49.0,69,3506.0,square3,r,0.041,2,V,6.0
V6,60.0,62.0,41.0,71.0,51.0,71,3577.0,square3,r,0.04,2,V,6.0
V6,61.0,58.0,50.0,72.0,51.0,72,3649.0,square3,r,0.143,2,V,6.0
V6,62.0,61.0,43.0,65.0,47.0,65,3714.0,square3,r,0.02,2,V,6.0
V6,63.0,55.0,40.0,67.0,51.0,67,3781.0,square3,r,0.353,2,V,6.0
V6,64.0,56.0,43.0,67.0,47.0,67,3848.0,square3,r,0.055,2,V,6.0
V6,65.0,62.0,46.0,67.0,48.0,62,3910.0,square1,i,1.408,0,V,6.0
V6,66.0,55.0,44.0,67.0,48.0,44,3954.0,square2,j,0.105,1,V,6.0
V6,67.0,61.0,46.0,70.0,49.0,70,4024.0,square3,r,0.143,2,V,6.0
V6,68.0,63.0,41.0,72.0,46.0,72,4096.0,square3,r,0.192,2,V,6.0
V6,69.0,59.0,41.0,68.0,48.0,68,4164.0,square3,r,0.141,2,V,6.0
V6,70.0,59.0,37.0,70.0,45.0,70,4234.0,square3,r,0.059,2,V,6.0
V6,71.0,83.0,64.0,56.0,70.0,56,4290.0,square3,r,0.046,2,V,6.0
V6,72.0,82.0,59.0,53.0,75.0,82,4372.0,square1,i,0.012,0,V,6.0
V6,73.0,85.0,67.0,58.0,73.0,85,4457.0,square1,i,0.108,0,V,6.0
V6,74.0,79.0,67.0,61.0,73.0,79,4536.0,square1,i,0.045,0,V,6.0
V6,75.0,84.0,62.0,53.0,69.0,84,4620.0,square1,i,0.096,0,V,6.0
V6,76.0,81.0,60.0,55.0,76.0,81,4701.0,square1,i,0.127,0,V,6.0
V6,77.0,84.0,61.0,60.0,72.0,84,4785.0,square1,i,0.082,0,V,6.0
V6,78.0,90.0,61.0,54.0,74.0,90,4875.0,square1,i,0.024,0,V,6.0
V6,79.0,80.0,64.0,51.0,75.0,80,4955.0,square1,i,0.117,0,V,6.0
V6,80.0,85.0,62.0,56.0,78.0,85,5040.0,square1,i,0.143,0,V,6.0
V6,81.0,86.0,65.0,58.0,69.0,86,5126.0,square1,i,0.053,0,V,6.0
V6,82.0,83.0,62.0,58.0,77.0,62,5188.0,square2,j,0.118,1,V,6.0
V6,83.0,87.0,61.0,59.0,70.0,87,5275.0,square1,i,0.113,0,V,6.0
V6,84.0,89.0,65.0,54.0,78.0,78,5353.0,square4,f,0.122,3,V,6.0
V6,85.0,78.0,63.0,55.0,75.0,55,5408.0,square3,r,0.014,2,V,6.0
V6,86.0,87.0,67.0,52.0,75.0,87,5495.0,square1,i,0.061,0,V,6.0
V6,87.0,86.0,62.0,60.0,75.0,86,5581.0,square1,i,0.186,0,V,6.0
V6,88.0,79.0,67.0,56.0,76.0,79,5660.0,square1,i,0.007,0,V,6.0
V6,89.0,83.0,61.0,57.0,75.0,83,5743.0,square1,i,0.001,0,V,6.0
V6,90.0,83.0,67.0,51.0,76.0,83,5826.0,square1,i,0.001,0,V,6.0
V6,91.0,83.0,63.0,55.0,69.0,83,5909.0,square1,i,0.071,0,V,6.0
V6,92.0,89.0,56.0,53.0,68.0,89,5998.0,square1,i,0.094,0,V,6.0
V6,93.0,84.0,61.0,59.0,74.0,84,6082.0,square1,i,0.189,0,V,6.0
V6,94.0,77.0,58.0,58.0,76.0,77,6159.0,square1,i,0.162,0,V,6.0
V6,95.0,82.0,60.0,53.0,74.0,53,6212.0,square3,r,0.133,2,V,6.0
V6,96.0,87.0,61.0,56.0,71.0,61,6273.0,square2,j,0.103,1,V,6.0
V6,97.0,83.0,66.0,55.0,75.0,75,6348.0,square4,f,0.11,3,V,6.0
V6,98.0,81.0,63.0,55.0,76.0,81,6429.0,square1,i,0.135,0,V,6.0
V6,99.0,92.0,63.0,61.0,78.0,92,6521.0,square1,i,0.095,0,V,6.0
V3,0.0,62.0,45.0,70.0,53.0,45,45.0,square2,r,1.269,1,V,3.0
V3,1.0,63.0,47.0,76.0,60.0,76,121.0,square3,i,0.421,2,V,3.0
V3,2.0,65.0,54.0,73.0,57.0,65,186.0,square1,f,0.234,0,V,3.0
V3,3.0,68.0,51.0,71.0,51.0,51,237.0,square4,j,0.061,3,V,3.0
V3,4.0,61.0,49.0,75.0,53.0,75,312.0,square3,i,0.02,2,V,3.0
V3,5.0,65.0,47.0,74.0,50.0,74,386.0,square3,i,0.077,2,V,3.0
V3,6.0,61.0,51.0,72.0,57.0,72,458.0,square3,i,0.064,2,V,3.0
V3,7.0,67.0,49.0,75.0,55.0,75,533.0,square3,i,0.106,2,V,3.0
V3,8.0,64.0,48.0,76.0,56.0,76,609.0,square3,i,0.163,2,V,3.0
V3,9.0,67.0,49.0,71.0,56.0,71,680.0,square3,i,0.068,2,V,3.0
V3,10.0,65.0,50.0,71.0,56.0,71,751.0,square3,i,0.007,2,V,3.0
V3,11.0,63.0,43.0,78.0,58.0,78,829.0,square3,i,0.05,2,V,3.0
V3,12.0,66.0,53.0,73.0,54.0,73,902.0,square3,i,0.105,2,V,3.0
V3,13.0,64.0,46.0,78.0,51.0,78,980.0,square3,i,0.067,2,V,3.0
V3,14.0,67.0,51.0,71.0,58.0,71,1051.0,square3,i,0.02,2,V,3.0
V3,15.0,61.0,50.0,73.0,54.0,50,1101.0,square2,r,0.104,1,V,3.0
V3,16.0,64.0,52.0,74.0,54.0,64,1165.0,square1,f,0.088,0,V,3.0
V3,17.0,61.0,48.0,74.0,55.0,55,1220.0,square4,j,0.023,3,V,3.0
V3,18.0,65.0,50.0,70.0,59.0,70,1290.0,square3,i,0.171,2,V,3.0
V3,19.0,64.0,52.0,76.0,56.0,76,1366.0,square3,i,0.109,2,V,3.0
V3,20.0,64.0,50.0,69.0,58.0,69,1435.0,square3,i,0.005,2,V,3.0
V3,21.0,66.0,50.0,72.0,56.0,72,1507.0,square3,i,0.057,2,V,3.0
V3,22.0,43.0,48.0,40.0,62.0,40,1547.0,square3,i,0.185,2,V,3.0
V3,23.0,41.0,51.0,35.0,59.0,51,1598.0,square2,r,0.094,1,V,3.0
V3,24.0,51.0,51.0,37.0,60.0,51,1649.0,square1,f,0.045,0,V,3.0
V3,25.0,45.0,53.0,36.0,57.0,57,1706.0,square4,j,0.053,3,V,3.0
V3,26.0,44.0,51.0,38.0,59.0,59,1765.0,square4,j,0.077,3,V,3.0
V3,27.0,43.0,51.0,34.0,66.0,66,1831.0,square4,j,0.026,3,V,3.0
V3,28.0,47.0,51.0,40.0,67.0,67,1898.0,square4,j,0.094,3,V,3.0
V3,29.0,42.0,55.0,35.0,65.0,65,1963.0,square4,j,0.046,3,V,3.0
V3,30.0,49.0,54.0,36.0,62.0,54,2017.0,square2,r,0.101,1,V,3.0
V3,31.0,50.0,53.0,42.0,66.0,50,2067.0,square1,f,0.006,0,V,3.0
V3,32.0,47.0,53.0,34.0,58.0,34,2101.0,square3,i,0.007,2,V,3.0
V3,33.0,45.0,56.0,34.0,62.0,62,2163.0,square4,j,0.154,3,V,3.0
V3,34.0,48.0,54.0,38.0,64.0,64,2227.0,square4,j,0.025,3,V,3.0
V3,35.0,39.0,55.0,42.0,65.0,65,2292.0,square4,j,0.001,3,V,3.0
V3,36.0,46.0,57.0,41.0,63.0,63,2355.0,square4,j,0.029,3,V,3.0
V3,37.0,43.0,54.0,41.0,65.0,65,2420.0,square4,j,0.034,3,V,3.0
V3,38.0,47.0,52.0,37.0,63.0,63,2483.0,square4,j,0.001,3,V,3.0
V3,39.0,47.0,53.0,38.0,55.0,55,2538.0,square4,j,0.009,3,V,3.0
V3,40.0,41.0,54.0,39.0,64.0,64,2602.0,square4,j,0.115,3,V,3.0
V3,41.0,48.0,52.0,38.0,64.0,64,2666.0,square4,j,0.06,3,V,3.0
V3,42.0,45.0,50.0,34.0,63.0,63,2729.0,square4,j,0.055,3,V,3.0
V3,43.0,44.0,50.0,34.0,62.0,62,2791.0,square4,j,0.032,3,V,3.0
V3,44.0,47.0,55.0,39.0,65.0,65,2856.0,square4,j,0.117,3,V,3.0
V3,45.0,45.0,55.0,31.0,63.0,63,2919.0,square4,j,0.168,3,V,3.0
V3,46.0,42.0,52.0,38.0,64.0,64,2983.0,square4,j,0.026,3,V,3.0
V3,47.0,44.0,53.0,37.0,55.0,55,3038.0,square4,j,0.086,3,V,3.0
V3,48.0,44.0,49.0,37.0,58.0,37,3075.0,square3,i,0.024,2,V,3.0
V3,49.0,48.0,58.0,35.0,54.0,54,3129.0,square4,j,0.123,3,V,3.0
V3,50.0,42.0,28.0,30.0,52.0,52,3181.0,square4,j,0.156,3,V,3.0
V3,51.0,46.0,29.0,32.0,51.0,51,3232.0,square4,j,0.149,3,V,3.0
V3,52.0,37.0,20.0,36.0,50.0,50,3282.0,square4,j,0.093,3,V,3.0
V3,53.0,44.0,22.0,34.0,55.0,22,3304.0,square2,r,0.012,1,V,3.0
V3,54.0,37.0,27.0,26.0,50.0,37,3341.0,square1,f,0.142,0,V,3.0
V3,55.0,41.0,21.0,39.0,53.0,39,3380.0,square3,i,0.094,2,V,3.0
V3,56.0,40.0,20.0,38.0,51.0,51,3431.0,square4,j,0.061,3,V,3.0
V3,57.0,44.0,28.0,31.0,57.0,57,3488.0,square4,j,0.033,3,V,3.0
V3,58.0,46.0,20.0,28.0,49.0,49,3537.0,square4,j,0.036,3,V,3.0
V3,59.0,44.0,24.0,30.0,55.0,55,3592.0,square4,j,0.242,3,V,3.0
V3,60.0,42.0,29.0,29.0,51.0,51,3643.0,square4,j,0.177,3,V,3.0
V3,61.0,41.0,21.0,30.0,46.0,46,3689.0,square4,j,0.275,3,V,3.0
V3,62.0,41.0,27.0,31.0,49.0,49,3738.0,square4,j,0.077,3,V,3.0
V3,63.0,42.0,27.0,34.0,51.0,51,3789.0,square4,j,0.103,3,V,3.0
V3,64.0,41.0,24.0,30.0,47.0,47,3836.0,square4,j,0.258,3,V,3.0
V3,65.0,36.0,18.0,34.0,48.0,48,3884.0,square4,j,0.13,3,V,3.0
V3,66.0,39.0,28.0,35.0,45.0,45,3929.0,square4,j,0.0,3,V,3.0
V3,67.0,42.0,21.0,32.0,46.0,46,3975.0,square4,j,0.077,3,V,3.0
V3,68.0,40.0,24.0,35.0,53.0,53,4028.0,square4,j,0.154,3,V,3.0
V3,69.0,48.0,23.0,34.0,50.0,50,4078.0,square4,j,0.385,3,V,3.0
V3,70.0,40.0,27.0,31.0,49.0,49,4127.0,square4,j,0.15,3,V,3.0
V3,71.0,41.0,23.0,28.0,51.0,28,4155.0,square3,i,0.118,2,V,3.0
V3,72.0,42.0,25.0,33.0,55.0,25,4180.0,square2,r,0.694,1,V,3.0
V3,73.0,41.0,24.0,35.0,55.0,41,4221.0,square1,f,0.073,0,V,3.0
V3,74.0,38.0,26.0,28.0,53.0,53,4274.0,square4,j,0.158,3,V,3.0
V3,75.0,54.0,39.0,69.0,50.0,50,4324.0,square4,j,0.133,3,V,3.0
V3,76.0,55.0,42.0,64.0,53.0,53,4377.0,square4,j,0.179,3,V,3.0
V3,77.0,59.0,37.0,66.0,44.0,44,4421.0,square4,j,0.022,3,V,3.0
V3,78.0,58.0,38.0,60.0,46.0,46,4467.0,square4,j,0.09,3,V,3.0
V3,79.0,54.0,35.0,66.0,49.0,49,4516.0,square4,j,0.123,3,V,3.0
V3,80.0,60.0,36.0,68.0,44.0,44,4560.0,square4,j,0.196,3,V,3.0
V3,81.0,55.0,38.0,66.0,51.0,51,4611.0,square4,j,0.178,3,V,3.0
V3,82.0,57.0,47.0,64.0,50.0,50,4661.0,square4,j,0.111,3,V,3.0
V3,83.0,57.0,37.0,63.0,45.0,63,4724.0,square3,i,0.143,2,V,3.0
V3,84.0,54.0,40.0,65.0,53.0,65,4789.0,square3,i,0.133,2,V,3.0
V3,85.0,58.0,41.0,63.0,48.0,63,4852.0,square3,i,0.211,2,V,3.0
V3,86.0,53.0,38.0,57.0,49.0,57,4909.0,square3,i,0.01,2,V,3.0
V3,87.0,49.0,42.0,60.0,43.0,60,4969.0,square3,i,0.052,2,V,3.0
V3,88.0,56.0,35.0,70.0,46.0,70,5039.0,square3,i,0.029,2,V,3.0
V3,89.0,58.0,39.0,63.0,52.0,63,5102.0,square3,i,0.122,2,V,3.0
V3,90.0,59.0,43.0,63.0,45.0,43,5145.0,square2,r,0.12,1,V,3.0
V3,91.0,54.0,37.0,69.0,49.0,54,5199.0,square1,f,0.075,0,V,3.0
V3,92.0,56.0,41.0,61.0,47.0,61,5260.0,square3,i,0.014,2,V,3.0
V3,93.0,58.0,35.0,68.0,47.0,68,5328.0,square3,i,0.048,2,V,3.0
V3,94.0,61.0,37.0,67.0,51.0,67,5395.0,square3,i,0.001,2,V,3.0
V3,95.0,57.0,32.0,64.0,47.0,64,5459.0,square3,i,0.089,2,V,3.0
V3,96.0,53.0,38.0,63.0,48.0,63,5522.0,square3,i,0.016,2,V,3.0
V3,97.0,57.0,44.0,71.0,50.0,71,5593.0,square3,i,0.176,2,V,3.0
V3,98.0,56.0,39.0,70.0,47.0,70,5663.0,square3,i,0.165,2,V,3.0
V3,99.0,62.0,40.0,67.0,49.0,99999,5663.0,invalid,,,-1,V,3.0
V8,0.0,49.0,55.0,64.0,74.0,99999,0.0,invalid,,,-1,V,8.0
V8,1.0,51.0,54.0,70.0,81.0,51,51.0,square1,i,0.326,0,V,8.0
V8,2.0,46.0,62.0,70.0,77.0,62,113.0,square2,j,0.792,1,V,8.0
V8,3.0,46.0,56.0,67.0,75.0,75,188.0,square4,f,0.017,3,V,8.0
V8,4.0,50.0,59.0,67.0,83.0,67,255.0,square3,r,0.001,2,V,8.0
V8,5.0,51.0,54.0,65.0,78.0,78,333.0,square4,f,0.012,3,V,8.0
V8,6.0,45.0,57.0,66.0,80.0,80,413.0,square4,f,0.014,3,V,8.0
V8,7.0,46.0,64.0,68.0,77.0,77,490.0,square4,f,0.027,3,V,8.0
V8,8.0,50.0,57.0,66.0,73.0,73,563.0,square4,f,0.015,3,V,8.0
V8,9.0,46.0,56.0,71.0,72.0,56,619.0,square2,j,0.018,1,V,8.0
V8,10.0,56.0,58.0,67.0,75.0,67,686.0,square3,r,0.045,2,V,8.0
V8,11.0,50.0,61.0,69.0,74.0,74,760.0,square4,f,0.052,3,V,8.0
V8,12.0,59.0,59.0,69.0,77.0,77,837.0,square4,f,0.151,3,V,8.0
V8,13.0,50.0,56.0,72.0,77.0,77,914.0,square4,f,0.021,3,V,8.0
V8,14.0,48.0,55.0,65.0,80.0,80,994.0,square4,f,0.032,3,V,8.0
V8,15.0,48.0,58.0,65.0,76.0,76,1070.0,square4,f,0.079,3,V,8.0
V8,16.0,49.0,58.0,67.0,75.0,75,1145.0,square4,f,0.178,3,V,8.0
V8,17.0,51.0,56.0,68.0,76.0,76,1221.0,square4,f,0.014,3,V,8.0
V8,18.0,52.0,63.0,69.0,80.0,80,1301.0,square4,f,0.273,3,V,8.0
V8,19.0,54.0,54.0,71.0,79.0,79,1380.0,square4,f,0.138,3,V,8.0
V8,20.0,48.0,53.0,62.0,77.0,77,1457.0,square4,f,0.152,3,V,8.0
V8,21.0,44.0,61.0,66.0,77.0,66,1523.0,square3,r,0.001,2,V,8.0
V8,22.0,52.0,58.0,64.0,78.0,78,1601.0,square4,f,0.008,3,V,8.0
V8,23.0,50.0,49.0,67.0,79.0,79,1680.0,square4,f,0.09,3,V,8.0
V8,24.0,49.0,59.0,69.0,74.0,74,1754.0,square4,f,0.089,3,V,8.0
V8,25.0,46.0,61.0,65.0,81.0,46,1800.0,square1,i,0.118,0,V,8.0
V8,26.0,49.0,58.0,63.0,35.0,58,1858.0,square2,j,0.088,1,V,8.0
V8,27.0,48.0,51.0,66.0,41.0,41,1899.0,square4,f,0.001,3,V,8.0
V8,28.0,46.0,55.0,65.0,38.0,38,1937.0,square4,f,0.031,3,V,8.0
V8,29.0,47.0,58.0,69.0,40.0,69,2006.0,square3,r,0.084,2,V,8.0
V8,30.0,42.0,55.0,67.0,43.0,67,2073.0,square3,r,0.018,2,V,8.0
V8,31.0,49.0,56.0,64.0,36.0,64,2137.0,square3,r,0.077,2,V,8.0
V8,32.0,49.0,55.0,69.0,38.0,69,2206.0,square3,r,0.122,2,V,8.0
V8,33.0,44.0,52.0,65.0,48.0,65,2271.0,square3,r,0.013,2,V,8.0
V8,34.0,44.0,57.0,70.0,45.0,57,2328.0,square2,j,0.081,1,V,8.0
V8,35.0,44.0,54.0,68.0,38.0,68,2396.0,square3,r,0.052,2,V,8.0
V8,36.0,45.0,56.0,64.0,40.0,64,2460.0,square3,r,0.173,2,V,8.0
V8,37.0,47.0,57.0,66.0,37.0,66,2526.0,square3,r,0.034,2,V,8.0
V8,38.0,49.0,50.0,66.0,37.0,66,2592.0,square3,r,0.0,2,V,8.0
V8,39.0,51.0,56.0,61.0,39.0,61,2653.0,square3,r,0.167,2,V,8.0
V8,40.0,47.0,59.0,66.0,41.0,66,2719.0,square3,r,0.122,2,V,8.0
V8,41.0,42.0,56.0,69.0,42.0,69,2788.0,square3,r,0.053,2,V,8.0
V8,42.0,47.0,57.0,72.0,35.0,72,2860.0,square3,r,0.099,2,V,8.0
V8,43.0,47.0,57.0,63.0,44.0,47,2907.0,square1,i,0.095,0,V,8.0
V8,44.0,45.0,58.0,67.0,42.0,67,2974.0,square3,r,0.116,2,V,8.0
V8,45.0,44.0,56.0,66.0,43.0,43,3017.0,square4,f,0.0,3,V,8.0
V8,46.0,46.0,53.0,70.0,37.0,70,3087.0,square3,r,0.129,2,V,8.0
V8,47.0,54.0,53.0,71.0,41.0,71,3158.0,square3,r,0.028,2,V,8.0
V8,48.0,49.0,53.0,69.0,37.0,69,3227.0,square3,r,0.105,2,V,8.0
V8,49.0,39.0,57.0,65.0,47.0,65,3292.0,square3,r,0.113,2,V,8.0
V8,50.0,48.0,55.0,65.0,41.0,65,3357.0,square3,r,0.083,2,V,8.0
V8,51.0,45.0,61.0,68.0,43.0,68,3425.0,square3,r,0.136,2,V,8.0
V8,52.0,53.0,52.0,68.0,37.0,68,3493.0,square3,r,0.039,2,V,8.0
V8,53.0,47.0,55.0,66.0,46.0,66,3559.0,square3,r,0.021,2,V,8.0
V8,54.0,49.0,53.0,61.0,39.0,61,3620.0,square3,r,0.208,2,V,8.0
V8,55.0,53.0,70.0,55.0,72.0,55,3675.0,square3,r,0.817,2,V,8.0
V8,56.0,57.0,63.0,48.0,73.0,48,3723.0,square3,r,0.052,2,V,8.0
V8,57.0,53.0,71.0,45.0,80.0,71,3794.0,square2,j,0.126,1,V,8.0
V8,58.0,57.0,69.0,52.0,73.0,69,3863.0,square2,j,0.067,1,V,8.0
V8,59.0,58.0,67.0,54.0,73.0,67,3930.0,square2,j,0.092,1,V,8.0
V8,60.0,55.0,66.0,47.0,76.0,66,3996.0,square2,j,0.114,1,V,8.0
V8,61.0,56.0,65.0,54.0,72.0,65,4061.0,square2,j,0.108,1,V,8.0
V8,62.0,56.0,65.0,49.0,75.0,65,4126.0,square2,j,0.039,1,V,8.0
V8,63.0,61.0,65.0,44.0,78.0,78,4204.0,square4,f,0.501,3,V,8.0
V8,64.0,54.0,66.0,48.0,75.0,75,4279.0,square4,f,0.066,3,V,8.0
V8,65.0,59.0,65.0,46.0,79.0,79,4358.0,square4,f,0.02,3,V,8.0
V8,66.0,51.0,62.0,46.0,73.0,73,4431.0,square4,f,0.129,3,V,8.0
V8,67.0,60.0,70.0,45.0,76.0,76,4507.0,square4,f,0.001,3,V,8.0
V8,68.0,63.0,64.0,47.0,73.0,73,4580.0,square4,f,0.056,3,V,8.0
V8,69.0,58.0,66.0,43.0,77.0,77,4657.0,square4,f,0.007,3,V,8.0
V8,70.0,59.0,65.0,49.0,73.0,73,4730.0,square4,f,0.102,3,V,8.0
V8,71.0,60.0,64.0,49.0,79.0,79,4809.0,square4,f,0.049,3,V,8.0
V8,72.0,96.0,68.0,78.0,67.0,67,4876.0,square4,f,0.145,3,V,8.0
V8,73.0,96.0,68.0,79.0,64.0,96,4972.0,square1,i,0.025,0,V,8.0
V8,74.0,92.0,67.0,81.0,62.0,92,5064.0,square1,i,0.02,0,V,8.0
V8,75.0,96.0,72.0,83.0,62.0,96,5160.0,square1,i,0.031,0,V,8.0
V8,76.0,94.0,70.0,77.0,57.0,94,5254.0,square1,i,0.045,0,V,8.0
V8,77.0,91.0,68.0,81.0,59.0,91,5345.0,square1,i,0.095,0,V,8.0
V8,78.0,90.0,73.0,80.0,63.0,90,5435.0,square1,i,0.123,0,V,8.0
V8,79.0,90.0,73.0,83.0,61.0,90,5525.0,square1,i,0.136,0,V,8.0
V8,80.0,95.0,75.0,81.0,66.0,95,5620.0,square1,i,0.118,0,V,8.0
V8,81.0,92.0,72.0,81.0,57.0,92,5712.0,square1,i,0.128,0,V,8.0
V8,82.0,91.0,71.0,80.0,61.0,91,5803.0,square1,i,0.139,0,V,8.0
V8,83.0,90.0,66.0,83.0,62.0,90,5893.0,square1,i,0.016,0,V,8.0
V8,84.0,93.0,67.0,87.0,65.0,93,5986.0,square1,i,0.006,0,V,8.0
V8,85.0,85.0,70.0,80.0,62.0,85,6071.0,square1,i,0.168,0,V,8.0
V8,86.0,84.0,72.0,85.0,62.0,85,6156.0,square3,r,0.136,2,V,8.0
V8,87.0,91.0,68.0,82.0,65.0,82,6238.0,square3,r,0.015,2,V,8.0
V8,88.0,93.0,67.0,83.0,61.0,93,6331.0,square1,i,0.129,0,V,8.0
V8,89.0,95.0,68.0,78.0,66.0,95,6426.0,square1,i,0.07,0,V,8.0
V8,90.0,91.0,73.0,80.0,60.0,91,6517.0,square1,i,0.104,0,V,8.0
V8,91.0,93.0,68.0,81.0,64.0,93,6610.0,square1,i,0.129,0,V,8.0
V8,92.0,90.0,75.0,82.0,67.0,90,6700.0,square1,i,0.012,0,V,8.0
V8,93.0,92.0,70.0,82.0,66.0,92,6792.0,square1,i,0.026,0,V,8.0
V8,94.0,90.0,71.0,78.0,63.0,90,6882.0,square1,i,0.053,0,V,8.0
V8,95.0,88.0,65.0,78.0,63.0,88,6970.0,square1,i,0.005,0,V,8.0
V8,96.0,89.0,72.0,85.0,62.0,72,7042.0,square2,j,0.055,1,V,8.0
V8,97.0,92.0,72.0,77.0,67.0,67,7109.0,square4,f,0.08,3,V,8.0
V8,98.0,86.0,63.0,82.0,62.0,86,7195.0,square1,i,0.075,0,V,8.0
V8,99.0,90.0,66.0,75.0,61.0,90,7285.0,square1,i,0.033,0,V,8.0
NS10,0.0,61.0,42.0,19.0,80.0,42,42.0,square2,r,1.433,1,N,10.0
NS10,1.0,62.0,41.0,25.0,78.0,78,120.0,square4,i,0.105,3,N,10.0
NS10,2.0,64.0,42.0,22.0,80.0,64,184.0,square1,j,0.29,0,N,10.0
NS10,3.0,66.0,50.0,21.0,73.0,21,205.0,square3,f,0.126,2,N,10.0
NS10,4.0,65.0,48.0,19.0,80.0,80,285.0,square4,i,0.05,3,N,10.0
NS10,5.0,66.0,48.0,23.0,75.0,75,360.0,square4,i,0.002,3,N,10.0
NS10,6.0,60.0,47.0,26.0,77.0,77,437.0,square4,i,0.075,3,N,10.0
NS10,7.0,66.0,43.0,25.0,81.0,81,518.0,square4,i,0.086,3,N,10.0
NS10,8.0,72.0,42.0,23.0,80.0,80,598.0,square4,i,0.151,3,N,10.0
NS10,9.0,66.0,45.0,21.0,81.0,81,679.0,square4,i,0.156,3,N,10.0
NS10,10.0,69.0,46.0,29.0,77.0,77,756.0,square4,i,0.149,3,N,10.0
NS10,11.0,68.0,44.0,27.0,70.0,68,824.0,square1,j,0.085,0,N,10.0
NS10,12.0,68.0,46.0,27.0,65.0,46,870.0,square2,r,0.241,1,N,10.0
NS10,13.0,67.0,50.0,23.0,65.0,23,893.0,square3,f,0.007,2,N,10.0
NS10,14.0,67.0,49.0,31.0,61.0,61,954.0,square4,i,0.049,3,N,10.0
NS10,15.0,71.0,51.0,28.0,69.0,69,1023.0,square4,i,0.071,3,N,10.0
NS10,16.0,71.0,48.0,25.0,64.0,64,1087.0,square4,i,0.013,3,N,10.0
NS10,17.0,68.0,48.0,25.0,60.0,60,1147.0,square4,i,0.174,3,N,10.0
NS10,18.0,68.0,49.0,23.0,66.0,68,1215.0,square1,j,0.066,0,N,10.0
NS10,19.0,67.0,51.0,23.0,64.0,67,1282.0,square1,j,0.038,0,N,10.0
NS10,20.0,65.0,54.0,29.0,58.0,65,1347.0,square1,j,0.132,0,N,10.0
NS10,21.0,61.0,58.0,22.0,61.0,61,1408.0,square4,i,0.039,3,N,10.0
NS10,22.0,67.0,51.0,23.0,60.0,67,1475.0,square1,j,0.032,0,N,10.0
NS10,23.0,65.0,57.0,22.0,60.0,65,1540.0,square1,j,0.042,0,N,10.0
NS10,24.0,67.0,58.0,26.0,56.0,58,1598.0,square2,r,0.206,1,N,10.0
NS10,25.0,70.0,67.0,26.0,60.0,70,1668.0,square1,j,0.043,0,N,10.0
NS10,26.0,71.0,58.0,24.0,55.0,24,1692.0,square3,f,0.115,2,N,10.0
NS10,27.0,74.0,57.0,24.0,59.0,74,1766.0,square1,j,0.094,0,N,10.0
NS10,28.0,76.0,62.0,24.0,56.0,76,1842.0,square1,j,0.046,0,N,10.0
NS10,29.0,78.0,66.0,21.0,61.0,78,1920.0,square1,j,0.029,0,N,10.0
NS10,30.0,74.0,62.0,20.0,52.0,74,1994.0,square1,j,0.161,0,N,10.0
NS10,31.0,74.0,63.0,21.0,53.0,74,2068.0,square1,j,0.082,0,N,10.0
NS10,32.0,77.0,62.0,19.0,50.0,77,2145.0,square1,j,0.013,0,N,10.0
NS10,33.0,74.0,63.0,21.0,50.0,74,2219.0,square1,j,0.105,0,N,10.0
NS10,34.0,69.0,64.0,16.0,47.0,47,2266.0,square4,i,0.938,3,N,10.0
NS10,35.0,68.0,60.0,14.0,51.0,68,2334.0,square1,j,0.116,0,N,10.0
NS10,36.0,76.0,59.0,13.0,52.0,59,2393.0,square2,r,0.131,1,N,10.0
NS10,37.0,71.0,60.0,16.0,50.0,16,2409.0,square3,f,0.057,2,N,10.0
NS10,38.0,70.0,56.0,27.0,49.0,70,2479.0,square1,j,0.137,0,N,10.0
NS10,39.0,75.0,59.0,22.0,49.0,75,2554.0,square1,j,0.104,0,N,10.0
NS10,40.0,70.0,56.0,27.0,51.0,70,2624.0,square1,j,0.072,0,N,10.0
NS10,41.0,73.0,57.0,24.0,54.0,73,2697.0,square1,j,0.122,0,N,10.0
NS10,42.0,70.0,58.0,24.0,51.0,70,2767.0,square1,j,0.278,0,N,10.0
NS10,43.0,70.0,60.0,26.0,45.0,70,2837.0,square1,j,0.001,0,N,10.0
NS10,44.0,68.0,58.0,27.0,53.0,68,2905.0,square1,j,0.178,0,N,10.0
NS10,45.0,70.0,61.0,31.0,49.0,70,2975.0,square1,j,0.076,0,N,10.0
NS10,46.0,65.0,60.0,29.0,43.0,65,3040.0,square1,j,0.154,0,N,10.0
NS10,47.0,65.0,61.0,32.0,44.0,65,3105.0,square1,j,0.081,0,N,10.0
NS10,48.0,67.0,58.0,31.0,46.0,67,3172.0,square1,j,0.022,0,N,10.0
NS10,49.0,76.0,55.0,38.0,43.0,76,3248.0,square1,j,0.122,0,N,10.0
NS10,50.0,74.0,65.0,36.0,40.0,74,3322.0,square1,j,0.125,0,N,10.0
NS10,51.0,74.0,58.0,34.0,40.0,74,3396.0,square1,j,0.063,0,N,10.0
NS10,52.0,69.0,65.0,28.0,43.0,69,3465.0,square1,j,0.035,0,N,10.0
NS10,53.0,69.0,65.0,32.0,40.0,69,3534.0,square1,j,0.0,0,N,10.0
NS10,54.0,72.0,61.0,32.0,41.0,72,3606.0,square1,j,0.177,0,N,10.0
NS10,55.0,65.0,64.0,36.0,33.0,65,3671.0,square1,j,0.085,0,N,10.0
NS10,56.0,75.0,64.0,37.0,37.0,75,3746.0,square1,j,0.122,0,N,10.0
NS10,57.0,72.0,62.0,36.0,38.0,72,3818.0,square1,j,0.102,0,N,10.0
NS10,58.0,63.0,68.0,38.0,33.0,63,3881.0,square1,j,0.165,0,N,10.0
NS10,59.0,65.0,64.0,43.0,34.0,65,3946.0,square1,j,0.184,0,N,10.0
NS10,60.0,62.0,64.0,51.0,40.0,62,4008.0,square1,j,0.092,0,N,10.0
NS10,61.0,61.0,65.0,45.0,38.0,61,4069.0,square1,j,0.091,0,N,10.0
NS10,62.0,66.0,63.0,41.0,37.0,66,4135.0,square1,j,0.137,0,N,10.0
NS10,63.0,67.0,62.0,45.0,41.0,41,4176.0,square4,i,0.144,3,N,10.0
NS10,64.0,72.0,60.0,44.0,36.0,72,4248.0,square1,j,0.068,0,N,10.0
NS10,65.0,73.0,65.0,42.0,39.0,65,4313.0,square2,r,0.096,1,N,10.0
NS10,66.0,72.0,67.0,45.0,43.0,45,4358.0,square3,f,0.091,2,N,10.0
NS10,67.0,66.0,70.0,44.0,40.0,66,4424.0,square1,j,0.046,0,N,10.0
NS10,68.0,61.0,69.0,45.0,44.0,61,4485.0,square1,j,0.062,0,N,10.0
NS10,69.0,64.0,68.0,42.0,43.0,64,4549.0,square1,j,0.168,0,N,10.0
NS10,70.0,66.0,72.0,41.0,42.0,66,4615.0,square1,j,0.067,0,N,10.0
NS10,71.0,64.0,72.0,46.0,45.0,64,4679.0,square1,j,0.333,0,N,10.0
NS10,72.0,64.0,69.0,44.0,39.0,39,4718.0,square4,i,0.08,3,N,10.0
NS10,73.0,60.0,74.0,48.0,45.0,74,4792.0,square2,r,0.326,1,N,10.0
NS10,74.0,57.0,75.0,48.0,41.0,75,4867.0,square2,r,0.13,1,N,10.0
NS10,75.0,66.0,75.0,46.0,40.0,75,4942.0,square2,r,0.028,1,N,10.0
NS10,76.0,63.0,77.0,46.0,40.0,77,5019.0,square2,r,0.216,1,N,10.0
NS10,77.0,62.0,74.0,43.0,34.0,74,5093.0,square2,r,0.282,1,N,10.0
NS10,78.0,60.0,71.0,48.0,33.0,71,5164.0,square2,r,0.029,1,N,10.0
NS10,79.0,63.0,68.0,47.0,29.0,63,5227.0,square1,j,0.106,0,N,10.0
NS10,80.0,54.0,71.0,42.0,32.0,71,5298.0,square2,r,0.171,1,N,10.0
NS10,81.0,52.0,72.0,44.0,30.0,44,5342.0,square3,f,0.142,2,N,10.0
NS10,82.0,51.0,77.0,41.0,31.0,77,5419.0,square2,r,0.076,1,N,10.0
NS10,83.0,52.0,63.0,41.0,35.0,63,5482.0,square2,r,0.112,1,N,10.0
NS10,84.0,48.0,70.0,37.0,34.0,70,5552.0,square2,r,0.226,1,N,10.0
NS10,85.0,51.0,73.0,38.0,30.0,73,5625.0,square2,r,0.036,1,N,10.0
NS10,86.0,55.0,79.0,45.0,27.0,79,5704.0,square2,r,0.114,1,N,10.0
NS10,87.0,54.0,83.0,47.0,21.0,83,5787.0,square2,r,0.476,1,N,10.0
NS10,88.0,59.0,78.0,45.0,21.0,78,5865.0,square2,r,0.043,1,N,10.0
NS10,89.0,60.0,74.0,45.0,21.0,74,5939.0,square2,r,0.783,1,N,10.0
NS10,90.0,55.0,71.0,50.0,18.0,71,6010.0,square2,r,0.126,1,N,10.0
NS10,91.0,56.0,71.0,46.0,14.0,71,6081.0,square2,r,0.092,1,N,10.0
NS10,92.0,59.0,70.0,46.0,20.0,70,6151.0,square2,r,0.192,1,N,10.0
NS10,93.0,65.0,72.0,46.0,21.0,65,6216.0,square1,j,0.127,0,N,10.0
NS10,94.0,63.0,68.0,46.0,20.0,20,6236.0,square4,i,1.002,3,N,10.0
NS10,95.0,69.0,70.0,48.0,22.0,48,6284.0,square3,f,0.091,2,N,10.0
NS10,96.0,68.0,69.0,45.0,27.0,69,6353.0,square2,r,0.024,1,N,10.0
NS10,97.0,74.0,69.0,43.0,35.0,69,6422.0,square2,r,0.143,1,N,10.0
NS10,98.0,73.0,68.0,43.0,30.0,68,6490.0,square2,r,0.124,1,N,10.0
NS10,99.0,70.0,61.0,39.0,32.0,61,6551.0,square2,r,0.327,1,N,10.0
NS12,0.0,80.0,24.0,40.0,79.0,80,80.0,square1,r,1.253,0,N,12.0
NS12,1.0,78.0,28.0,44.0,78.0,44,124.0,square3,i,0.106,2,N,12.0
NS12,2.0,77.0,28.0,37.0,82.0,82,206.0,square4,j,0.154,3,N,12.0
NS12,3.0,76.0,33.0,39.0,82.0,33,239.0,square2,f,0.059,1,N,12.0
NS12,4.0,79.0,37.0,34.0,78.0,78,317.0,square4,j,0.001,3,N,12.0
NS12,5.0,83.0,33.0,28.0,81.0,83,400.0,square1,r,0.018,0,N,12.0
NS12,6.0,77.0,39.0,33.0,80.0,77,477.0,square1,r,0.04,0,N,12.0
NS12,7.0,77.0,40.0,25.0,85.0,85,562.0,square4,j,0.055,3,N,12.0
NS12,8.0,77.0,40.0,29.0,87.0,87,649.0,square4,j,0.129,3,N,12.0
NS12,9.0,70.0,42.0,29.0,88.0,88,737.0,square4,j,0.181,3,N,12.0
NS12,10.0,65.0,47.0,31.0,86.0,86,823.0,square4,j,0.064,3,N,12.0
NS12,11.0,67.0,46.0,26.0,84.0,67,890.0,square1,r,0.042,0,N,12.0
NS12,12.0,67.0,36.0,26.0,84.0,26,916.0,square3,i,0.017,2,N,12.0
NS12,13.0,69.0,33.0,23.0,82.0,82,998.0,square4,j,0.028,3,N,12.0
NS12,14.0,66.0,35.0,20.0,81.0,81,1079.0,square4,j,0.122,3,N,12.0
NS12,15.0,66.0,30.0,23.0,78.0,78,1157.0,square4,j,0.073,3,N,12.0
NS12,16.0,69.0,28.0,17.0,74.0,69,1226.0,square1,r,0.0,0,N,12.0
NS12,17.0,66.0,32.0,20.0,78.0,78,1304.0,square4,j,0.178,3,N,12.0
NS12,18.0,60.0,33.0,26.0,76.0,76,1380.0,square4,j,0.052,3,N,12.0
NS12,19.0,63.0,37.0,23.0,76.0,76,1456.0,square4,j,0.182,3,N,12.0
NS12,20.0,59.0,36.0,24.0,78.0,78,1534.0,square4,j,0.21,3,N,12.0
NS12,21.0,59.0,35.0,25.0,79.0,79,1613.0,square4,j,0.026,3,N,12.0
NS12,22.0,61.0,37.0,26.0,88.0,88,1701.0,square4,j,0.0,3,N,12.0
NS12,23.0,61.0,37.0,25.0,83.0,83,1784.0,square4,j,0.055,3,N,12.0
NS12,24.0,61.0,39.0,26.0,85.0,85,1869.0,square4,j,0.112,3,N,12.0
NS12,25.0,63.0,30.0,29.0,77.0,77,1946.0,square4,j,0.321,3,N,12.0
NS12,26.0,58.0,39.0,29.0,83.0,83,2029.0,square4,j,0.066,3,N,12.0
NS12,27.0,60.0,34.0,32.0,85.0,85,2114.0,square4,j,0.47,3,N,12.0
NS12,28.0,63.0,32.0,35.0,77.0,77,2191.0,square4,j,0.001,3,N,12.0
NS12,29.0,61.0,35.0,23.0,79.0,79,2270.0,square4,j,0.116,3,N,12.0
NS12,30.0,57.0,27.0,30.0,69.0,69,2339.0,square4,j,0.056,3,N,12.0
NS12,31.0,64.0,29.0,26.0,69.0,99999,2339.0,invalid,,,-1,N,12.0
NS12,32.0,65.0,29.0,33.0,69.0,69,2408.0,square4,j,1.45,3,N,12.0
NS12,33.0,68.0,29.0,33.0,73.0,73,2481.0,square4,j,0.142,3,N,12.0
NS12,34.0,69.0,29.0,29.0,67.0,69,2550.0,square1,r,0.027,0,N,12.0
NS12,35.0,66.0,32.0,30.0,61.0,30,2580.0,square3,i,0.626,2,N,12.0
NS12,36.0,64.0,27.0,26.0,58.0,27,2607.0,square2,f,0.041,1,N,12.0
NS12,37.0,65.0,32.0,27.0,67.0,67,2674.0,square4,j,0.087,3,N,12.0
NS12,38.0,63.0,32.0,30.0,64.0,64,2738.0,square4,j,0.131,3,N,12.0
NS12,39.0,65.0,30.0,30.0,70.0,70,2808.0,square4,j,0.736,3,N,12.0
NS12,40.0,71.0,37.0,32.0,69.0,69,2877.0,square4,j,0.083,3,N,12.0
NS12,41.0,66.0,45.0,37.0,69.0,69,2946.0,square4,j,0.031,3,N,12.0
NS12,42.0,75.0,42.0,35.0,65.0,65,3011.0,square4,j,0.012,3,N,12.0
NS12,43.0,82.0,39.0,35.0,57.0,57,3068.0,square4,j,0.128,3,N,12.0
NS12,44.0,81.0,34.0,34.0,61.0,61,3129.0,square4,j,0.107,3,N,12.0
NS12,45.0,74.0,33.0,36.0,59.0,59,3188.0,square4,j,0.004,3,N,12.0
NS12,46.0,77.0,32.0,40.0,57.0,57,3245.0,square4,j,0.142,3,N,12.0
NS12,47.0,79.0,32.0,39.0,60.0,79,3324.0,square1,r,0.03,0,N,12.0
NS12,48.0,80.0,28.0,34.0,62.0,80,3404.0,square1,r,0.626,0,N,12.0
NS12,49.0,76.0,23.0,37.0,64.0,76,3480.0,square1,r,0.026,0,N,12.0
NS12,50.0,75.0,25.0,37.0,65.0,37,3517.0,square3,i,1.349,2,N,12.0
NS12,51.0,74.0,25.0,39.0,70.0,25,3542.0,square2,f,0.0,1,N,12.0
NS12,52.0,79.0,26.0,40.0,73.0,79,3621.0,square1,r,0.126,0,N,12.0
NS12,53.0,75.0,25.0,33.0,69.0,75,3696.0,square1,r,0.064,0,N,12.0
NS12,54.0,79.0,25.0,38.0,68.0,79,3775.0,square1,r,0.042,0,N,12.0
NS12,55.0,81.0,22.0,34.0,68.0,81,3856.0,square1,r,0.001,0,N,12.0
NS12,56.0,72.0,29.0,39.0,69.0,72,3928.0,square1,r,0.066,0,N,12.0
NS12,57.0,72.0,28.0,38.0,73.0,72,4000.0,square1,r,0.076,0,N,12.0
NS12,58.0,69.0,25.0,32.0,71.0,69,4069.0,square1,r,0.016,0,N,12.0
NS12,59.0,75.0,30.0,33.0,69.0,69,4138.0,square4,j,0.131,3,N,12.0
NS12,60.0,68.0,28.0,39.0,68.0,68,4206.0,square1,r,0.009,0,N,12.0
NS12,61.0,69.0,32.0,37.0,60.0,60,4266.0,square4,j,0.107,3,N,12.0
NS12,62.0,63.0,37.0,39.0,55.0,63,4329.0,square1,r,0.14,0,N,12.0
NS12,63.0,63.0,38.0,43.0,54.0,54,4383.0,square4,j,0.116,3,N,12.0
NS12,64.0,60.0,30.0,35.0,55.0,35,4418.0,square3,i,0.1,2,N,12.0
NS12,65.0,60.0,37.0,34.0,55.0,37,4455.0,square2,f,0.06,1,N,12.0
NS12,66.0,61.0,40.0,35.0,51.0,61,4516.0,square1,r,0.136,0,N,12.0
NS12,67.0,65.0,37.0,35.0,53.0,65,4581.0,square1,r,0.139,0,N,12.0
NS12,68.0,62.0,33.0,38.0,50.0,62,4643.0,square1,r,0.096,0,N,12.0
NS12,69.0,56.0,41.0,29.0,54.0,56,4699.0,square1,r,0.169,0,N,12.0
NS12,70.0,56.0,39.0,30.0,57.0,56,4755.0,square1,r,0.011,0,N,12.0
NS12,71.0,61.0,40.0,33.0,64.0,61,4816.0,square1,r,0.484,0,N,12.0
NS12,72.0,51.0,42.0,35.0,67.0,67,4883.0,square4,j,0.062,3,N,12.0
NS12,73.0,56.0,39.0,39.0,67.0,67,4950.0,square4,j,0.0,3,N,12.0
NS12,74.0,50.0,38.0,40.0,63.0,63,5013.0,square4,j,0.161,3,N,12.0
NS12,75.0,52.0,37.0,41.0,67.0,52,5065.0,square1,r,0.137,0,N,12.0
NS12,76.0,47.0,40.0,46.0,67.0,46,5111.0,square3,i,0.585,2,N,12.0
NS12,77.0,45.0,35.0,47.0,67.0,67,5178.0,square4,j,0.072,3,N,12.0
NS12,78.0,44.0,38.0,52.0,66.0,44,5222.0,square1,r,0.108,0,N,12.0
NS12,79.0,41.0,38.0,52.0,64.0,64,5286.0,square4,j,0.032,3,N,12.0
NS12,80.0,36.0,41.0,57.0,58.0,58,5344.0,square4,j,0.001,3,N,12.0
NS12,81.0,36.0,42.0,66.0,63.0,42,5386.0,square2,f,0.094,1,N,12.0
NS12,82.0,35.0,44.0,65.0,62.0,65,5451.0,square3,i,0.348,2,N,12.0
NS12,83.0,37.0,42.0,70.0,65.0,70,5521.0,square3,i,0.025,2,N,12.0
NS12,84.0,35.0,39.0,72.0,58.0,72,5593.0,square3,i,0.124,2,N,12.0
NS12,85.0,30.0,40.0,62.0,55.0,62,5655.0,square3,i,0.152,2,N,12.0
NS12,86.0,36.0,40.0,65.0,59.0,65,5720.0,square3,i,0.346,2,N,12.0
NS12,87.0,31.0,41.0,67.0,57.0,57,5777.0,square4,j,0.085,3,N,12.0
NS12,88.0,30.0,50.0,67.0,52.0,30,5807.0,square1,r,0.001,0,N,12.0
NS12,89.0,28.0,41.0,69.0,54.0,28,5835.0,square1,r,0.108,0,N,12.0
NS12,90.0,29.0,41.0,61.0,57.0,61,5896.0,square3,i,0.047,2,N,12.0
NS12,91.0,30.0,36.0,59.0,54.0,59,5955.0,square3,i,0.15,2,N,12.0
NS12,92.0,28.0,29.0,60.0,54.0,54,6009.0,square4,j,0.102,3,N,12.0
NS12,93.0,30.0,35.0,62.0,52.0,52,6061.0,square4,j,0.11,3,N,12.0
NS12,94.0,30.0,36.0,60.0,56.0,36,6097.0,square2,f,0.145,1,N,12.0
NS12,95.0,29.0,33.0,63.0,60.0,60,6157.0,square4,j,0.008,3,N,12.0
NS12,96.0,29.0,30.0,59.0,59.0,59,6216.0,square3,i,0.001,2,N,12.0
NS12,97.0,31.0,35.0,61.0,61.0,61,6277.0,square3,i,0.168,2,N,12.0
NS12,98.0,31.0,40.0,67.0,58.0,67,6344.0,square3,i,0.099,2,N,12.0
NS12,99.0,33.0,37.0,65.0,67.0,65,6409.0,square3,i,0.058,2,N,12.0
NS3,0.0,52.0,26.0,68.0,52.0,52,52.0,square4,r,1.499,3,N,3.0
NS3,1.0,57.0,23.0,69.0,48.0,57,109.0,square1,i,0.561,0,N,3.0
NS3,2.0,59.0,26.0,70.0,52.0,26,135.0,square2,j,0.01,1,N,3.0
NS3,3.0,57.0,24.0,70.0,52.0,70,205.0,square3,f,0.059,2,N,3.0
NS3,4.0,59.0,30.0,74.0,49.0,74,279.0,square3,f,0.093,2,N,3.0
NS3,5.0,55.0,24.0,67.0,51.0,67,346.0,square3,f,0.072,2,N,3.0
NS3,6.0,54.0,27.0,73.0,55.0,73,419.0,square3,f,0.129,2,N,3.0
NS3,7.0,55.0,28.0,66.0,43.0,66,485.0,square3,f,0.012,2,N,3.0
NS3,8.0,57.0,30.0,65.0,45.0,65,550.0,square3,f,0.017,2,N,3.0
NS3,9.0,53.0,33.0,54.0,37.0,54,604.0,square3,f,0.074,2,N,3.0
NS3,10.0,46.0,27.0,54.0,43.0,46,650.0,square1,i,0.018,0,N,3.0
NS3,11.0,48.0,31.0,58.0,51.0,51,701.0,square4,r,0.003,3,N,3.0
NS3,12.0,50.0,27.0,54.0,53.0,27,728.0,square2,j,0.002,1,N,3.0
NS3,13.0,49.0,28.0,62.0,50.0,62,790.0,square3,f,0.052,2,N,3.0
NS3,14.0,53.0,28.0,62.0,52.0,62,852.0,square3,f,0.034,2,N,3.0
NS3,15.0,52.0,25.0,57.0,57.0,57,909.0,square3,f,0.035,2,N,3.0
NS3,16.0,48.0,29.0,56.0,56.0,56,965.0,square3,f,0.016,2,N,3.0
NS3,17.0,39.0,21.0,58.0,56.0,58,1023.0,square3,f,0.037,2,N,3.0
NS3,18.0,40.0,23.0,58.0,60.0,58,1081.0,square3,f,0.124,2,N,3.0
NS3,19.0,40.0,26.0,63.0,58.0,63,1144.0,square3,f,0.102,2,N,3.0
NS3,20.0,46.0,24.0,60.0,56.0,60,1204.0,square3,f,0.144,2,N,3.0
NS3,21.0,42.0,27.0,61.0,55.0,61,1265.0,square3,f,0.042,2,N,3.0
NS3,22.0,45.0,26.0,62.0,56.0,45,1310.0,square1,i,0.087,0,N,3.0
NS3,23.0,39.0,21.0,64.0,60.0,60,1370.0,square4,r,0.108,3,N,3.0
NS3,24.0,44.0,21.0,59.0,64.0,64,1434.0,square4,r,0.015,3,N,3.0
NS3,25.0,44.0,22.0,58.0,65.0,65,1499.0,square4,r,0.041,3,N,3.0
NS3,26.0,42.0,26.0,60.0,62.0,60,1559.0,square3,f,0.158,2,N,3.0
NS3,27.0,38.0,18.0,55.0,67.0,67,1626.0,square4,r,0.017,3,N,3.0
NS3,28.0,41.0,23.0,56.0,60.0,60,1686.0,square4,r,0.083,3,N,3.0
NS3,29.0,38.0,16.0,52.0,66.0,16,1702.0,square2,j,0.141,1,N,3.0
NS3,30.0,36.0,13.0,61.0,64.0,64,1766.0,square4,r,0.047,3,N,3.0
NS3,31.0,42.0,13.0,54.0,63.0,63,1829.0,square4,r,0.071,3,N,3.0
NS3,32.0,38.0,18.0,50.0,62.0,62,1891.0,square4,r,0.25,3,N,3.0
NS3,33.0,29.0,20.0,51.0,64.0,51,1942.0,square3,f,0.128,2,N,3.0
NS3,34.0,32.0,21.0,45.0,63.0,32,1974.0,square1,i,0.061,0,N,3.0
NS3,35.0,30.0,17.0,46.0,65.0,65,2039.0,square4,r,0.112,3,N,3.0
NS3,36.0,35.0,16.0,47.0,69.0,69,2108.0,square4,r,0.001,3,N,3.0
NS3,37.0,34.0,18.0,45.0,68.0,68,2176.0,square4,r,0.138,3,N,3.0
NS3,38.0,40.0,14.0,50.0,74.0,74,2250.0,square4,r,0.0,3,N,3.0
NS3,39.0,39.0,15.0,49.0,73.0,73,2323.0,square4,r,0.066,3,N,3.0
NS3,40.0,42.0,15.0,51.0,74.0,74,2397.0,square4,r,0.027,3,N,3.0
NS3,41.0,38.0,17.0,43.0,74.0,74,2471.0,square4,r,0.11,3,N,3.0
NS3,42.0,36.0,16.0,46.0,74.0,74,2545.0,square4,r,0.136,3,N,3.0
NS3,43.0,41.0,21.0,44.0,76.0,76,2621.0,square4,r,0.189,3,N,3.0
NS3,44.0,41.0,26.0,35.0,70.0,70,2691.0,square4,r,0.102,3,N,3.0
NS3,45.0,39.0,27.0,33.0,75.0,75,2766.0,square4,r,0.001,3,N,3.0
NS3,46.0,45.0,25.0,38.0,77.0,77,2843.0,square4,r,0.117,3,N,3.0
NS3,47.0,41.0,20.0,34.0,76.0,76,2919.0,square4,r,0.066,3,N,3.0
NS3,48.0,37.0,25.0,34.0,77.0,77,2996.0,square4,r,0.074,3,N,3.0
NS3,49.0,41.0,18.0,40.0,78.0,78,3074.0,square4,r,0.032,3,N,3.0
NS3,50.0,42.0,17.0,41.0,83.0,83,3157.0,square4,r,0.125,3,N,3.0
NS3,51.0,53.0,18.0,39.0,83.0,83,3240.0,square4,r,0.012,3,N,3.0
NS3,52.0,55.0,19.0,34.0,82.0,82,3322.0,square4,r,0.046,3,N,3.0
NS3,53.0,52.0,17.0,39.0,77.0,77,3399.0,square4,r,0.173,3,N,3.0
NS3,54.0,55.0,21.0,46.0,77.0,77,3476.0,square4,r,0.094,3,N,3.0
NS3,55.0,48.0,21.0,49.0,75.0,75,3551.0,square4,r,0.157,3,N,3.0
NS3,56.0,50.0,25.0,51.0,74.0,74,3625.0,square4,r,0.198,3,N,3.0
NS3,57.0,54.0,23.0,46.0,66.0,66,3691.0,square4,r,0.033,3,N,3.0
NS3,58.0,60.0,25.0,50.0,72.0,72,3763.0,square4,r,0.078,3,N,3.0
NS3,59.0,54.0,23.0,46.0,72.0,72,3835.0,square4,r,0.018,3,N,3.0
NS3,60.0,51.0,26.0,50.0,72.0,72,3907.0,square4,r,0.103,3,N,3.0
NS3,61.0,57.0,27.0,54.0,71.0,71,3978.0,square4,r,0.094,3,N,3.0
NS3,62.0,51.0,27.0,54.0,64.0,64,4042.0,square4,r,0.028,3,N,3.0
NS3,63.0,54.0,25.0,42.0,62.0,25,4067.0,square2,j,0.003,1,N,3.0
NS3,64.0,54.0,25.0,47.0,62.0,47,4114.0,square3,f,0.0,2,N,3.0
NS3,65.0,48.0,26.0,45.0,60.0,48,4162.0,square1,i,0.035,0,N,3.0
NS3,66.0,49.0,22.0,47.0,60.0,60,4222.0,square4,r,0.137,3,N,3.0
NS3,67.0,49.0,26.0,45.0,65.0,65,4287.0,square4,r,0.047,3,N,3.0
NS3,68.0,54.0,26.0,47.0,67.0,67,4354.0,square4,r,0.014,3,N,3.0
NS3,69.0,48.0,22.0,45.0,56.0,56,4410.0,square4,r,0.089,3,N,3.0
NS3,70.0,55.0,26.0,48.0,61.0,61,4471.0,square4,r,0.144,3,N,3.0
NS3,71.0,55.0,29.0,43.0,60.0,60,4531.0,square4,r,0.028,3,N,3.0
NS3,72.0,56.0,30.0,43.0,51.0,51,4582.0,square4,r,0.15,3,N,3.0
NS3,73.0,55.0,27.0,47.0,56.0,47,4629.0,square3,f,0.045,2,N,3.0
NS3,74.0,63.0,26.0,44.0,55.0,63,4692.0,square1,i,0.766,0,N,3.0
NS3,75.0,61.0,34.0,45.0,62.0,61,4753.0,square1,i,0.075,0,N,3.0
NS3,76.0,55.0,28.0,45.0,62.0,28,4781.0,square2,j,0.052,1,N,3.0
NS3,77.0,58.0,31.0,53.0,66.0,58,4839.0,square1,i,0.127,0,N,3.0
NS3,78.0,55.0,29.0,51.0,60.0,55,4894.0,square1,i,0.17,0,N,3.0
NS3,79.0,51.0,29.0,52.0,68.0,51,4945.0,square1,i,0.124,0,N,3.0
NS3,80.0,55.0,31.0,48.0,59.0,59,5004.0,square4,r,0.007,3,N,3.0
NS3,81.0,56.0,38.0,56.0,64.0,56,5060.0,square3,f,0.064,2,N,3.0
NS3,82.0,54.0,27.0,54.0,55.0,54,5114.0,square3,f,0.075,2,N,3.0
NS3,83.0,62.0,30.0,49.0,58.0,58,5172.0,square4,r,0.129,3,N,3.0
NS3,84.0,64.0,24.0,47.0,62.0,64,5236.0,square1,i,0.035,0,N,3.0
NS3,85.0,65.0,23.0,54.0,63.0,65,5301.0,square1,i,0.1,0,N,3.0
NS3,86.0,68.0,25.0,56.0,65.0,68,5369.0,square1,i,0.148,0,N,3.0
NS3,87.0,65.0,22.0,55.0,60.0,65,5434.0,square1,i,0.065,0,N,3.0
NS3,88.0,64.0,20.0,58.0,65.0,64,5498.0,square1,i,0.024,0,N,3.0
NS3,89.0,68.0,13.0,62.0,64.0,68,5566.0,square1,i,0.132,0,N,3.0
NS3,90.0,72.0,13.0,52.0,64.0,72,5638.0,square1,i,0.074,0,N,3.0
NS3,91.0,67.0,20.0,52.0,69.0,67,5705.0,square1,i,0.067,0,N,3.0
NS3,92.0,72.0,21.0,58.0,64.0,72,5777.0,square1,i,0.16,0,N,3.0
NS3,93.0,73.0,16.0,54.0,67.0,73,5850.0,square1,i,0.042,0,N,3.0
NS3,94.0,69.0,17.0,51.0,64.0,69,5919.0,square1,i,0.0,0,N,3.0
NS3,95.0,62.0,19.0,60.0,62.0,62,5981.0,square1,i,0.0,0,N,3.0
NS3,96.0,67.0,15.0,56.0,67.0,67,6048.0,square4,r,0.152,3,N,3.0
NS3,97.0,61.0,17.0,58.0,62.0,61,6109.0,square1,i,0.049,0,N,3.0
NS3,98.0,59.0,13.0,58.0,58.0,58,6167.0,square4,r,0.152,3,N,3.0
NS3,99.0,62.0,15.0,51.0,60.0,60,6227.0,square4,r,0.16,3,N,3.0
