block,Trial,square1,square2,square3,square4,currPoints,totalPoints,square,choiceKey.keys,choiceKey.rt,armNum,blockType,blockNum
prac,0.0,100.0,0.0,0.0,0.0,99999,0.0,invalid,,,-1,p,0.0
prac,1.0,100.0,0.0,0.0,0.0,99999,0.0,invalid,,,-1,p,0.0
prac,2.0,100.0,0.0,0.0,0.0,99999,0.0,invalid,,,-1,p,0.0
prac,3.0,100.0,0.0,0.0,0.0,99999,0.0,invalid,,,-1,p,0.0
prac,4.0,100.0,0.0,0.0,0.0,99999,0.0,invalid,,,-1,p,0.0
prac,5.0,100.0,0.0,0.0,0.0,100,100.0,square1,,,0,p,0.0
prac,6.0,100.0,0.0,0.0,0.0,99999,100.0,invalid,,,-1,p,0.0
prac,7.0,100.0,0.0,0.0,0.0,100,200.0,square1,,,0,p,0.0
prac,8.0,100.0,0.0,0.0,0.0,100,300.0,square1,,,0,p,0.0
prac,9.0,100.0,0.0,0.0,0.0,100,400.0,square1,,,0,p,0.0
V6,0.0,43.0,59.0,68.0,49.0,49,49.0,square4,r,0.5999,3,V,6.0
V6,1.0,43.0,62.0,71.0,50.0,71,120.0,square3,f,0.3844,2,V,6.0
V6,2.0,48.0,61.0,72.0,51.0,61,181.0,square2,i,0.1869,1,V,6.0
V6,3.0,46.0,55.0,71.0,51.0,71,252.0,square3,f,0.3217,2,V,6.0
V6,4.0,44.0,61.0,74.0,48.0,44,296.0,square1,j,0.0849,0,V,6.0
V6,5.0,45.0,62.0,70.0,51.0,70,366.0,square3,f,0.2848,2,V,6.0
V6,6.0,42.0,67.0,73.0,46.0,73,439.0,square3,f,0.2293,2,V,6.0
V6,7.0,44.0,63.0,71.0,53.0,71,510.0,square3,f,0.2436,2,V,6.0
V6,8.0,41.0,62.0,73.0,52.0,73,583.0,square3,f,0.2491,2,V,6.0
V6,9.0,46.0,59.0,72.0,54.0,72,655.0,square3,f,0.2542,2,V,6.0
V6,10.0,45.0,59.0,70.0,53.0,70,725.0,square3,f,0.2823,2,V,6.0
V6,11.0,45.0,60.0,70.0,49.0,70,795.0,square3,f,0.1771,2,V,6.0
V6,12.0,45.0,66.0,64.0,48.0,66,861.0,square2,i,0.1996,1,V,6.0
V6,13.0,45.0,61.0,69.0,47.0,45,906.0,square1,j,0.2555,0,V,6.0
V6,14.0,47.0,60.0,71.0,56.0,71,977.0,square3,f,0.5607,2,V,6.0
V6,15.0,46.0,64.0,67.0,52.0,52,1029.0,square4,r,0.3808,3,V,6.0
V6,16.0,50.0,60.0,69.0,54.0,69,1098.0,square3,f,0.0021,2,V,6.0
V6,17.0,43.0,60.0,70.0,53.0,70,1168.0,square3,f,0.1075,2,V,6.0
V6,18.0,46.0,63.0,72.0,55.0,55,1223.0,square4,r,0.4503,3,V,6.0
V6,19.0,46.0,65.0,73.0,51.0,73,1296.0,square3,f,0.1005,2,V,6.0
V6,20.0,44.0,63.0,66.0,51.0,44,1340.0,square1,j,0.1822,0,V,6.0
V6,21.0,43.0,63.0,70.0,49.0,43,1383.0,square1,j,0.0647,0,V,6.0
V6,22.0,45.0,63.0,71.0,50.0,50,1433.0,square4,r,0.2156,3,V,6.0
V6,23.0,45.0,38.0,28.0,60.0,38,1471.0,square2,i,0.0214,1,V,6.0
V6,24.0,46.0,33.0,33.0,53.0,33,1504.0,square3,f,0.0738,2,V,6.0
V6,25.0,45.0,36.0,32.0,63.0,63,1567.0,square4,r,0.205,3,V,6.0
V6,26.0,52.0,37.0,28.0,57.0,52,1619.0,square1,j,0.2726,0,V,6.0
V6,27.0,45.0,33.0,30.0,62.0,30,1649.0,square3,f,0.2624,2,V,6.0
V6,28.0,43.0,37.0,24.0,51.0,51,1700.0,square4,r,0.0591,3,V,6.0
V6,29.0,48.0,39.0,34.0,61.0,48,1748.0,square1,j,0.2808,0,V,6.0
V6,30.0,48.0,44.0,35.0,59.0,59,1807.0,square4,r,0.0319,3,V,6.0
V6,31.0,50.0,39.0,34.0,53.0,39,1846.0,square2,i,0.1381,1,V,6.0
V6,32.0,44.0,33.0,33.0,54.0,54,1900.0,square4,r,0.1478,3,V,6.0
V6,33.0,48.0,37.0,30.0,56.0,48,1948.0,square1,j,0.2289,0,V,6.0
V6,34.0,52.0,37.0,27.0,59.0,27,1975.0,square3,f,0.239,2,V,6.0
V6,35.0,47.0,32.0,29.0,59.0,32,2007.0,square2,i,0.0172,1,V,6.0
V6,36.0,45.0,37.0,27.0,56.0,56,2063.0,square4,r,0.0382,3,V,6.0
V6,37.0,39.0,37.0,31.0,57.0,39,2102.0,square1,j,0.1159,0,V,6.0
V6,38.0,50.0,38.0,29.0,56.0,29,2131.0,square3,f,0.0021,2,V,6.0
V6,39.0,48.0,37.0,27.0,57.0,57,2188.0,square4,r,0.3849,3,V,6.0
V6,40.0,53.0,37.0,29.0,57.0,37,2225.0,square2,i,0.0586,1,V,6.0
V6,41.0,41.0,34.0,33.0,58.0,58,2283.0,square4,r,0.1555,3,V,6.0
V6,42.0,50.0,37.0,31.0,57.0,57,2340.0,square4,r,0.1809,3,V,6.0
V6,43.0,48.0,34.0,30.0,58.0,58,2398.0,square4,r,0.1931,3,V,6.0
V6,44.0,44.0,37.0,33.0,60.0,60,2458.0,square4,r,0.3038,3,V,6.0
V6,45.0,44.0,32.0,33.0,55.0,55,2513.0,square4,r,0.1955,3,V,6.0
V6,46.0,44.0,36.0,33.0,59.0,59,2572.0,square4,r,0.111,3,V,6.0
V6,47.0,42.0,34.0,29.0,52.0,52,2624.0,square4,r,0.2833,3,V,6.0
V6,48.0,46.0,41.0,28.0,60.0,60,2684.0,square4,r,0.3904,3,V,6.0
V6,49.0,46.0,40.0,27.0,55.0,46,2730.0,square1,j,0.275,0,V,6.0
V6,50.0,46.0,41.0,32.0,55.0,32,2762.0,square3,f,0.3091,2,V,6.0
V6,51.0,41.0,39.0,30.0,55.0,39,2801.0,square2,i,0.0048,1,V,6.0
V6,52.0,47.0,37.0,31.0,55.0,55,2856.0,square4,r,0.1082,3,V,6.0
V6,53.0,57.0,36.0,30.0,58.0,58,2914.0,square4,r,0.3815,3,V,6.0
V6,54.0,42.0,38.0,28.0,50.0,50,2964.0,square4,r,0.1685,3,V,6.0
V6,55.0,56.0,42.0,67.0,46.0,46,3010.0,square4,r,0.2829,3,V,6.0
V6,56.0,54.0,37.0,68.0,46.0,46,3056.0,square4,r,0.2731,3,V,6.0
V6,57.0,57.0,40.0,64.0,52.0,52,3108.0,square4,r,0.1554,3,V,6.0
V6,58.0,53.0,45.0,68.0,45.0,45,3153.0,square4,r,0.1364,3,V,6.0
V6,59.0,59.0,41.0,69.0,49.0,49,3202.0,square4,r,0.2678,3,V,6.0
V6,60.0,62.0,41.0,71.0,51.0,51,3253.0,square4,r,0.2417,3,V,6.0
V6,61.0,58.0,50.0,72.0,51.0,51,3304.0,square4,r,0.2139,3,V,6.0
V6,62.0,61.0,43.0,65.0,47.0,47,3351.0,square4,r,0.0317,3,V,6.0
V6,63.0,55.0,40.0,67.0,51.0,55,3406.0,square1,j,0.2308,0,V,6.0
V6,64.0,56.0,43.0,67.0,47.0,67,3473.0,square3,f,0.3429,2,V,6.0
V6,65.0,62.0,46.0,67.0,48.0,67,3540.0,square3,f,0.181,2,V,6.0
V6,66.0,55.0,44.0,67.0,48.0,67,3607.0,square3,f,0.0478,2,V,6.0
V6,67.0,61.0,46.0,70.0,49.0,70,3677.0,square3,f,0.1708,2,V,6.0
V6,68.0,63.0,41.0,72.0,46.0,72,3749.0,square3,f,0.8074,2,V,6.0
V6,69.0,59.0,41.0,68.0,48.0,68,3817.0,square3,f,0.57,2,V,6.0
V6,70.0,59.0,37.0,70.0,45.0,70,3887.0,square3,f,0.2647,2,V,6.0
V6,71.0,83.0,64.0,56.0,70.0,56,3943.0,square3,f,0.3267,2,V,6.0
V6,72.0,82.0,59.0,53.0,75.0,82,4025.0,square1,j,0.3209,0,V,6.0
V6,73.0,85.0,67.0,58.0,73.0,85,4110.0,square1,j,0.0509,0,V,6.0
V6,74.0,79.0,67.0,61.0,73.0,79,4189.0,square1,j,0.2563,0,V,6.0
V6,75.0,84.0,62.0,53.0,69.0,84,4273.0,square1,j,0.1052,0,V,6.0
V6,76.0,81.0,60.0,55.0,76.0,81,4354.0,square1,j,0.4053,0,V,6.0
V6,77.0,84.0,61.0,60.0,72.0,84,4438.0,square1,j,0.2327,0,V,6.0
V6,78.0,90.0,61.0,54.0,74.0,90,4528.0,square1,j,0.1942,0,V,6.0
V6,79.0,80.0,64.0,51.0,75.0,80,4608.0,square1,j,0.4909,0,V,6.0
V6,80.0,85.0,62.0,56.0,78.0,85,4693.0,square1,j,0.4655,0,V,6.0
V6,81.0,86.0,65.0,58.0,69.0,86,4779.0,square1,j,0.1912,0,V,6.0
V6,82.0,83.0,62.0,58.0,77.0,83,4862.0,square1,j,0.1721,0,V,6.0
V6,83.0,87.0,61.0,59.0,70.0,87,4949.0,square1,j,0.0008,0,V,6.0
V6,84.0,89.0,65.0,54.0,78.0,89,5038.0,square1,j,0.4798,0,V,6.0
V6,85.0,78.0,63.0,55.0,75.0,78,5116.0,square1,j,0.2778,0,V,6.0
V6,86.0,87.0,67.0,52.0,75.0,87,5203.0,square1,j,0.1882,0,V,6.0
V6,87.0,86.0,62.0,60.0,75.0,86,5289.0,square1,j,0.2466,0,V,6.0
V6,88.0,79.0,67.0,56.0,76.0,79,5368.0,square1,j,0.1405,0,V,6.0
V6,89.0,83.0,61.0,57.0,75.0,83,5451.0,square1,j,0.1882,0,V,6.0
V6,90.0,83.0,67.0,51.0,76.0,83,5534.0,square1,j,0.1682,0,V,6.0
V6,91.0,83.0,63.0,55.0,69.0,83,5617.0,square1,j,0.4376,0,V,6.0
V6,92.0,89.0,56.0,53.0,68.0,89,5706.0,square1,j,0.648,0,V,6.0
V6,93.0,84.0,61.0,59.0,74.0,84,5790.0,square1,j,0.2354,0,V,6.0
V6,94.0,77.0,58.0,58.0,76.0,77,5867.0,square1,j,0.761,0,V,6.0
V6,95.0,82.0,60.0,53.0,74.0,82,5949.0,square1,j,0.2508,0,V,6.0
V6,96.0,87.0,61.0,56.0,71.0,87,6036.0,square1,j,0.3147,0,V,6.0
V6,97.0,83.0,66.0,55.0,75.0,83,6119.0,square1,j,0.7147,0,V,6.0
V6,98.0,81.0,63.0,55.0,76.0,81,6200.0,square1,j,0.2354,0,V,6.0
V6,99.0,92.0,63.0,61.0,78.0,92,6292.0,square1,j,0.1358,0,V,6.0
V4,0.0,63.0,38.0,47.0,55.0,63,63.0,square1,r,0.998,0,V,4.0
V4,1.0,66.0,42.0,43.0,59.0,43,106.0,square3,j,0.1453,2,V,4.0
V4,2.0,66.0,39.0,57.0,59.0,39,145.0,square2,f,0.2867,1,V,4.0
V4,3.0,66.0,37.0,51.0,59.0,66,211.0,square1,r,0.1944,0,V,4.0
V4,4.0,69.0,37.0,50.0,55.0,69,280.0,square1,r,0.064,0,V,4.0
V4,5.0,64.0,44.0,46.0,62.0,62,342.0,square4,i,0.1338,3,V,4.0
V4,6.0,75.0,43.0,49.0,57.0,75,417.0,square1,r,0.0342,0,V,4.0
V4,7.0,62.0,41.0,52.0,59.0,62,479.0,square1,r,0.1288,0,V,4.0
V4,8.0,65.0,41.0,44.0,60.0,65,544.0,square1,r,0.1566,0,V,4.0
V4,9.0,68.0,35.0,44.0,64.0,68,612.0,square1,r,0.2391,0,V,4.0
V4,10.0,67.0,44.0,48.0,61.0,67,679.0,square1,r,0.1886,0,V,4.0
V4,11.0,61.0,40.0,48.0,56.0,61,740.0,square1,r,0.2148,0,V,4.0
V4,12.0,68.0,41.0,49.0,55.0,68,808.0,square1,r,0.1664,0,V,4.0
V4,13.0,63.0,42.0,47.0,60.0,63,871.0,square1,r,0.2565,0,V,4.0
V4,14.0,63.0,40.0,51.0,55.0,63,934.0,square1,r,0.1167,0,V,4.0
V4,15.0,62.0,41.0,52.0,62.0,62,996.0,square1,r,0.1354,0,V,4.0
V4,16.0,69.0,37.0,47.0,60.0,69,1065.0,square1,r,0.0613,0,V,4.0
V4,17.0,66.0,40.0,48.0,56.0,56,1121.0,square4,i,0.0194,3,V,4.0
V4,18.0,67.0,43.0,47.0,59.0,59,1180.0,square4,i,0.2522,3,V,4.0
V4,19.0,64.0,42.0,51.0,59.0,64,1244.0,square1,r,0.2083,0,V,4.0
V4,20.0,67.0,40.0,47.0,58.0,67,1311.0,square1,r,0.1249,0,V,4.0
V4,21.0,60.0,41.0,50.0,59.0,60,1371.0,square1,r,0.3202,0,V,4.0
V4,22.0,66.0,43.0,54.0,55.0,66,1437.0,square1,r,0.4159,0,V,4.0
V4,23.0,67.0,37.0,50.0,62.0,67,1504.0,square1,r,0.0013,0,V,4.0
V4,24.0,67.0,37.0,49.0,60.0,67,1571.0,square1,r,0.2435,0,V,4.0
V4,25.0,67.0,39.0,55.0,52.0,67,1638.0,square1,r,0.1036,0,V,4.0
V4,26.0,64.0,39.0,51.0,63.0,64,1702.0,square1,r,0.1253,0,V,4.0
V4,27.0,68.0,36.0,55.0,60.0,60,1762.0,square4,i,0.0677,3,V,4.0
V4,28.0,67.0,40.0,46.0,54.0,40,1802.0,square2,f,0.3351,1,V,4.0
V4,29.0,67.0,41.0,50.0,57.0,50,1852.0,square3,j,0.0602,2,V,4.0
V4,30.0,66.0,39.0,49.0,53.0,66,1918.0,square1,r,0.3906,0,V,4.0
V4,31.0,70.0,38.0,48.0,58.0,58,1976.0,square4,i,0.1537,3,V,4.0
V4,32.0,63.0,40.0,53.0,61.0,63,2039.0,square1,r,0.0582,0,V,4.0
V4,33.0,66.0,41.0,51.0,56.0,66,2105.0,square1,r,0.3267,0,V,4.0
V4,34.0,64.0,39.0,46.0,57.0,64,2169.0,square1,r,0.3018,0,V,4.0
V4,35.0,69.0,36.0,50.0,58.0,69,2238.0,square1,r,0.2375,0,V,4.0
V4,36.0,60.0,43.0,53.0,54.0,60,2298.0,square1,r,0.1475,0,V,4.0
V4,37.0,52.0,78.0,68.0,66.0,66,2364.0,square4,i,0.2786,3,V,4.0
V4,38.0,44.0,81.0,68.0,62.0,62,2426.0,square4,i,0.2003,3,V,4.0
V4,39.0,59.0,71.0,70.0,63.0,63,2489.0,square4,i,0.4241,3,V,4.0
V4,40.0,53.0,77.0,73.0,59.0,59,2548.0,square4,i,0.0933,3,V,4.0
V4,41.0,53.0,76.0,74.0,66.0,66,2614.0,square4,i,0.2766,3,V,4.0
V4,42.0,51.0,79.0,73.0,59.0,51,2665.0,square1,r,0.1763,0,V,4.0
V4,43.0,48.0,76.0,68.0,65.0,65,2730.0,square4,i,0.3572,3,V,4.0
V4,44.0,57.0,83.0,78.0,63.0,83,2813.0,square2,f,0.2481,1,V,4.0
V4,45.0,54.0,74.0,69.0,61.0,74,2887.0,square2,f,0.3042,1,V,4.0
V4,46.0,53.0,85.0,66.0,62.0,85,2972.0,square2,f,0.1665,1,V,4.0
V4,47.0,56.0,83.0,68.0,57.0,83,3055.0,square2,f,0.1267,1,V,4.0
V4,48.0,49.0,74.0,73.0,59.0,74,3129.0,square2,f,0.0921,1,V,4.0
V4,49.0,54.0,74.0,70.0,60.0,74,3203.0,square2,f,0.1428,1,V,4.0
V4,50.0,47.0,83.0,69.0,60.0,83,3286.0,square2,f,0.1213,1,V,4.0
V4,51.0,54.0,78.0,73.0,56.0,78,3364.0,square2,f,0.0892,1,V,4.0
V4,52.0,52.0,76.0,71.0,58.0,76,3440.0,square2,f,0.08,1,V,4.0
V4,53.0,51.0,82.0,76.0,63.0,82,3522.0,square2,f,0.2134,1,V,4.0
V4,54.0,57.0,76.0,69.0,64.0,76,3598.0,square2,f,0.1935,1,V,4.0
V4,55.0,49.0,75.0,68.0,59.0,75,3673.0,square2,f,0.1185,1,V,4.0
V4,56.0,55.0,81.0,66.0,65.0,66,3739.0,square3,j,0.1583,2,V,4.0
V4,57.0,58.0,80.0,72.0,63.0,80,3819.0,square2,f,0.3494,1,V,4.0
V4,58.0,49.0,81.0,66.0,62.0,81,3900.0,square2,f,0.2649,1,V,4.0
V4,59.0,57.0,78.0,73.0,59.0,78,3978.0,square2,f,0.0991,1,V,4.0
V4,60.0,48.0,79.0,66.0,59.0,79,4057.0,square2,f,0.2196,1,V,4.0
V4,61.0,53.0,80.0,72.0,60.0,80,4137.0,square2,f,0.2568,1,V,4.0
V4,62.0,53.0,79.0,70.0,61.0,79,4216.0,square2,f,0.0641,1,V,4.0
V4,63.0,81.0,66.0,90.0,66.0,66,4282.0,square2,f,0.1609,1,V,4.0
V4,64.0,80.0,64.0,85.0,76.0,76,4358.0,square4,i,0.0466,3,V,4.0
V4,65.0,77.0,61.0,92.0,74.0,77,4435.0,square1,r,0.3727,0,V,4.0
V4,66.0,89.0,65.0,91.0,73.0,73,4508.0,square4,i,0.2429,3,V,4.0
V4,67.0,86.0,64.0,92.0,70.0,86,4594.0,square1,r,0.0565,0,V,4.0
V4,68.0,82.0,60.0,91.0,77.0,82,4676.0,square1,r,0.4593,0,V,4.0
V4,69.0,78.0,69.0,90.0,70.0,78,4754.0,square1,r,0.0921,0,V,4.0
V4,70.0,85.0,64.0,95.0,73.0,85,4839.0,square1,r,0.1956,0,V,4.0
V4,71.0,85.0,61.0,88.0,69.0,85,4924.0,square1,r,0.2982,0,V,4.0
V4,72.0,86.0,63.0,87.0,75.0,86,5010.0,square1,r,0.1877,0,V,4.0
V4,73.0,86.0,69.0,92.0,70.0,86,5096.0,square1,r,0.2421,0,V,4.0
V4,74.0,81.0,62.0,90.0,69.0,81,5177.0,square1,r,0.2381,0,V,4.0
V4,75.0,83.0,66.0,88.0,74.0,83,5260.0,square1,r,0.1996,0,V,4.0
V4,76.0,80.0,64.0,92.0,75.0,80,5340.0,square1,r,0.4904,0,V,4.0
V4,77.0,81.0,65.0,91.0,74.0,81,5421.0,square1,r,0.4193,0,V,4.0
V4,78.0,78.0,70.0,89.0,73.0,78,5499.0,square1,r,0.2561,0,V,4.0
V4,79.0,84.0,66.0,85.0,75.0,84,5583.0,square1,r,0.2627,0,V,4.0
V4,80.0,83.0,65.0,93.0,74.0,83,5666.0,square1,r,0.2639,0,V,4.0
V4,81.0,86.0,59.0,91.0,74.0,86,5752.0,square1,r,0.415,0,V,4.0
V4,82.0,87.0,64.0,92.0,73.0,87,5839.0,square1,r,0.2354,0,V,4.0
V4,83.0,83.0,68.0,86.0,70.0,83,5922.0,square1,r,0.2963,0,V,4.0
V4,84.0,82.0,62.0,87.0,73.0,82,6004.0,square1,r,0.2021,0,V,4.0
V4,85.0,85.0,61.0,90.0,70.0,85,6089.0,square1,r,0.2369,0,V,4.0
V4,86.0,84.0,66.0,97.0,71.0,84,6173.0,square1,r,0.1369,0,V,4.0
V4,87.0,82.0,64.0,87.0,71.0,82,6255.0,square1,r,0.2107,0,V,4.0
V4,88.0,80.0,67.0,93.0,72.0,80,6335.0,square1,r,0.0889,0,V,4.0
V4,89.0,78.0,64.0,92.0,75.0,78,6413.0,square1,r,0.1334,0,V,4.0
V4,90.0,75.0,66.0,88.0,72.0,72,6485.0,square4,i,0.0923,3,V,4.0
V4,91.0,82.0,59.0,91.0,76.0,76,6561.0,square4,i,0.1724,3,V,4.0
V4,92.0,84.0,62.0,91.0,70.0,70,6631.0,square4,i,0.1415,3,V,4.0
V4,93.0,80.0,61.0,94.0,76.0,76,6707.0,square4,i,0.0083,3,V,4.0
V4,94.0,83.0,64.0,88.0,72.0,72,6779.0,square4,i,0.2337,3,V,4.0
V4,95.0,82.0,60.0,94.0,69.0,60,6839.0,square2,f,0.1103,1,V,4.0
V4,96.0,84.0,63.0,92.0,72.0,92,6931.0,square3,j,0.214,2,V,4.0
V4,97.0,84.0,62.0,85.0,70.0,85,7016.0,square3,j,0.0168,2,V,4.0
V4,98.0,81.0,64.0,93.0,72.0,93,7109.0,square3,j,0.1964,2,V,4.0
V4,99.0,80.0,61.0,92.0,75.0,92,7201.0,square3,j,0.0099,2,V,4.0
V7,0.0,86.0,61.0,78.0,68.0,99999,0.0,invalid,,,-1,V,7.0
V7,1.0,95.0,62.0,79.0,70.0,62,62.0,square2,r,0.3633,1,V,7.0
V7,2.0,89.0,67.0,81.0,77.0,81,143.0,square3,f,0.1815,2,V,7.0
V7,3.0,90.0,56.0,85.0,72.0,72,215.0,square4,j,0.8037,3,V,7.0
V7,4.0,91.0,65.0,77.0,71.0,91,306.0,square1,i,0.2054,0,V,7.0
V7,5.0,91.0,58.0,84.0,72.0,91,397.0,square1,i,0.071,0,V,7.0
V7,6.0,94.0,65.0,87.0,72.0,94,491.0,square1,i,0.0656,0,V,7.0
V7,7.0,89.0,67.0,79.0,67.0,89,580.0,square1,i,0.2025,0,V,7.0
V7,8.0,91.0,65.0,84.0,68.0,91,671.0,square1,i,0.0594,0,V,7.0
V7,9.0,92.0,60.0,87.0,69.0,92,763.0,square1,i,0.0014,0,V,7.0
V7,10.0,90.0,67.0,81.0,76.0,90,853.0,square1,i,0.0017,0,V,7.0
V7,11.0,86.0,67.0,83.0,73.0,86,939.0,square1,i,0.1521,0,V,7.0
V7,12.0,90.0,62.0,80.0,72.0,90,1029.0,square1,i,0.0148,0,V,7.0
V7,13.0,84.0,60.0,88.0,71.0,84,1113.0,square1,i,0.3693,0,V,7.0
V7,14.0,95.0,64.0,80.0,70.0,95,1208.0,square1,i,0.0134,0,V,7.0
V7,15.0,86.0,60.0,81.0,70.0,86,1294.0,square1,i,0.215,0,V,7.0
V7,16.0,85.0,65.0,77.0,69.0,85,1379.0,square1,i,0.0223,0,V,7.0
V7,17.0,91.0,65.0,81.0,70.0,91,1470.0,square1,i,0.2062,0,V,7.0
V7,18.0,95.0,61.0,81.0,76.0,95,1565.0,square1,i,0.2758,0,V,7.0
V7,19.0,90.0,58.0,79.0,72.0,90,1655.0,square1,i,0.041,0,V,7.0
V7,20.0,94.0,68.0,80.0,79.0,94,1749.0,square1,i,0.2706,0,V,7.0
V7,21.0,92.0,66.0,82.0,70.0,92,1841.0,square1,i,0.0525,0,V,7.0
V7,22.0,92.0,64.0,83.0,72.0,92,1933.0,square1,i,0.1124,0,V,7.0
V7,23.0,91.0,68.0,82.0,73.0,91,2024.0,square1,i,0.1843,0,V,7.0
V7,24.0,87.0,71.0,82.0,72.0,87,2111.0,square1,i,0.1811,0,V,7.0
V7,25.0,91.0,68.0,90.0,74.0,91,2202.0,square1,i,0.076,0,V,7.0
V7,26.0,89.0,65.0,83.0,72.0,89,2291.0,square1,i,0.0016,0,V,7.0
V7,27.0,91.0,61.0,81.0,73.0,61,2352.0,square2,r,0.2761,1,V,7.0
V7,28.0,90.0,66.0,81.0,72.0,81,2433.0,square3,f,0.36,2,V,7.0
V7,29.0,89.0,67.0,77.0,71.0,71,2504.0,square4,j,0.2687,3,V,7.0
V7,30.0,95.0,68.0,84.0,71.0,95,2599.0,square1,i,0.2229,0,V,7.0
V7,31.0,95.0,61.0,81.0,70.0,95,2694.0,square1,i,0.1896,0,V,7.0
V7,32.0,89.0,65.0,82.0,75.0,89,2783.0,square1,i,0.1608,0,V,7.0
V7,33.0,77.0,50.0,80.0,61.0,77,2860.0,square1,i,0.2487,0,V,7.0
V7,34.0,76.0,54.0,78.0,61.0,76,2936.0,square1,i,0.4012,0,V,7.0
V7,35.0,71.0,51.0,80.0,64.0,71,3007.0,square1,i,0.4309,0,V,7.0
V7,36.0,75.0,51.0,80.0,62.0,51,3058.0,square2,r,0.264,1,V,7.0
V7,37.0,73.0,58.0,86.0,63.0,86,3144.0,square3,f,0.1768,2,V,7.0
V7,38.0,73.0,50.0,86.0,61.0,61,3205.0,square4,j,0.2683,3,V,7.0
V7,39.0,67.0,53.0,78.0,61.0,78,3283.0,square3,f,0.0903,2,V,7.0
V7,40.0,71.0,53.0,84.0,58.0,84,3367.0,square3,f,0.2821,2,V,7.0
V7,41.0,75.0,51.0,83.0,63.0,83,3450.0,square3,f,0.2415,2,V,7.0
V7,42.0,69.0,48.0,87.0,63.0,87,3537.0,square3,f,0.1785,2,V,7.0
V7,43.0,70.0,58.0,81.0,60.0,81,3618.0,square3,f,0.235,2,V,7.0
V7,44.0,68.0,56.0,76.0,63.0,76,3694.0,square3,f,0.2128,2,V,7.0
V7,45.0,74.0,59.0,76.0,56.0,76,3770.0,square3,f,0.2221,2,V,7.0
V7,46.0,72.0,54.0,77.0,61.0,77,3847.0,square3,f,0.1492,2,V,7.0
V7,47.0,69.0,47.0,81.0,62.0,81,3928.0,square3,f,0.1644,2,V,7.0
V7,48.0,75.0,52.0,81.0,57.0,81,4009.0,square3,f,0.1689,2,V,7.0
V7,49.0,74.0,55.0,78.0,60.0,78,4087.0,square3,f,0.0017,2,V,7.0
V7,50.0,71.0,51.0,80.0,61.0,80,4167.0,square3,f,0.0718,2,V,7.0
V7,51.0,75.0,55.0,85.0,62.0,85,4252.0,square3,f,0.2436,2,V,7.0
V7,52.0,75.0,59.0,76.0,59.0,76,4328.0,square3,f,0.4044,2,V,7.0
V7,53.0,72.0,53.0,84.0,66.0,72,4400.0,square1,i,0.261,0,V,7.0
V7,54.0,69.0,51.0,81.0,60.0,81,4481.0,square3,f,0.1672,2,V,7.0
V7,55.0,74.0,56.0,75.0,54.0,75,4556.0,square3,f,0.152,2,V,7.0
V7,56.0,76.0,51.0,83.0,58.0,83,4639.0,square3,f,0.0723,2,V,7.0
V7,57.0,71.0,53.0,80.0,64.0,80,4719.0,square3,f,0.2014,2,V,7.0
V7,58.0,81.0,56.0,79.0,61.0,79,4798.0,square3,f,0.3191,2,V,7.0
V7,59.0,71.0,55.0,83.0,59.0,83,4881.0,square3,f,0.3053,2,V,7.0
V7,60.0,73.0,53.0,83.0,64.0,83,4964.0,square3,f,0.1085,2,V,7.0
V7,61.0,70.0,53.0,77.0,63.0,53,5017.0,square2,r,0.2336,1,V,7.0
V7,62.0,71.0,54.0,76.0,61.0,61,5078.0,square4,j,0.1959,3,V,7.0
V7,63.0,68.0,45.0,79.0,65.0,79,5157.0,square3,f,0.3003,2,V,7.0
V7,64.0,65.0,55.0,79.0,59.0,79,5236.0,square3,f,0.5959,2,V,7.0
V7,65.0,74.0,54.0,81.0,61.0,74,5310.0,square1,i,0.3569,0,V,7.0
V7,66.0,70.0,56.0,81.0,63.0,81,5391.0,square3,f,0.2257,2,V,7.0
V7,67.0,70.0,85.0,64.0,92.0,64,5455.0,square3,f,0.1696,2,V,7.0
V7,68.0,73.0,85.0,68.0,92.0,68,5523.0,square3,f,0.3126,2,V,7.0
V7,69.0,75.0,83.0,70.0,91.0,75,5598.0,square1,i,0.1468,0,V,7.0
V7,70.0,75.0,85.0,69.0,91.0,75,5673.0,square1,i,0.1507,0,V,7.0
V7,71.0,71.0,86.0,65.0,94.0,71,5744.0,square1,i,0.108,0,V,7.0
V7,72.0,77.0,86.0,65.0,98.0,77,5821.0,square1,i,0.0016,0,V,7.0
V7,73.0,77.0,84.0,63.0,94.0,77,5898.0,square1,i,0.0248,0,V,7.0
V7,74.0,71.0,86.0,64.0,91.0,71,5969.0,square1,i,0.5301,0,V,7.0
V7,75.0,73.0,90.0,60.0,90.0,73,6042.0,square1,i,0.0335,0,V,7.0
V7,76.0,79.0,84.0,68.0,95.0,79,6121.0,square1,i,0.2007,0,V,7.0
V7,77.0,73.0,85.0,66.0,89.0,73,6194.0,square1,i,0.1614,0,V,7.0
V7,78.0,75.0,82.0,67.0,91.0,75,6269.0,square1,i,0.2171,0,V,7.0
V7,79.0,72.0,85.0,60.0,90.0,72,6341.0,square1,i,0.0615,0,V,7.0
V7,80.0,73.0,83.0,66.0,97.0,73,6414.0,square1,i,0.4562,0,V,7.0
V7,81.0,73.0,84.0,67.0,92.0,84,6498.0,square2,r,0.2327,1,V,7.0
V7,82.0,69.0,84.0,65.0,91.0,84,6582.0,square2,r,0.2694,1,V,7.0
V7,83.0,76.0,83.0,72.0,99.0,99,6681.0,square4,j,0.2172,3,V,7.0
V7,84.0,72.0,84.0,70.0,94.0,94,6775.0,square4,j,0.3021,3,V,7.0
V7,85.0,77.0,83.0,67.0,88.0,88,6863.0,square4,j,0.2424,3,V,7.0
V7,86.0,76.0,80.0,67.0,90.0,90,6953.0,square4,j,0.159,3,V,7.0
V7,87.0,70.0,86.0,67.0,95.0,95,7048.0,square4,j,0.2539,3,V,7.0
V7,88.0,76.0,84.0,67.0,100.0,84,7132.0,square2,r,0.0886,1,V,7.0
V7,89.0,71.0,88.0,60.0,97.0,97,7229.0,square4,j,0.2868,3,V,7.0
V7,90.0,69.0,82.0,71.0,95.0,95,7324.0,square4,j,0.0971,3,V,7.0
V7,91.0,80.0,84.0,65.0,92.0,92,7416.0,square4,j,0.3384,3,V,7.0
V7,92.0,77.0,85.0,68.0,85.0,85,7501.0,square4,j,0.2672,3,V,7.0
V7,93.0,72.0,84.0,66.0,91.0,91,7592.0,square4,j,0.0597,3,V,7.0
V7,94.0,69.0,83.0,66.0,95.0,95,7687.0,square4,j,0.1528,3,V,7.0
V7,95.0,70.0,86.0,75.0,91.0,91,7778.0,square4,j,0.0207,3,V,7.0
V7,96.0,74.0,85.0,66.0,88.0,88,7866.0,square4,j,0.1896,3,V,7.0
V7,97.0,77.0,82.0,73.0,91.0,91,7957.0,square4,j,0.2407,3,V,7.0
V7,98.0,76.0,91.0,62.0,94.0,94,8051.0,square4,j,0.3189,3,V,7.0
V7,99.0,74.0,84.0,67.0,88.0,88,8139.0,square4,j,0.1987,3,V,7.0
NS5,0.0,26.0,19.0,54.0,39.0,19,19.0,square2,f,1.3608,1,N,5.0
NS5,1.0,21.0,17.0,51.0,42.0,42,61.0,square4,i,0.0943,3,N,5.0
NS5,2.0,19.0,17.0,52.0,42.0,19,80.0,square1,r,0.1114,0,N,5.0
NS5,3.0,21.0,16.0,55.0,38.0,55,135.0,square3,j,1.1435,2,N,5.0
NS5,4.0,14.0,26.0,52.0,44.0,26,161.0,square2,f,0.2454,1,N,5.0
NS5,5.0,18.0,25.0,47.0,42.0,47,208.0,square3,j,0.1045,2,N,5.0
NS5,6.0,23.0,21.0,54.0,38.0,54,262.0,square3,j,0.3845,2,N,5.0
NS5,7.0,18.0,27.0,56.0,39.0,56,318.0,square3,j,0.1972,2,N,5.0
NS5,8.0,18.0,28.0,57.0,40.0,40,358.0,square4,i,0.0987,3,N,5.0
NS5,9.0,15.0,29.0,53.0,38.0,15,373.0,square1,r,0.2536,0,N,5.0
NS5,10.0,13.0,26.0,56.0,41.0,56,429.0,square3,j,0.1693,2,N,5.0
NS5,11.0,11.0,25.0,58.0,41.0,58,487.0,square3,j,0.4261,2,N,5.0
NS5,12.0,9.0,22.0,53.0,40.0,53,540.0,square3,j,0.2428,2,N,5.0
NS5,13.0,11.0,21.0,55.0,39.0,55,595.0,square3,j,0.1819,2,N,5.0
NS5,14.0,12.0,17.0,49.0,38.0,49,644.0,square3,j,0.1091,2,N,5.0
NS5,15.0,18.0,19.0,52.0,37.0,52,696.0,square3,j,0.1502,2,N,5.0
NS5,16.0,18.0,20.0,49.0,40.0,49,745.0,square3,j,0.1415,2,N,5.0
NS5,17.0,16.0,16.0,50.0,41.0,50,795.0,square3,j,0.0181,2,N,5.0
NS5,18.0,16.0,18.0,51.0,43.0,51,846.0,square3,j,0.327,2,N,5.0
NS5,19.0,14.0,20.0,44.0,45.0,20,866.0,square2,f,0.2584,1,N,5.0
NS5,20.0,19.0,21.0,42.0,48.0,42,908.0,square3,j,0.164,2,N,5.0
NS5,21.0,19.0,22.0,43.0,47.0,19,927.0,square1,r,0.1131,0,N,5.0
NS5,22.0,17.0,15.0,43.0,47.0,47,974.0,square4,i,0.1659,3,N,5.0
NS5,23.0,16.0,28.0,37.0,47.0,37,1011.0,square3,j,0.0337,2,N,5.0
NS5,24.0,20.0,21.0,38.0,49.0,49,1060.0,square4,i,0.2527,3,N,5.0
NS5,25.0,22.0,17.0,34.0,46.0,46,1106.0,square4,i,0.0068,3,N,5.0
NS5,26.0,30.0,16.0,32.0,50.0,50,1156.0,square4,i,0.3501,3,N,5.0
NS5,27.0,21.0,20.0,35.0,42.0,42,1198.0,square4,i,0.0654,3,N,5.0
NS5,28.0,20.0,23.0,39.0,42.0,42,1240.0,square4,i,0.127,3,N,5.0
NS5,29.0,21.0,18.0,39.0,41.0,41,1281.0,square4,i,0.0317,3,N,5.0
NS5,30.0,20.0,11.0,41.0,44.0,44,1325.0,square4,i,0.0235,3,N,5.0
NS5,31.0,20.0,9.0,36.0,43.0,43,1368.0,square4,i,0.5113,3,N,5.0
NS5,32.0,21.0,13.0,35.0,46.0,46,1414.0,square4,i,0.287,3,N,5.0
NS5,33.0,16.0,22.0,32.0,44.0,44,1458.0,square4,i,0.2259,3,N,5.0
NS5,34.0,20.0,20.0,33.0,37.0,37,1495.0,square4,i,0.2601,3,N,5.0
NS5,35.0,19.0,27.0,34.0,40.0,27,1522.0,square2,f,0.2179,1,N,5.0
NS5,36.0,20.0,23.0,31.0,37.0,20,1542.0,square1,r,0.2149,0,N,5.0
NS5,37.0,15.0,28.0,41.0,40.0,41,1583.0,square3,j,0.1555,2,N,5.0
NS5,38.0,18.0,21.0,45.0,37.0,45,1628.0,square3,j,0.119,2,N,5.0
NS5,39.0,23.0,22.0,40.0,34.0,40,1668.0,square3,j,0.0127,2,N,5.0
NS5,40.0,22.0,25.0,44.0,26.0,44,1712.0,square3,j,0.2483,2,N,5.0
NS5,41.0,28.0,25.0,39.0,29.0,39,1751.0,square3,j,0.1941,2,N,5.0
NS5,42.0,27.0,27.0,42.0,35.0,35,1786.0,square4,i,0.258,3,N,5.0
NS5,43.0,25.0,25.0,49.0,38.0,49,1835.0,square3,j,0.028,2,N,5.0
NS5,44.0,24.0,26.0,42.0,30.0,42,1877.0,square3,j,0.3101,2,N,5.0
NS5,45.0,33.0,22.0,43.0,37.0,43,1920.0,square3,j,0.0795,2,N,5.0
NS5,46.0,32.0,24.0,50.0,38.0,50,1970.0,square3,j,0.0865,2,N,5.0
NS5,47.0,39.0,25.0,52.0,29.0,52,2022.0,square3,j,0.2662,2,N,5.0
NS5,48.0,42.0,22.0,46.0,33.0,46,2068.0,square3,j,0.0613,2,N,5.0
NS5,49.0,40.0,26.0,40.0,33.0,40,2108.0,square3,j,0.2592,2,N,5.0
NS5,50.0,34.0,19.0,47.0,33.0,47,2155.0,square3,j,0.1748,2,N,5.0
NS5,51.0,29.0,25.0,45.0,29.0,45,2200.0,square3,j,0.3145,2,N,5.0
NS5,52.0,29.0,24.0,48.0,35.0,35,2235.0,square4,i,0.099,3,N,5.0
NS5,53.0,24.0,25.0,45.0,40.0,45,2280.0,square3,j,0.1051,2,N,5.0
NS5,54.0,26.0,25.0,51.0,36.0,25,2305.0,square2,f,0.4217,1,N,5.0
NS5,55.0,25.0,28.0,56.0,34.0,25,2330.0,square1,r,0.2031,0,N,5.0
NS5,56.0,23.0,27.0,54.0,36.0,54,2384.0,square3,j,0.2073,2,N,5.0
NS5,57.0,19.0,25.0,51.0,31.0,31,2415.0,square4,i,0.2478,3,N,5.0
NS5,58.0,20.0,30.0,53.0,29.0,53,2468.0,square3,j,0.2929,2,N,5.0
NS5,59.0,17.0,30.0,52.0,28.0,52,2520.0,square3,j,0.2334,2,N,5.0
NS5,60.0,15.0,30.0,55.0,30.0,55,2575.0,square3,j,0.2647,2,N,5.0
NS5,61.0,22.0,29.0,54.0,30.0,54,2629.0,square3,j,0.3057,2,N,5.0
NS5,62.0,18.0,31.0,55.0,32.0,55,2684.0,square3,j,0.1719,2,N,5.0
NS5,63.0,19.0,31.0,51.0,37.0,51,2735.0,square3,j,0.1552,2,N,5.0
NS5,64.0,20.0,30.0,45.0,35.0,45,2780.0,square3,j,0.0936,2,N,5.0
NS5,65.0,24.0,21.0,55.0,38.0,55,2835.0,square3,j,0.1885,2,N,5.0
NS5,66.0,22.0,29.0,58.0,36.0,58,2893.0,square3,j,0.124,2,N,5.0
NS5,67.0,22.0,26.0,51.0,36.0,51,2944.0,square3,j,0.242,2,N,5.0
NS5,68.0,20.0,28.0,52.0,36.0,52,2996.0,square3,j,0.2409,2,N,5.0
NS5,69.0,18.0,27.0,52.0,40.0,52,3048.0,square3,j,0.2291,2,N,5.0
NS5,70.0,22.0,34.0,55.0,39.0,55,3103.0,square3,j,0.4209,2,N,5.0
NS5,71.0,27.0,37.0,59.0,41.0,59,3162.0,square3,j,0.2984,2,N,5.0
NS5,72.0,27.0,37.0,57.0,40.0,57,3219.0,square3,j,0.0857,2,N,5.0
NS5,73.0,35.0,36.0,55.0,38.0,55,3274.0,square3,j,0.2723,2,N,5.0
NS5,74.0,27.0,36.0,52.0,36.0,52,3326.0,square3,j,0.1245,2,N,5.0
NS5,75.0,31.0,40.0,53.0,38.0,53,3379.0,square3,j,0.2551,2,N,5.0
NS5,76.0,33.0,41.0,59.0,35.0,59,3438.0,square3,j,0.3319,2,N,5.0
NS5,77.0,33.0,42.0,56.0,38.0,56,3494.0,square3,j,0.4179,2,N,5.0
NS5,78.0,30.0,42.0,53.0,37.0,53,3547.0,square3,j,1.1759,2,N,5.0
NS5,79.0,27.0,49.0,51.0,44.0,51,3598.0,square3,j,0.2594,2,N,5.0
NS5,80.0,31.0,49.0,45.0,44.0,44,3642.0,square4,i,0.072,3,N,5.0
NS5,81.0,33.0,51.0,48.0,43.0,48,3690.0,square3,j,0.0008,2,N,5.0
NS5,82.0,31.0,54.0,41.0,43.0,41,3731.0,square3,j,0.2515,2,N,5.0
NS5,83.0,25.0,57.0,42.0,40.0,42,3773.0,square3,j,0.5984,2,N,5.0
NS5,84.0,36.0,57.0,45.0,38.0,38,3811.0,square4,i,0.0278,3,N,5.0
NS5,85.0,36.0,62.0,44.0,42.0,44,3855.0,square3,j,0.0759,2,N,5.0
NS5,86.0,33.0,55.0,48.0,43.0,33,3888.0,square1,r,0.0319,0,N,5.0
NS5,87.0,37.0,53.0,44.0,46.0,53,3941.0,square2,f,0.3873,1,N,5.0
NS5,88.0,36.0,54.0,41.0,48.0,41,3982.0,square3,j,0.1442,2,N,5.0
NS5,89.0,39.0,62.0,47.0,47.0,47,4029.0,square4,i,0.2105,3,N,5.0
NS5,90.0,37.0,62.0,51.0,48.0,62,4091.0,square2,f,0.0138,1,N,5.0
NS5,91.0,40.0,64.0,48.0,53.0,64,4155.0,square2,f,0.0997,1,N,5.0
NS5,92.0,42.0,64.0,51.0,55.0,64,4219.0,square2,f,0.0277,1,N,5.0
NS5,93.0,39.0,63.0,51.0,53.0,63,4282.0,square2,f,0.0855,1,N,5.0
NS5,94.0,41.0,60.0,50.0,58.0,60,4342.0,square2,f,0.2397,1,N,5.0
NS5,95.0,36.0,55.0,53.0,52.0,55,4397.0,square2,f,0.0163,1,N,5.0
NS5,96.0,36.0,56.0,55.0,56.0,56,4453.0,square2,f,0.1554,1,N,5.0
NS5,97.0,28.0,52.0,57.0,53.0,52,4505.0,square2,f,0.0067,1,N,5.0
NS5,98.0,29.0,53.0,53.0,43.0,53,4558.0,square2,f,0.3818,1,N,5.0
NS5,99.0,25.0,55.0,53.0,46.0,55,4613.0,square2,f,0.409,1,N,5.0
NS8,0.0,61.0,62.0,34.0,32.0,32,32.0,square4,r,0.8137,3,N,8.0
NS8,1.0,57.0,56.0,38.0,27.0,56,88.0,square2,i,0.3077,1,N,8.0
NS8,2.0,66.0,55.0,42.0,28.0,42,130.0,square3,f,0.0769,2,N,8.0
NS8,3.0,67.0,51.0,37.0,28.0,67,197.0,square1,j,0.1854,0,N,8.0
NS8,4.0,65.0,53.0,38.0,32.0,65,262.0,square1,j,0.1551,0,N,8.0
NS8,5.0,67.0,52.0,43.0,33.0,67,329.0,square1,j,0.2702,0,N,8.0
NS8,6.0,56.0,47.0,41.0,36.0,56,385.0,square1,j,0.1187,0,N,8.0
NS8,7.0,58.0,46.0,37.0,31.0,58,443.0,square1,j,0.3135,0,N,8.0
NS8,8.0,60.0,58.0,36.0,35.0,60,503.0,square1,j,0.4364,0,N,8.0
NS8,9.0,60.0,66.0,41.0,39.0,60,563.0,square1,j,0.2155,0,N,8.0
NS8,10.0,60.0,60.0,36.0,33.0,60,623.0,square1,j,0.2672,0,N,8.0
NS8,11.0,53.0,63.0,32.0,35.0,53,676.0,square1,j,0.0021,0,N,8.0
NS8,12.0,51.0,60.0,32.0,29.0,51,727.0,square1,j,0.3035,0,N,8.0
NS8,13.0,53.0,65.0,30.0,32.0,53,780.0,square1,j,0.2378,0,N,8.0
NS8,14.0,56.0,69.0,25.0,33.0,33,813.0,square4,r,0.2229,3,N,8.0
NS8,15.0,57.0,71.0,29.0,35.0,29,842.0,square3,f,0.1096,2,N,8.0
NS8,16.0,55.0,64.0,31.0,33.0,64,906.0,square2,i,0.1818,1,N,8.0
NS8,17.0,48.0,65.0,29.0,32.0,48,954.0,square1,j,0.1419,0,N,8.0
NS8,18.0,44.0,64.0,28.0,34.0,64,1018.0,square2,i,0.0383,1,N,8.0
NS8,19.0,46.0,60.0,26.0,33.0,60,1078.0,square2,i,0.2117,1,N,8.0
NS8,20.0,41.0,58.0,29.0,35.0,58,1136.0,square2,i,0.2444,1,N,8.0
NS8,21.0,45.0,57.0,29.0,35.0,57,1193.0,square2,i,0.0245,1,N,8.0
NS8,22.0,47.0,53.0,32.0,32.0,53,1246.0,square2,i,0.1942,1,N,8.0
NS8,23.0,49.0,52.0,33.0,35.0,52,1298.0,square2,i,0.1524,1,N,8.0
NS8,24.0,56.0,53.0,30.0,37.0,53,1351.0,square2,i,0.1019,1,N,8.0
NS8,25.0,57.0,48.0,28.0,42.0,48,1399.0,square2,i,0.2499,1,N,8.0
NS8,26.0,52.0,48.0,33.0,43.0,48,1447.0,square2,i,0.0272,1,N,8.0
NS8,27.0,53.0,45.0,28.0,47.0,45,1492.0,square2,i,0.2198,1,N,8.0
NS8,28.0,50.0,43.0,27.0,41.0,43,1535.0,square2,i,0.1611,1,N,8.0
NS8,29.0,53.0,52.0,29.0,43.0,43,1578.0,square4,r,0.0219,3,N,8.0
NS8,30.0,54.0,51.0,30.0,41.0,30,1608.0,square3,f,0.3554,2,N,8.0
NS8,31.0,50.0,50.0,31.0,42.0,50,1658.0,square1,j,0.1675,0,N,8.0
NS8,32.0,50.0,50.0,35.0,43.0,50,1708.0,square2,i,0.0876,1,N,8.0
NS8,33.0,46.0,48.0,39.0,41.0,46,1754.0,square1,j,0.1702,0,N,8.0
NS8,34.0,47.0,46.0,41.0,40.0,46,1800.0,square2,i,0.491,1,N,8.0
NS8,35.0,57.0,45.0,36.0,37.0,37,1837.0,square4,r,0.3553,3,N,8.0
NS8,36.0,53.0,49.0,41.0,38.0,41,1878.0,square3,f,0.2407,2,N,8.0
NS8,37.0,57.0,50.0,41.0,39.0,57,1935.0,square1,j,0.0417,0,N,8.0
NS8,38.0,61.0,51.0,39.0,43.0,51,1986.0,square2,i,0.6078,1,N,8.0
NS8,39.0,59.0,54.0,41.0,36.0,59,2045.0,square1,j,0.3641,0,N,8.0
NS8,40.0,53.0,55.0,47.0,40.0,55,2100.0,square2,i,0.2506,1,N,8.0
NS8,41.0,53.0,55.0,43.0,39.0,53,2153.0,square1,j,0.2212,0,N,8.0
NS8,42.0,59.0,55.0,45.0,40.0,55,2208.0,square2,i,0.1646,1,N,8.0
NS8,43.0,54.0,46.0,51.0,37.0,46,2254.0,square2,i,0.7228,1,N,8.0
NS8,44.0,56.0,44.0,50.0,35.0,56,2310.0,square1,j,0.7212,0,N,8.0
NS8,45.0,51.0,46.0,41.0,37.0,46,2356.0,square2,i,0.4786,1,N,8.0
NS8,46.0,52.0,43.0,44.0,34.0,52,2408.0,square1,j,0.1139,0,N,8.0
NS8,47.0,46.0,41.0,36.0,37.0,46,2454.0,square1,j,0.3197,0,N,8.0
NS8,48.0,47.0,46.0,39.0,37.0,39,2493.0,square3,f,0.3211,2,N,8.0
NS8,49.0,48.0,36.0,38.0,40.0,40,2533.0,square4,r,0.1459,3,N,8.0
NS8,50.0,51.0,37.0,36.0,46.0,37,2570.0,square2,i,0.061,1,N,8.0
NS8,51.0,53.0,38.0,40.0,43.0,53,2623.0,square1,j,0.1334,0,N,8.0
NS8,52.0,47.0,32.0,37.0,44.0,47,2670.0,square1,j,0.1826,0,N,8.0
NS8,53.0,52.0,31.0,38.0,46.0,52,2722.0,square1,j,0.185,0,N,8.0
NS8,54.0,44.0,34.0,40.0,45.0,44,2766.0,square1,j,0.1167,0,N,8.0
NS8,55.0,46.0,26.0,37.0,41.0,37,2803.0,square3,f,0.2601,2,N,8.0
NS8,56.0,42.0,29.0,36.0,40.0,42,2845.0,square1,j,0.0025,0,N,8.0
NS8,57.0,39.0,21.0,39.0,40.0,21,2866.0,square2,i,0.0823,1,N,8.0
NS8,58.0,42.0,18.0,39.0,40.0,40,2906.0,square4,r,0.0707,3,N,8.0
NS8,59.0,46.0,16.0,41.0,39.0,46,2952.0,square1,j,0.0206,0,N,8.0
NS8,60.0,45.0,20.0,40.0,39.0,45,2997.0,square1,j,0.2241,0,N,8.0
NS8,61.0,45.0,26.0,42.0,39.0,45,3042.0,square1,j,0.001,0,N,8.0
NS8,62.0,46.0,21.0,45.0,37.0,46,3088.0,square1,j,0.1353,0,N,8.0
NS8,63.0,50.0,23.0,40.0,38.0,50,3138.0,square1,j,0.0089,0,N,8.0
NS8,64.0,46.0,24.0,41.0,33.0,46,3184.0,square1,j,0.1482,0,N,8.0
NS8,65.0,48.0,28.0,42.0,32.0,32,3216.0,square4,r,0.173,3,N,8.0
NS8,66.0,47.0,20.0,40.0,35.0,20,3236.0,square2,i,0.0834,1,N,8.0
NS8,67.0,49.0,25.0,46.0,34.0,46,3282.0,square3,f,0.1488,2,N,8.0
NS8,68.0,47.0,24.0,45.0,33.0,47,3329.0,square1,j,0.084,0,N,8.0
NS8,69.0,45.0,21.0,47.0,35.0,45,3374.0,square1,j,0.1259,0,N,8.0
NS8,70.0,44.0,21.0,47.0,37.0,44,3418.0,square1,j,0.0426,0,N,8.0
NS8,71.0,44.0,15.0,41.0,38.0,44,3462.0,square1,j,0.1173,0,N,8.0
NS8,72.0,47.0,19.0,49.0,40.0,40,3502.0,square4,r,0.2183,3,N,8.0
NS8,73.0,39.0,21.0,53.0,38.0,39,3541.0,square1,j,0.0976,0,N,8.0
NS8,74.0,42.0,19.0,53.0,35.0,53,3594.0,square3,f,0.1136,2,N,8.0
NS8,75.0,37.0,18.0,43.0,35.0,43,3637.0,square3,f,0.0424,2,N,8.0
NS8,76.0,35.0,14.0,42.0,38.0,42,3679.0,square3,f,0.0844,2,N,8.0
NS8,77.0,38.0,19.0,47.0,44.0,47,3726.0,square3,f,0.4355,2,N,8.0
NS8,78.0,38.0,18.0,50.0,46.0,50,3776.0,square3,f,0.1063,2,N,8.0
NS8,79.0,33.0,22.0,54.0,44.0,54,3830.0,square3,f,0.2208,2,N,8.0
NS8,80.0,38.0,21.0,56.0,52.0,56,3886.0,square3,f,0.1422,2,N,8.0
NS8,81.0,37.0,22.0,56.0,43.0,56,3942.0,square3,f,0.1592,2,N,8.0
NS8,82.0,30.0,26.0,60.0,42.0,60,4002.0,square3,f,0.4319,2,N,8.0
NS8,83.0,38.0,22.0,54.0,46.0,54,4056.0,square3,f,0.2361,2,N,8.0
NS8,84.0,33.0,18.0,52.0,46.0,52,4108.0,square3,f,0.1863,2,N,8.0
NS8,85.0,42.0,12.0,57.0,48.0,57,4165.0,square3,f,0.2623,2,N,8.0
NS8,86.0,45.0,19.0,58.0,42.0,58,4223.0,square3,f,0.2506,2,N,8.0
NS8,87.0,46.0,10.0,65.0,44.0,65,4288.0,square3,f,0.2773,2,N,8.0
NS8,88.0,45.0,11.0,59.0,45.0,59,4347.0,square3,f,0.0475,2,N,8.0
NS8,89.0,42.0,11.0,60.0,47.0,60,4407.0,square3,f,0.301,2,N,8.0
NS8,90.0,40.0,7.0,64.0,49.0,64,4471.0,square3,f,0.0527,2,N,8.0
NS8,91.0,42.0,11.0,64.0,48.0,64,4535.0,square3,f,0.3689,2,N,8.0
NS8,92.0,43.0,13.0,60.0,43.0,60,4595.0,square3,f,0.0998,2,N,8.0
NS8,93.0,44.0,12.0,64.0,45.0,64,4659.0,square3,f,0.1807,2,N,8.0
NS8,94.0,45.0,16.0,65.0,49.0,65,4724.0,square3,f,0.0984,2,N,8.0
NS8,95.0,45.0,24.0,66.0,42.0,66,4790.0,square3,f,0.0472,2,N,8.0
NS8,96.0,53.0,27.0,67.0,44.0,67,4857.0,square3,f,0.5107,2,N,8.0
NS8,97.0,50.0,29.0,68.0,43.0,68,4925.0,square3,f,0.123,2,N,8.0
NS8,98.0,52.0,29.0,66.0,37.0,66,4991.0,square3,f,0.0175,2,N,8.0
NS8,99.0,53.0,32.0,65.0,37.0,65,5056.0,square3,f,0.0589,2,N,8.0
NS10,0.0,61.0,42.0,19.0,80.0,61,61.0,square1,r,0.8754,0,N,10.0
NS10,1.0,62.0,41.0,25.0,78.0,25,86.0,square3,i,0.1147,2,N,10.0
NS10,2.0,64.0,42.0,22.0,80.0,80,166.0,square4,f,0.1193,3,N,10.0
NS10,3.0,66.0,50.0,21.0,73.0,50,216.0,square2,j,0.1101,1,N,10.0
NS10,4.0,65.0,48.0,19.0,80.0,80,296.0,square4,f,0.2977,3,N,10.0
NS10,5.0,66.0,48.0,23.0,75.0,75,371.0,square4,f,0.0359,3,N,10.0
NS10,6.0,60.0,47.0,26.0,77.0,77,448.0,square4,f,0.0134,3,N,10.0
NS10,7.0,66.0,43.0,25.0,81.0,81,529.0,square4,f,0.1559,3,N,10.0
NS10,8.0,72.0,42.0,23.0,80.0,80,609.0,square4,f,0.0146,3,N,10.0
NS10,9.0,66.0,45.0,21.0,81.0,81,690.0,square4,f,0.2489,3,N,10.0
NS10,10.0,69.0,46.0,29.0,77.0,77,767.0,square4,f,0.3746,3,N,10.0
NS10,11.0,68.0,44.0,27.0,70.0,70,837.0,square4,f,0.2094,3,N,10.0
NS10,12.0,68.0,46.0,27.0,65.0,65,902.0,square4,f,0.1842,3,N,10.0
NS10,13.0,67.0,50.0,23.0,65.0,65,967.0,square4,f,0.2363,3,N,10.0
NS10,14.0,67.0,49.0,31.0,61.0,67,1034.0,square1,r,0.1973,0,N,10.0
NS10,15.0,71.0,51.0,28.0,69.0,69,1103.0,square4,f,0.0024,3,N,10.0
NS10,16.0,71.0,48.0,25.0,64.0,64,1167.0,square4,f,0.0241,3,N,10.0
NS10,17.0,68.0,48.0,25.0,60.0,60,1227.0,square4,f,0.2567,3,N,10.0
NS10,18.0,68.0,49.0,23.0,66.0,68,1295.0,square1,r,0.1987,0,N,10.0
NS10,19.0,67.0,51.0,23.0,64.0,67,1362.0,square1,r,0.2765,0,N,10.0
NS10,20.0,65.0,54.0,29.0,58.0,65,1427.0,square1,r,0.406,0,N,10.0
NS10,21.0,61.0,58.0,22.0,61.0,22,1449.0,square3,i,0.0153,2,N,10.0
NS10,22.0,67.0,51.0,23.0,60.0,51,1500.0,square2,j,0.0529,1,N,10.0
NS10,23.0,65.0,57.0,22.0,60.0,65,1565.0,square1,r,0.2598,0,N,10.0
NS10,24.0,67.0,58.0,26.0,56.0,67,1632.0,square1,r,0.1633,0,N,10.0
NS10,25.0,70.0,67.0,26.0,60.0,70,1702.0,square1,r,0.4074,0,N,10.0
NS10,26.0,71.0,58.0,24.0,55.0,71,1773.0,square1,r,0.0817,0,N,10.0
NS10,27.0,74.0,57.0,24.0,59.0,74,1847.0,square1,r,0.3552,0,N,10.0
NS10,28.0,76.0,62.0,24.0,56.0,76,1923.0,square1,r,0.1434,0,N,10.0
NS10,29.0,78.0,66.0,21.0,61.0,78,2001.0,square1,r,0.1832,0,N,10.0
NS10,30.0,74.0,62.0,20.0,52.0,74,2075.0,square1,r,0.1059,0,N,10.0
NS10,31.0,74.0,63.0,21.0,53.0,74,2149.0,square1,r,0.1219,0,N,10.0
NS10,32.0,77.0,62.0,19.0,50.0,77,2226.0,square1,r,0.3664,0,N,10.0
NS10,33.0,74.0,63.0,21.0,50.0,74,2300.0,square1,r,0.1319,0,N,10.0
NS10,34.0,69.0,64.0,16.0,47.0,69,2369.0,square1,r,0.2643,0,N,10.0
NS10,35.0,68.0,60.0,14.0,51.0,68,2437.0,square1,r,0.0654,0,N,10.0
NS10,36.0,76.0,59.0,13.0,52.0,76,2513.0,square1,r,0.3889,0,N,10.0
NS10,37.0,71.0,60.0,16.0,50.0,50,2563.0,square4,f,0.266,3,N,10.0
NS10,38.0,70.0,56.0,27.0,49.0,70,2633.0,square1,r,0.128,0,N,10.0
NS10,39.0,75.0,59.0,22.0,49.0,75,2708.0,square1,r,0.6483,0,N,10.0
NS10,40.0,70.0,56.0,27.0,51.0,70,2778.0,square1,r,0.3075,0,N,10.0
NS10,41.0,73.0,57.0,24.0,54.0,73,2851.0,square1,r,0.3726,0,N,10.0
NS10,42.0,70.0,58.0,24.0,51.0,70,2921.0,square1,r,0.8207,0,N,10.0
NS10,43.0,70.0,60.0,26.0,45.0,70,2991.0,square1,r,0.0589,0,N,10.0
NS10,44.0,68.0,58.0,27.0,53.0,68,3059.0,square1,r,0.3268,0,N,10.0
NS10,45.0,70.0,61.0,31.0,49.0,70,3129.0,square1,r,0.3966,0,N,10.0
NS10,46.0,65.0,60.0,29.0,43.0,65,3194.0,square1,r,0.0085,0,N,10.0
NS10,47.0,65.0,61.0,32.0,44.0,44,3238.0,square4,f,0.0762,3,N,10.0
NS10,48.0,67.0,58.0,31.0,46.0,31,3269.0,square3,i,0.07,2,N,10.0
NS10,49.0,76.0,55.0,38.0,43.0,55,3324.0,square2,j,0.2844,1,N,10.0
NS10,50.0,74.0,65.0,36.0,40.0,74,3398.0,square1,r,0.3261,0,N,10.0
NS10,51.0,74.0,58.0,34.0,40.0,40,3438.0,square4,f,0.3363,3,N,10.0
NS10,52.0,69.0,65.0,28.0,43.0,69,3507.0,square1,r,0.2802,0,N,10.0
NS10,53.0,69.0,65.0,32.0,40.0,69,3576.0,square1,r,0.3127,0,N,10.0
NS10,54.0,72.0,61.0,32.0,41.0,72,3648.0,square1,r,0.3115,0,N,10.0
NS10,55.0,65.0,64.0,36.0,33.0,65,3713.0,square1,r,0.3419,0,N,10.0
NS10,56.0,75.0,64.0,37.0,37.0,75,3788.0,square1,r,0.3856,0,N,10.0
NS10,57.0,72.0,62.0,36.0,38.0,72,3860.0,square1,r,0.2959,0,N,10.0
NS10,58.0,63.0,68.0,38.0,33.0,63,3923.0,square1,r,0.3431,0,N,10.0
NS10,59.0,65.0,64.0,43.0,34.0,65,3988.0,square1,r,0.1291,0,N,10.0
NS10,60.0,62.0,64.0,51.0,40.0,62,4050.0,square1,r,0.2304,0,N,10.0
NS10,61.0,61.0,65.0,45.0,38.0,61,4111.0,square1,r,0.2486,0,N,10.0
NS10,62.0,66.0,63.0,41.0,37.0,37,4148.0,square4,f,0.1612,3,N,10.0
NS10,63.0,67.0,62.0,45.0,41.0,45,4193.0,square3,i,0.2075,2,N,10.0
NS10,64.0,72.0,60.0,44.0,36.0,60,4253.0,square2,j,0.2154,1,N,10.0
NS10,65.0,73.0,65.0,42.0,39.0,73,4326.0,square1,r,0.3584,0,N,10.0
NS10,66.0,72.0,67.0,45.0,43.0,72,4398.0,square1,r,0.2983,0,N,10.0
NS10,67.0,66.0,70.0,44.0,40.0,66,4464.0,square1,r,0.0072,0,N,10.0
NS10,68.0,61.0,69.0,45.0,44.0,61,4525.0,square1,r,0.2776,0,N,10.0
NS10,69.0,64.0,68.0,42.0,43.0,64,4589.0,square1,r,0.2002,0,N,10.0
NS10,70.0,66.0,72.0,41.0,42.0,66,4655.0,square1,r,0.0094,0,N,10.0
NS10,71.0,64.0,72.0,46.0,45.0,64,4719.0,square1,r,0.0537,0,N,10.0
NS10,72.0,64.0,69.0,44.0,39.0,64,4783.0,square1,r,0.2152,0,N,10.0
NS10,73.0,60.0,74.0,48.0,45.0,60,4843.0,square1,r,0.6806,0,N,10.0
NS10,74.0,57.0,75.0,48.0,41.0,57,4900.0,square1,r,0.2977,0,N,10.0
NS10,75.0,66.0,75.0,46.0,40.0,75,4975.0,square2,j,0.1512,1,N,10.0
NS10,76.0,63.0,77.0,46.0,40.0,40,5015.0,square4,f,0.2642,3,N,10.0
NS10,77.0,62.0,74.0,43.0,34.0,43,5058.0,square3,i,0.0511,2,N,10.0
NS10,78.0,60.0,71.0,48.0,33.0,71,5129.0,square2,j,0.2111,1,N,10.0
NS10,79.0,63.0,68.0,47.0,29.0,68,5197.0,square2,j,0.1529,1,N,10.0
NS10,80.0,54.0,71.0,42.0,32.0,71,5268.0,square2,j,0.1491,1,N,10.0
NS10,81.0,52.0,72.0,44.0,30.0,72,5340.0,square2,j,0.1614,1,N,10.0
NS10,82.0,51.0,77.0,41.0,31.0,77,5417.0,square2,j,0.0814,1,N,10.0
NS10,83.0,52.0,63.0,41.0,35.0,63,5480.0,square2,j,0.0121,1,N,10.0
NS10,84.0,48.0,70.0,37.0,34.0,70,5550.0,square2,j,0.5605,1,N,10.0
NS10,85.0,51.0,73.0,38.0,30.0,51,5601.0,square1,r,0.26,0,N,10.0
NS10,86.0,55.0,79.0,45.0,27.0,79,5680.0,square2,j,0.2574,1,N,10.0
NS10,87.0,54.0,83.0,47.0,21.0,83,5763.0,square2,j,0.1425,1,N,10.0
NS10,88.0,59.0,78.0,45.0,21.0,78,5841.0,square2,j,0.2573,1,N,10.0
NS10,89.0,60.0,74.0,45.0,21.0,74,5915.0,square2,j,0.3435,1,N,10.0
NS10,90.0,55.0,71.0,50.0,18.0,71,5986.0,square2,j,0.3509,1,N,10.0
NS10,91.0,56.0,71.0,46.0,14.0,71,6057.0,square2,j,0.1684,1,N,10.0
NS10,92.0,59.0,70.0,46.0,20.0,70,6127.0,square2,j,0.1988,1,N,10.0
NS10,93.0,65.0,72.0,46.0,21.0,72,6199.0,square2,j,0.6424,1,N,10.0
NS10,94.0,63.0,68.0,46.0,20.0,68,6267.0,square2,j,0.1939,1,N,10.0
NS10,95.0,69.0,70.0,48.0,22.0,69,6336.0,square1,r,0.2825,0,N,10.0
NS10,96.0,68.0,69.0,45.0,27.0,69,6405.0,square2,j,0.1939,1,N,10.0
NS10,97.0,74.0,69.0,43.0,35.0,69,6474.0,square2,j,0.0801,1,N,10.0
NS10,98.0,73.0,68.0,43.0,30.0,73,6547.0,square1,r,0.3269,0,N,10.0
NS10,99.0,70.0,61.0,39.0,32.0,70,6617.0,square1,r,0.2957,0,N,10.0
