block,Trial,square1,square2,square3,square4,currPoints,totalPoints,square,choiceKey.keys,choiceKey.rt,armNum,blockType,blockNum
prac,0.0,100.0,0.0,0.0,0.0,0,0.0,square2,,,1,p,0.0
prac,1.0,100.0,0.0,0.0,0.0,0,0.0,square4,,,3,p,0.0
prac,2.0,100.0,0.0,0.0,0.0,100,100.0,square1,,,0,p,0.0
prac,3.0,100.0,0.0,0.0,0.0,0,100.0,square3,,,2,p,0.0
prac,4.0,100.0,0.0,0.0,0.0,100,200.0,square1,,,0,p,0.0
prac,5.0,100.0,0.0,0.0,0.0,100,300.0,square1,,,0,p,0.0
prac,6.0,100.0,0.0,0.0,0.0,100,400.0,square1,,,0,p,0.0
prac,7.0,100.0,0.0,0.0,0.0,100,500.0,square1,,,0,p,0.0
prac,8.0,100.0,0.0,0.0,0.0,100,600.0,square1,,,0,p,0.0
prac,9.0,100.0,0.0,0.0,0.0,100,700.0,square1,,,0,p,0.0
NS1,0.0,60.0,65.0,21.0,53.0,53,53.0,square4,r,0.9158,3,N,1.0
NS1,1.0,56.0,62.0,31.0,51.0,56,109.0,square1,j,0.4185,0,N,1.0
NS1,2.0,58.0,62.0,24.0,57.0,24,133.0,square3,i,0.3751,2,N,1.0
NS1,3.0,56.0,58.0,33.0,58.0,58,191.0,square2,f,0.0544,1,N,1.0
NS1,4.0,60.0,58.0,32.0,58.0,60,251.0,square1,j,0.6419,0,N,1.0
NS1,5.0,56.0,59.0,31.0,54.0,54,305.0,square4,r,0.2084,3,N,1.0
NS1,6.0,58.0,57.0,37.0,56.0,58,363.0,square1,j,0.1754,0,N,1.0
NS1,7.0,57.0,53.0,37.0,57.0,53,416.0,square2,f,0.2226,1,N,1.0
NS1,8.0,58.0,57.0,37.0,54.0,37,453.0,square3,i,0.5503,2,N,1.0
NS1,9.0,53.0,50.0,36.0,55.0,55,508.0,square4,r,0.2171,3,N,1.0
NS1,10.0,58.0,47.0,32.0,53.0,58,566.0,square1,j,0.3126,0,N,1.0
NS1,11.0,55.0,44.0,34.0,53.0,44,610.0,square2,f,0.0252,1,N,1.0
NS1,12.0,56.0,44.0,30.0,45.0,30,640.0,square3,i,0.5328,2,N,1.0
NS1,13.0,60.0,47.0,34.0,48.0,48,688.0,square4,r,0.1877,3,N,1.0
NS1,14.0,54.0,48.0,37.0,54.0,54,742.0,square1,j,0.0003,0,N,1.0
NS1,15.0,53.0,44.0,35.0,51.0,51,793.0,square4,r,0.1711,3,N,1.0
NS1,16.0,50.0,50.0,35.0,43.0,50,843.0,square2,f,0.5025,1,N,1.0
NS1,17.0,53.0,46.0,35.0,44.0,35,878.0,square3,i,0.188,2,N,1.0
NS1,18.0,54.0,51.0,42.0,48.0,54,932.0,square1,j,0.2135,0,N,1.0
NS1,19.0,62.0,51.0,44.0,53.0,62,994.0,square1,j,0.1944,0,N,1.0
NS1,20.0,63.0,47.0,42.0,47.0,63,1057.0,square1,j,0.2174,0,N,1.0
NS1,21.0,67.0,51.0,41.0,46.0,67,1124.0,square1,j,0.1848,0,N,1.0
NS1,22.0,75.0,44.0,45.0,43.0,75,1199.0,square1,j,0.1756,0,N,1.0
NS1,23.0,64.0,42.0,41.0,47.0,64,1263.0,square1,j,0.0441,0,N,1.0
NS1,24.0,68.0,41.0,39.0,49.0,41,1304.0,square2,f,0.0883,1,N,1.0
NS1,25.0,71.0,43.0,33.0,42.0,42,1346.0,square4,r,0.1586,3,N,1.0
NS1,26.0,70.0,41.0,26.0,45.0,26,1372.0,square3,i,0.2133,2,N,1.0
NS1,27.0,72.0,42.0,34.0,48.0,48,1420.0,square4,r,0.1667,3,N,1.0
NS1,28.0,71.0,41.0,33.0,45.0,45,1465.0,square4,r,0.0128,3,N,1.0
NS1,29.0,77.0,42.0,31.0,48.0,77,1542.0,square1,j,0.492,0,N,1.0
NS1,30.0,73.0,41.0,33.0,51.0,51,1593.0,square4,r,0.0667,3,N,1.0
NS1,31.0,71.0,44.0,35.0,48.0,71,1664.0,square1,j,0.0905,0,N,1.0
NS1,32.0,81.0,47.0,33.0,50.0,47,1711.0,square2,f,0.0669,1,N,1.0
NS1,33.0,75.0,50.0,27.0,42.0,75,1786.0,square1,j,0.4421,0,N,1.0
NS1,34.0,71.0,49.0,27.0,44.0,71,1857.0,square1,j,0.2123,0,N,1.0
NS1,35.0,69.0,47.0,23.0,47.0,47,1904.0,square4,r,0.1838,3,N,1.0
NS1,36.0,71.0,50.0,32.0,45.0,50,1954.0,square2,f,0.0921,1,N,1.0
NS1,37.0,66.0,48.0,33.0,52.0,66,2020.0,square1,j,0.1881,0,N,1.0
NS1,38.0,64.0,50.0,34.0,51.0,64,2084.0,square1,j,0.2003,0,N,1.0
NS1,39.0,65.0,49.0,25.0,47.0,65,2149.0,square1,j,0.1344,0,N,1.0
NS1,40.0,66.0,46.0,23.0,50.0,66,2215.0,square1,j,0.1301,0,N,1.0
NS1,41.0,68.0,45.0,22.0,50.0,68,2283.0,square1,j,0.2965,0,N,1.0
NS1,42.0,74.0,41.0,28.0,50.0,74,2357.0,square1,j,0.1129,0,N,1.0
NS1,43.0,69.0,42.0,27.0,52.0,69,2426.0,square1,j,0.1957,0,N,1.0
NS1,44.0,71.0,38.0,32.0,49.0,38,2464.0,square2,f,0.0131,1,N,1.0
NS1,45.0,68.0,38.0,30.0,55.0,68,2532.0,square1,j,0.0004,0,N,1.0
NS1,46.0,66.0,39.0,30.0,56.0,66,2598.0,square1,j,0.0719,0,N,1.0
NS1,47.0,62.0,35.0,31.0,50.0,62,2660.0,square1,j,0.0086,0,N,1.0
NS1,48.0,68.0,31.0,32.0,49.0,68,2728.0,square1,j,0.0496,0,N,1.0
NS1,49.0,66.0,33.0,35.0,46.0,66,2794.0,square1,j,0.464,0,N,1.0
NS1,50.0,64.0,30.0,32.0,46.0,64,2858.0,square1,j,0.2093,0,N,1.0
NS1,51.0,66.0,35.0,39.0,43.0,66,2924.0,square1,j,0.1272,0,N,1.0
NS1,52.0,67.0,33.0,37.0,49.0,67,2991.0,square1,j,0.163,0,N,1.0
NS1,53.0,70.0,32.0,35.0,47.0,70,3061.0,square1,j,0.0541,0,N,1.0
NS1,54.0,62.0,40.0,28.0,43.0,62,3123.0,square1,j,0.0832,0,N,1.0
NS1,55.0,66.0,39.0,26.0,43.0,66,3189.0,square1,j,0.0179,0,N,1.0
NS1,56.0,64.0,38.0,26.0,44.0,44,3233.0,square4,r,0.4044,3,N,1.0
NS1,57.0,63.0,41.0,24.0,48.0,24,3257.0,square3,i,0.1003,2,N,1.0
NS1,58.0,67.0,49.0,24.0,48.0,67,3324.0,square1,j,0.2148,0,N,1.0
NS1,59.0,57.0,51.0,27.0,43.0,57,3381.0,square1,j,0.0328,0,N,1.0
NS1,60.0,56.0,51.0,31.0,42.0,56,3437.0,square1,j,0.0472,0,N,1.0
NS1,61.0,55.0,50.0,25.0,49.0,55,3492.0,square1,j,0.4169,0,N,1.0
NS1,62.0,55.0,51.0,27.0,50.0,55,3547.0,square1,j,0.0713,0,N,1.0
NS1,63.0,53.0,51.0,27.0,50.0,53,3600.0,square1,j,0.4405,0,N,1.0
NS1,64.0,53.0,56.0,27.0,50.0,53,3653.0,square1,j,0.1043,0,N,1.0
NS1,65.0,49.0,56.0,26.0,49.0,49,3702.0,square1,j,0.1376,0,N,1.0
NS1,66.0,47.0,61.0,29.0,50.0,47,3749.0,square1,j,0.0838,0,N,1.0
NS1,67.0,47.0,56.0,27.0,50.0,47,3796.0,square1,j,0.0253,0,N,1.0
NS1,68.0,47.0,64.0,29.0,48.0,47,3843.0,square1,j,0.0128,0,N,1.0
NS1,69.0,54.0,67.0,24.0,53.0,54,3897.0,square1,j,0.076,0,N,1.0
NS1,70.0,44.0,70.0,21.0,48.0,44,3941.0,square1,j,0.2796,0,N,1.0
NS1,71.0,45.0,67.0,26.0,52.0,52,3993.0,square4,r,0.1894,3,N,1.0
NS1,72.0,44.0,64.0,22.0,49.0,49,4042.0,square4,r,0.0957,3,N,1.0
NS1,73.0,43.0,60.0,23.0,51.0,51,4093.0,square4,r,0.1173,3,N,1.0
NS1,74.0,47.0,59.0,26.0,57.0,57,4150.0,square4,r,0.2047,3,N,1.0
NS1,75.0,44.0,56.0,27.0,51.0,51,4201.0,square4,r,0.1297,3,N,1.0
NS1,76.0,34.0,55.0,21.0,52.0,52,4253.0,square4,r,0.0461,3,N,1.0
NS1,77.0,39.0,64.0,17.0,55.0,55,4308.0,square4,r,0.3846,3,N,1.0
NS1,78.0,38.0,64.0,25.0,52.0,52,4360.0,square4,r,0.038,3,N,1.0
NS1,79.0,40.0,65.0,24.0,54.0,54,4414.0,square4,r,0.159,3,N,1.0
NS1,80.0,44.0,66.0,21.0,53.0,53,4467.0,square4,r,0.0878,3,N,1.0
NS1,81.0,50.0,60.0,27.0,54.0,54,4521.0,square4,r,0.3126,3,N,1.0
NS1,82.0,43.0,62.0,20.0,57.0,57,4578.0,square4,r,0.0006,3,N,1.0
NS1,83.0,44.0,55.0,24.0,59.0,59,4637.0,square4,r,0.3869,3,N,1.0
NS1,84.0,41.0,51.0,28.0,61.0,61,4698.0,square4,r,0.1921,3,N,1.0
NS1,85.0,49.0,49.0,29.0,70.0,70,4768.0,square4,r,0.209,3,N,1.0
NS1,86.0,47.0,44.0,26.0,66.0,47,4815.0,square1,j,0.4708,0,N,1.0
NS1,87.0,48.0,48.0,23.0,68.0,68,4883.0,square4,r,0.1589,3,N,1.0
NS1,88.0,46.0,51.0,20.0,70.0,20,4903.0,square3,i,0.086,2,N,1.0
NS1,89.0,45.0,50.0,17.0,75.0,75,4978.0,square4,r,0.1585,3,N,1.0
NS1,90.0,50.0,48.0,18.0,74.0,48,5026.0,square2,f,0.1836,1,N,1.0
NS1,91.0,46.0,53.0,17.0,67.0,67,5093.0,square4,r,0.1918,3,N,1.0
NS1,92.0,38.0,56.0,22.0,65.0,65,5158.0,square4,r,0.1708,3,N,1.0
NS1,93.0,38.0,53.0,22.0,66.0,66,5224.0,square4,r,0.1199,3,N,1.0
NS1,94.0,42.0,49.0,24.0,72.0,72,5296.0,square4,r,0.0921,3,N,1.0
NS1,95.0,44.0,48.0,25.0,70.0,70,5366.0,square4,r,0.3003,3,N,1.0
NS1,96.0,35.0,50.0,21.0,67.0,67,5433.0,square4,r,0.1763,3,N,1.0
NS1,97.0,43.0,55.0,16.0,72.0,72,5505.0,square4,r,0.1177,3,N,1.0
NS1,98.0,46.0,50.0,21.0,73.0,73,5578.0,square4,r,0.0713,3,N,1.0
NS1,99.0,43.0,46.0,27.0,71.0,71,5649.0,square4,r,0.1166,3,N,1.0
NS11,0.0,78.0,37.0,30.0,78.0,99999,0.0,invalid,,,-1,N,11.0
NS11,1.0,85.0,34.0,30.0,76.0,76,76.0,square4,i,1.4843,3,N,11.0
NS11,2.0,79.0,33.0,36.0,77.0,36,112.0,square3,j,0.4588,2,N,11.0
NS11,3.0,82.0,33.0,28.0,72.0,82,194.0,square1,f,0.2047,0,N,11.0
NS11,4.0,82.0,34.0,33.0,76.0,82,276.0,square1,f,0.1254,0,N,11.0
NS11,5.0,78.0,38.0,32.0,83.0,78,354.0,square1,f,0.1508,0,N,11.0
NS11,6.0,78.0,37.0,34.0,77.0,78,432.0,square1,f,0.2086,0,N,11.0
NS11,7.0,80.0,30.0,33.0,74.0,80,512.0,square1,f,0.2003,0,N,11.0
NS11,8.0,79.0,32.0,30.0,73.0,32,544.0,square2,r,0.367,1,N,11.0
NS11,9.0,81.0,41.0,34.0,61.0,81,625.0,square1,f,0.084,0,N,11.0
NS11,10.0,76.0,38.0,25.0,64.0,76,701.0,square1,f,0.1583,0,N,11.0
NS11,11.0,79.0,34.0,27.0,65.0,79,780.0,square1,f,0.0504,0,N,11.0
NS11,12.0,81.0,32.0,25.0,68.0,81,861.0,square1,f,0.0299,0,N,11.0
NS11,13.0,84.0,36.0,24.0,64.0,84,945.0,square1,f,0.183,0,N,11.0
NS11,14.0,80.0,30.0,24.0,61.0,80,1025.0,square1,f,0.0849,0,N,11.0
NS11,15.0,86.0,33.0,22.0,66.0,86,1111.0,square1,f,0.0668,0,N,11.0
NS11,16.0,85.0,32.0,20.0,64.0,85,1196.0,square1,f,0.009,0,N,11.0
NS11,17.0,83.0,32.0,22.0,71.0,83,1279.0,square1,f,0.0297,0,N,11.0
NS11,18.0,80.0,31.0,19.0,66.0,80,1359.0,square1,f,0.4132,0,N,11.0
NS11,19.0,75.0,40.0,23.0,69.0,75,1434.0,square1,f,0.1672,0,N,11.0
NS11,20.0,73.0,37.0,14.0,67.0,73,1507.0,square1,f,0.1037,0,N,11.0
NS11,21.0,81.0,34.0,23.0,70.0,81,1588.0,square1,f,0.2584,0,N,11.0
NS11,22.0,77.0,39.0,16.0,73.0,77,1665.0,square1,f,0.1298,0,N,11.0
NS11,23.0,78.0,30.0,23.0,74.0,78,1743.0,square1,f,0.1268,0,N,11.0
NS11,24.0,80.0,32.0,26.0,68.0,80,1823.0,square1,f,0.2022,0,N,11.0
NS11,25.0,81.0,29.0,29.0,73.0,81,1904.0,square1,f,0.1172,0,N,11.0
NS11,26.0,77.0,31.0,26.0,69.0,77,1981.0,square1,f,0.0903,0,N,11.0
NS11,27.0,69.0,47.0,29.0,64.0,69,2050.0,square1,f,0.1628,0,N,11.0
NS11,28.0,69.0,39.0,28.0,71.0,69,2119.0,square1,f,0.2009,0,N,11.0
NS11,29.0,71.0,41.0,24.0,66.0,71,2190.0,square1,f,0.0383,0,N,11.0
NS11,30.0,70.0,40.0,21.0,68.0,70,2260.0,square1,f,0.1883,0,N,11.0
NS11,31.0,72.0,44.0,21.0,68.0,72,2332.0,square1,f,0.067,0,N,11.0
NS11,32.0,72.0,41.0,19.0,75.0,72,2404.0,square1,f,0.1875,0,N,11.0
NS11,33.0,66.0,48.0,21.0,72.0,21,2425.0,square3,j,0.1003,2,N,11.0
NS11,34.0,67.0,48.0,24.0,72.0,72,2497.0,square4,i,0.5086,3,N,11.0
NS11,35.0,58.0,52.0,14.0,73.0,52,2549.0,square2,r,0.267,1,N,11.0
NS11,36.0,61.0,52.0,23.0,70.0,70,2619.0,square4,i,0.2426,3,N,11.0
NS11,37.0,50.0,55.0,29.0,67.0,50,2669.0,square1,f,0.2005,0,N,11.0
NS11,38.0,51.0,54.0,20.0,64.0,64,2733.0,square4,i,0.1463,3,N,11.0
NS11,39.0,54.0,49.0,26.0,63.0,63,2796.0,square4,i,0.138,3,N,11.0
NS11,40.0,50.0,47.0,24.0,70.0,70,2866.0,square4,i,0.153,3,N,11.0
NS11,41.0,54.0,46.0,23.0,63.0,63,2929.0,square4,i,0.0714,3,N,11.0
NS11,42.0,54.0,47.0,25.0,61.0,61,2990.0,square4,i,0.0491,3,N,11.0
NS11,43.0,46.0,49.0,33.0,72.0,72,3062.0,square4,i,0.1921,3,N,11.0
NS11,44.0,54.0,50.0,38.0,72.0,72,3134.0,square4,i,0.167,3,N,11.0
NS11,45.0,56.0,53.0,39.0,81.0,81,3215.0,square4,i,0.1006,3,N,11.0
NS11,46.0,57.0,55.0,33.0,77.0,77,3292.0,square4,i,0.0847,3,N,11.0
NS11,47.0,56.0,51.0,32.0,76.0,76,3368.0,square4,i,0.0378,3,N,11.0
NS11,48.0,58.0,49.0,29.0,85.0,85,3453.0,square4,i,0.0462,3,N,11.0
NS11,49.0,58.0,53.0,27.0,83.0,83,3536.0,square4,i,0.0275,3,N,11.0
NS11,50.0,62.0,49.0,24.0,80.0,80,3616.0,square4,i,0.0131,3,N,11.0
NS11,51.0,57.0,55.0,23.0,77.0,77,3693.0,square4,i,0.1007,3,N,11.0
NS11,52.0,56.0,55.0,20.0,77.0,77,3770.0,square4,i,0.0841,3,N,11.0
NS11,53.0,59.0,56.0,20.0,78.0,78,3848.0,square4,i,0.1917,3,N,11.0
NS11,54.0,58.0,57.0,27.0,74.0,74,3922.0,square4,i,0.2386,3,N,11.0
NS11,55.0,60.0,55.0,24.0,79.0,79,4001.0,square4,i,0.0546,3,N,11.0
NS11,56.0,60.0,52.0,22.0,77.0,77,4078.0,square4,i,0.1377,3,N,11.0
NS11,57.0,58.0,55.0,22.0,72.0,72,4150.0,square4,i,0.1349,3,N,11.0
NS11,58.0,63.0,52.0,22.0,75.0,75,4225.0,square4,i,0.2087,3,N,11.0
NS11,59.0,62.0,56.0,17.0,70.0,70,4295.0,square4,i,0.1714,3,N,11.0
NS11,60.0,61.0,55.0,22.0,70.0,70,4365.0,square4,i,0.2504,3,N,11.0
NS11,61.0,57.0,52.0,21.0,76.0,76,4441.0,square4,i,0.1588,3,N,11.0
NS11,62.0,57.0,48.0,28.0,75.0,75,4516.0,square4,i,0.0702,3,N,11.0
NS11,63.0,57.0,58.0,30.0,68.0,68,4584.0,square4,i,0.1365,3,N,11.0
NS11,64.0,61.0,61.0,27.0,74.0,74,4658.0,square4,i,0.1834,3,N,11.0
NS11,65.0,67.0,63.0,40.0,71.0,71,4729.0,square4,i,0.1501,3,N,11.0
NS11,66.0,69.0,55.0,38.0,73.0,73,4802.0,square4,i,0.1045,3,N,11.0
NS11,67.0,72.0,57.0,36.0,65.0,72,4874.0,square1,f,0.1993,0,N,11.0
NS11,68.0,71.0,61.0,36.0,64.0,64,4938.0,square4,i,0.0518,3,N,11.0
NS11,69.0,74.0,66.0,37.0,58.0,74,5012.0,square1,f,0.014,0,N,11.0
NS11,70.0,69.0,60.0,40.0,66.0,69,5081.0,square1,f,0.0964,0,N,11.0
NS11,71.0,71.0,58.0,40.0,64.0,71,5152.0,square1,f,0.0004,0,N,11.0
NS11,72.0,72.0,58.0,46.0,67.0,67,5219.0,square4,i,1.5506,3,N,11.0
NS11,73.0,72.0,56.0,47.0,65.0,72,5291.0,square1,f,0.1541,0,N,11.0
NS11,74.0,66.0,54.0,47.0,63.0,66,5357.0,square1,f,0.1388,0,N,11.0
NS11,75.0,75.0,53.0,43.0,58.0,75,5432.0,square1,f,0.038,0,N,11.0
NS11,76.0,75.0,48.0,40.0,59.0,75,5507.0,square1,f,0.1753,0,N,11.0
NS11,77.0,65.0,48.0,36.0,58.0,65,5572.0,square1,f,0.1084,0,N,11.0
NS11,78.0,70.0,45.0,37.0,59.0,70,5642.0,square1,f,0.0306,0,N,11.0
NS11,79.0,70.0,41.0,36.0,59.0,70,5712.0,square1,f,0.1342,0,N,11.0
NS11,80.0,73.0,43.0,39.0,59.0,73,5785.0,square1,f,0.0707,0,N,11.0
NS11,81.0,72.0,39.0,38.0,60.0,72,5857.0,square1,f,0.442,0,N,11.0
NS11,82.0,72.0,39.0,44.0,65.0,72,5929.0,square1,f,0.1173,0,N,11.0
NS11,83.0,68.0,38.0,40.0,61.0,40,5969.0,square3,j,0.2758,2,N,11.0
NS11,84.0,69.0,36.0,36.0,64.0,36,6005.0,square2,r,0.3254,1,N,11.0
NS11,85.0,70.0,34.0,40.0,69.0,69,6074.0,square4,i,0.2509,3,N,11.0
NS11,86.0,70.0,32.0,36.0,71.0,70,6144.0,square1,f,0.0423,0,N,11.0
NS11,87.0,69.0,31.0,37.0,70.0,69,6213.0,square1,f,0.1557,0,N,11.0
NS11,88.0,69.0,34.0,41.0,67.0,69,6282.0,square1,f,0.0287,0,N,11.0
NS11,89.0,67.0,39.0,44.0,67.0,67,6349.0,square1,f,0.0091,0,N,11.0
NS11,90.0,64.0,33.0,36.0,69.0,69,6418.0,square4,i,0.0728,3,N,11.0
NS11,91.0,60.0,33.0,38.0,67.0,67,6485.0,square4,i,0.3335,3,N,11.0
NS11,92.0,60.0,33.0,37.0,68.0,60,6545.0,square1,f,0.0793,0,N,11.0
NS11,93.0,54.0,36.0,38.0,73.0,73,6618.0,square4,i,0.1048,3,N,11.0
NS11,94.0,58.0,35.0,39.0,68.0,68,6686.0,square4,i,0.0267,3,N,11.0
NS11,95.0,50.0,38.0,32.0,77.0,77,6763.0,square4,i,0.2132,3,N,11.0
NS11,96.0,53.0,42.0,30.0,71.0,71,6834.0,square4,i,0.1891,3,N,11.0
NS11,97.0,54.0,38.0,32.0,75.0,75,6909.0,square4,i,0.0665,3,N,11.0
NS11,98.0,52.0,48.0,32.0,72.0,72,6981.0,square4,i,0.1673,3,N,11.0
NS11,99.0,55.0,45.0,33.0,73.0,73,7054.0,square4,i,0.0464,3,N,11.0
NS9,0.0,40.0,33.0,41.0,64.0,40,40.0,square1,r,0.6881,0,N,9.0
NS9,1.0,40.0,19.0,39.0,64.0,39,79.0,square3,i,0.2003,2,N,9.0
NS9,2.0,41.0,16.0,44.0,59.0,16,95.0,square2,j,0.1086,1,N,9.0
NS9,3.0,41.0,19.0,48.0,58.0,58,153.0,square4,f,0.1054,3,N,9.0
NS9,4.0,46.0,18.0,45.0,54.0,54,207.0,square4,f,0.0437,3,N,9.0
NS9,5.0,40.0,17.0,53.0,54.0,54,261.0,square4,f,0.0992,3,N,9.0
NS9,6.0,40.0,19.0,47.0,46.0,46,307.0,square4,f,0.0294,3,N,9.0
NS9,7.0,44.0,21.0,51.0,49.0,49,356.0,square4,f,0.0139,3,N,9.0
NS9,8.0,41.0,26.0,44.0,55.0,55,411.0,square4,f,0.2166,3,N,9.0
NS9,9.0,36.0,15.0,44.0,54.0,54,465.0,square4,f,0.1805,3,N,9.0
NS9,10.0,32.0,19.0,48.0,49.0,49,514.0,square4,f,0.2193,3,N,9.0
NS9,11.0,32.0,18.0,50.0,57.0,57,571.0,square4,f,0.1334,3,N,9.0
NS9,12.0,32.0,18.0,57.0,52.0,52,623.0,square4,f,0.2433,3,N,9.0
NS9,13.0,32.0,8.0,58.0,56.0,56,679.0,square4,f,0.0356,3,N,9.0
NS9,14.0,28.0,9.0,61.0,55.0,55,734.0,square4,f,0.1834,3,N,9.0
NS9,15.0,31.0,11.0,64.0,48.0,48,782.0,square4,f,0.1763,3,N,9.0
NS9,16.0,34.0,13.0,68.0,47.0,47,829.0,square4,f,0.9674,3,N,9.0
NS9,17.0,37.0,11.0,71.0,54.0,54,883.0,square4,f,0.5336,3,N,9.0
NS9,18.0,35.0,10.0,71.0,50.0,50,933.0,square4,f,0.0502,3,N,9.0
NS9,19.0,32.0,21.0,77.0,49.0,49,982.0,square4,f,0.2255,3,N,9.0
NS9,20.0,41.0,22.0,74.0,48.0,41,1023.0,square1,r,0.0003,0,N,9.0
NS9,21.0,40.0,21.0,75.0,50.0,75,1098.0,square3,i,0.088,2,N,9.0
NS9,22.0,42.0,23.0,72.0,54.0,72,1170.0,square3,i,0.1548,2,N,9.0
NS9,23.0,43.0,22.0,75.0,45.0,75,1245.0,square3,i,0.0211,2,N,9.0
NS9,24.0,41.0,18.0,70.0,49.0,70,1315.0,square3,i,0.003,2,N,9.0
NS9,25.0,38.0,21.0,75.0,53.0,75,1390.0,square3,i,0.1944,2,N,9.0
NS9,26.0,40.0,20.0,73.0,54.0,73,1463.0,square3,i,0.085,2,N,9.0
NS9,27.0,46.0,21.0,74.0,56.0,74,1537.0,square3,i,0.0584,2,N,9.0
NS9,28.0,51.0,25.0,72.0,58.0,72,1609.0,square3,i,0.1626,2,N,9.0
NS9,29.0,43.0,29.0,71.0,56.0,71,1680.0,square3,i,0.0251,2,N,9.0
NS9,30.0,38.0,26.0,71.0,52.0,71,1751.0,square3,i,0.0004,2,N,9.0
NS9,31.0,43.0,23.0,73.0,53.0,73,1824.0,square3,i,0.1792,2,N,9.0
NS9,32.0,43.0,24.0,76.0,52.0,76,1900.0,square3,i,0.2211,2,N,9.0
NS9,33.0,41.0,18.0,72.0,49.0,72,1972.0,square3,i,0.146,2,N,9.0
NS9,34.0,36.0,26.0,68.0,55.0,68,2040.0,square3,i,0.2086,2,N,9.0
NS9,35.0,34.0,34.0,68.0,52.0,68,2108.0,square3,i,0.1753,2,N,9.0
NS9,36.0,34.0,43.0,70.0,49.0,70,2178.0,square3,i,0.0046,2,N,9.0
NS9,37.0,32.0,41.0,61.0,47.0,61,2239.0,square3,i,0.0417,2,N,9.0
NS9,38.0,28.0,41.0,65.0,47.0,41,2280.0,square2,j,0.0316,1,N,9.0
NS9,39.0,28.0,43.0,61.0,48.0,48,2328.0,square4,f,0.0968,3,N,9.0
NS9,40.0,26.0,46.0,65.0,39.0,65,2393.0,square3,i,0.1461,2,N,9.0
NS9,41.0,21.0,38.0,62.0,41.0,21,2414.0,square1,r,0.1206,0,N,9.0
NS9,42.0,18.0,37.0,59.0,42.0,59,2473.0,square3,i,0.0419,2,N,9.0
NS9,43.0,18.0,44.0,57.0,39.0,57,2530.0,square3,i,0.1003,2,N,9.0
NS9,44.0,19.0,43.0,58.0,36.0,58,2588.0,square3,i,0.1583,2,N,9.0
NS9,45.0,23.0,42.0,53.0,39.0,53,2641.0,square3,i,0.0834,2,N,9.0
NS9,46.0,22.0,48.0,58.0,43.0,58,2699.0,square3,i,0.1267,2,N,9.0
NS9,47.0,20.0,47.0,51.0,44.0,51,2750.0,square3,i,0.1247,2,N,9.0
NS9,48.0,21.0,43.0,57.0,40.0,57,2807.0,square3,i,0.0672,2,N,9.0
NS9,49.0,25.0,38.0,59.0,46.0,59,2866.0,square3,i,0.0003,2,N,9.0
NS9,50.0,27.0,41.0,49.0,52.0,49,2915.0,square3,i,0.1503,2,N,9.0
NS9,51.0,20.0,42.0,52.0,54.0,52,2967.0,square3,i,0.1369,2,N,9.0
NS9,52.0,18.0,41.0,51.0,48.0,51,3018.0,square3,i,0.0917,2,N,9.0
NS9,53.0,17.0,43.0,52.0,50.0,52,3070.0,square3,i,0.2088,2,N,9.0
NS9,54.0,27.0,37.0,55.0,56.0,55,3125.0,square3,i,0.1713,2,N,9.0
NS9,55.0,30.0,38.0,59.0,50.0,59,3184.0,square3,i,0.1046,2,N,9.0
NS9,56.0,32.0,49.0,54.0,59.0,54,3238.0,square3,i,0.0707,2,N,9.0
NS9,57.0,34.0,50.0,50.0,58.0,50,3288.0,square3,i,0.18,2,N,9.0
NS9,58.0,28.0,49.0,54.0,51.0,54,3342.0,square3,i,0.2043,2,N,9.0
NS9,59.0,26.0,47.0,46.0,49.0,46,3388.0,square3,i,0.088,2,N,9.0
NS9,60.0,30.0,47.0,50.0,51.0,50,3438.0,square3,i,0.1668,2,N,9.0
NS9,61.0,29.0,43.0,51.0,50.0,51,3489.0,square3,i,0.1543,2,N,9.0
NS9,62.0,32.0,42.0,52.0,54.0,52,3541.0,square3,i,0.0874,2,N,9.0
NS9,63.0,35.0,45.0,57.0,46.0,57,3598.0,square3,i,0.1123,2,N,9.0
NS9,64.0,37.0,41.0,53.0,44.0,53,3651.0,square3,i,0.1755,2,N,9.0
NS9,65.0,34.0,41.0,50.0,49.0,50,3701.0,square3,i,0.0341,2,N,9.0
NS9,66.0,38.0,43.0,46.0,53.0,46,3747.0,square3,i,0.0503,2,N,9.0
NS9,67.0,36.0,35.0,51.0,54.0,51,3798.0,square3,i,0.1729,2,N,9.0
NS9,68.0,43.0,38.0,48.0,57.0,48,3846.0,square3,i,0.6585,2,N,9.0
NS9,69.0,42.0,42.0,48.0,49.0,48,3894.0,square3,i,0.5715,2,N,9.0
NS9,70.0,45.0,40.0,50.0,51.0,50,3944.0,square3,i,0.0385,2,N,9.0
NS9,71.0,49.0,42.0,48.0,52.0,48,3992.0,square3,i,0.0334,2,N,9.0
NS9,72.0,39.0,44.0,47.0,58.0,47,4039.0,square3,i,0.405,2,N,9.0
NS9,73.0,40.0,45.0,45.0,62.0,45,4084.0,square3,i,0.8481,2,N,9.0
NS9,74.0,46.0,48.0,47.0,56.0,47,4131.0,square3,i,0.6961,2,N,9.0
NS9,75.0,35.0,39.0,53.0,65.0,53,4184.0,square3,i,0.3346,2,N,9.0
NS9,76.0,40.0,45.0,56.0,67.0,56,4240.0,square3,i,0.2708,2,N,9.0
NS9,77.0,38.0,46.0,54.0,69.0,54,4294.0,square3,i,0.3921,2,N,9.0
NS9,78.0,37.0,42.0,53.0,69.0,53,4347.0,square3,i,0.3472,2,N,9.0
NS9,79.0,40.0,44.0,53.0,70.0,53,4400.0,square3,i,0.2332,2,N,9.0
NS9,80.0,37.0,50.0,55.0,70.0,37,4437.0,square1,r,0.1744,0,N,9.0
NS9,81.0,33.0,54.0,54.0,63.0,63,4500.0,square4,f,0.1667,3,N,9.0
NS9,82.0,35.0,55.0,52.0,74.0,74,4574.0,square4,f,0.0931,3,N,9.0
NS9,83.0,34.0,48.0,56.0,75.0,75,4649.0,square4,f,0.0673,3,N,9.0
NS9,84.0,39.0,51.0,62.0,78.0,78,4727.0,square4,f,0.1041,3,N,9.0
NS9,85.0,38.0,57.0,55.0,77.0,77,4804.0,square4,f,0.2979,3,N,9.0
NS9,86.0,34.0,53.0,57.0,68.0,68,4872.0,square4,f,0.2076,3,N,9.0
NS9,87.0,35.0,48.0,55.0,69.0,69,4941.0,square4,f,0.1253,3,N,9.0
NS9,88.0,41.0,48.0,50.0,69.0,69,5010.0,square4,f,0.0472,3,N,9.0
NS9,89.0,38.0,54.0,55.0,70.0,70,5080.0,square4,f,0.0638,3,N,9.0
NS9,90.0,43.0,55.0,49.0,71.0,71,5151.0,square4,f,0.1043,3,N,9.0
NS9,91.0,41.0,46.0,54.0,78.0,78,5229.0,square4,f,0.0972,3,N,9.0
NS9,92.0,40.0,42.0,41.0,72.0,72,5301.0,square4,f,0.0426,3,N,9.0
NS9,93.0,39.0,43.0,47.0,70.0,70,5371.0,square4,f,0.0677,3,N,9.0
NS9,94.0,36.0,47.0,43.0,80.0,80,5451.0,square4,f,0.1083,3,N,9.0
NS9,95.0,37.0,46.0,43.0,75.0,75,5526.0,square4,f,0.0461,3,N,9.0
NS9,96.0,39.0,47.0,47.0,75.0,75,5601.0,square4,f,0.0171,3,N,9.0
NS9,97.0,35.0,41.0,49.0,80.0,80,5681.0,square4,f,0.2087,3,N,9.0
NS9,98.0,33.0,45.0,56.0,74.0,74,5755.0,square4,f,0.2877,3,N,9.0
NS9,99.0,34.0,42.0,58.0,74.0,74,5829.0,square4,f,0.0507,3,N,9.0
V4,0.0,63.0,38.0,47.0,55.0,38,38.0,square2,r,0.5371,1,V,4.0
V4,1.0,66.0,42.0,43.0,59.0,43,81.0,square3,j,0.079,2,V,4.0
V4,2.0,66.0,39.0,57.0,59.0,59,140.0,square4,i,0.1073,3,V,4.0
V4,3.0,66.0,37.0,51.0,59.0,66,206.0,square1,f,0.0377,0,V,4.0
V4,4.0,69.0,37.0,50.0,55.0,37,243.0,square2,r,0.0997,1,V,4.0
V4,5.0,64.0,44.0,46.0,62.0,44,287.0,square2,r,0.1047,1,V,4.0
V4,6.0,75.0,43.0,49.0,57.0,43,330.0,square2,r,0.1131,1,V,4.0
V4,7.0,62.0,41.0,52.0,59.0,41,371.0,square2,r,0.03,1,V,4.0
V4,8.0,65.0,41.0,44.0,60.0,44,415.0,square3,j,0.0113,2,V,4.0
V4,9.0,68.0,35.0,44.0,64.0,35,450.0,square2,r,0.1083,1,V,4.0
V4,10.0,67.0,44.0,48.0,61.0,61,511.0,square4,i,0.0294,3,V,4.0
V4,11.0,61.0,40.0,48.0,56.0,40,551.0,square2,r,0.2004,1,V,4.0
V4,12.0,68.0,41.0,49.0,55.0,55,606.0,square4,i,0.3013,3,V,4.0
V4,13.0,63.0,42.0,47.0,60.0,42,648.0,square2,r,0.1128,1,V,4.0
V4,14.0,63.0,40.0,51.0,55.0,55,703.0,square4,i,0.0842,3,V,4.0
V4,15.0,62.0,41.0,52.0,62.0,62,765.0,square4,i,0.0878,3,V,4.0
V4,16.0,69.0,37.0,47.0,60.0,60,825.0,square4,i,0.0979,3,V,4.0
V4,17.0,66.0,40.0,48.0,56.0,56,881.0,square4,i,0.0959,3,V,4.0
V4,18.0,67.0,43.0,47.0,59.0,59,940.0,square4,i,0.1528,3,V,4.0
V4,19.0,64.0,42.0,51.0,59.0,59,999.0,square4,i,0.0499,3,V,4.0
V4,20.0,67.0,40.0,47.0,58.0,58,1057.0,square4,i,0.1045,3,V,4.0
V4,21.0,60.0,41.0,50.0,59.0,59,1116.0,square4,i,0.117,3,V,4.0
V4,22.0,66.0,43.0,54.0,55.0,55,1171.0,square4,i,0.1763,3,V,4.0
V4,23.0,67.0,37.0,50.0,62.0,62,1233.0,square4,i,0.088,3,V,4.0
V4,24.0,67.0,37.0,49.0,60.0,60,1293.0,square4,i,0.036,3,V,4.0
V4,25.0,67.0,39.0,55.0,52.0,52,1345.0,square4,i,0.0587,3,V,4.0
V4,26.0,64.0,39.0,51.0,63.0,63,1408.0,square4,i,0.1468,3,V,4.0
V4,27.0,68.0,36.0,55.0,60.0,60,1468.0,square4,i,0.0919,3,V,4.0
V4,28.0,67.0,40.0,46.0,54.0,54,1522.0,square4,i,0.0149,3,V,4.0
V4,29.0,67.0,41.0,50.0,57.0,57,1579.0,square4,i,0.1005,3,V,4.0
V4,30.0,66.0,39.0,49.0,53.0,53,1632.0,square4,i,0.0774,3,V,4.0
V4,31.0,70.0,38.0,48.0,58.0,58,1690.0,square4,i,0.163,3,V,4.0
V4,32.0,63.0,40.0,53.0,61.0,61,1751.0,square4,i,0.1464,3,V,4.0
V4,33.0,66.0,41.0,51.0,56.0,56,1807.0,square4,i,0.2378,3,V,4.0
V4,34.0,64.0,39.0,46.0,57.0,57,1864.0,square4,i,0.0169,3,V,4.0
V4,35.0,69.0,36.0,50.0,58.0,58,1922.0,square4,i,0.1883,3,V,4.0
V4,36.0,60.0,43.0,53.0,54.0,54,1976.0,square4,i,0.0095,3,V,4.0
V4,37.0,52.0,78.0,68.0,66.0,66,2042.0,square4,i,0.1471,3,V,4.0
V4,38.0,44.0,81.0,68.0,62.0,62,2104.0,square4,i,0.0906,3,V,4.0
V4,39.0,59.0,71.0,70.0,63.0,63,2167.0,square4,i,0.1794,3,V,4.0
V4,40.0,53.0,77.0,73.0,59.0,59,2226.0,square4,i,0.0517,3,V,4.0
V4,41.0,53.0,76.0,74.0,66.0,66,2292.0,square4,i,0.3836,3,V,4.0
V4,42.0,51.0,79.0,73.0,59.0,59,2351.0,square4,i,0.2514,3,V,4.0
V4,43.0,48.0,76.0,68.0,65.0,65,2416.0,square4,i,0.0836,3,V,4.0
V4,44.0,57.0,83.0,78.0,63.0,63,2479.0,square4,i,0.2712,3,V,4.0
V4,45.0,54.0,74.0,69.0,61.0,61,2540.0,square4,i,0.1006,3,V,4.0
V4,46.0,53.0,85.0,66.0,62.0,62,2602.0,square4,i,0.0633,3,V,4.0
V4,47.0,56.0,83.0,68.0,57.0,57,2659.0,square4,i,0.0884,3,V,4.0
V4,48.0,49.0,74.0,73.0,59.0,59,2718.0,square4,i,0.2141,3,V,4.0
V4,49.0,54.0,74.0,70.0,60.0,60,2778.0,square4,i,0.0544,3,V,4.0
V4,50.0,47.0,83.0,69.0,60.0,60,2838.0,square4,i,0.0709,3,V,4.0
V4,51.0,54.0,78.0,73.0,56.0,56,2894.0,square4,i,0.2546,3,V,4.0
V4,52.0,52.0,76.0,71.0,58.0,58,2952.0,square4,i,0.1321,3,V,4.0
V4,53.0,51.0,82.0,76.0,63.0,51,3003.0,square1,f,0.2382,0,V,4.0
V4,54.0,57.0,76.0,69.0,64.0,76,3079.0,square2,r,0.3362,1,V,4.0
V4,55.0,49.0,75.0,68.0,59.0,75,3154.0,square2,r,0.0903,1,V,4.0
V4,56.0,55.0,81.0,66.0,65.0,81,3235.0,square2,r,0.3499,1,V,4.0
V4,57.0,58.0,80.0,72.0,63.0,80,3315.0,square2,r,0.0253,1,V,4.0
V4,58.0,49.0,81.0,66.0,62.0,81,3396.0,square2,r,0.1972,1,V,4.0
V4,59.0,57.0,78.0,73.0,59.0,78,3474.0,square2,r,0.0998,1,V,4.0
V4,60.0,48.0,79.0,66.0,59.0,79,3553.0,square2,r,0.0607,1,V,4.0
V4,61.0,53.0,80.0,72.0,60.0,80,3633.0,square2,r,0.3004,1,V,4.0
V4,62.0,53.0,79.0,70.0,61.0,79,3712.0,square2,r,0.0626,1,V,4.0
V4,63.0,81.0,66.0,90.0,66.0,66,3778.0,square2,r,0.0776,1,V,4.0
V4,64.0,80.0,64.0,85.0,76.0,64,3842.0,square2,r,0.2145,1,V,4.0
V4,65.0,77.0,61.0,92.0,74.0,74,3916.0,square4,i,0.0958,3,V,4.0
V4,66.0,89.0,65.0,91.0,73.0,73,3989.0,square4,i,0.1166,3,V,4.0
V4,67.0,86.0,64.0,92.0,70.0,70,4059.0,square4,i,0.1338,3,V,4.0
V4,68.0,82.0,60.0,91.0,77.0,77,4136.0,square4,i,0.0254,3,V,4.0
V4,69.0,78.0,69.0,90.0,70.0,70,4206.0,square4,i,0.0748,3,V,4.0
V4,70.0,85.0,64.0,95.0,73.0,73,4279.0,square4,i,0.0795,3,V,4.0
V4,71.0,85.0,61.0,88.0,69.0,69,4348.0,square4,i,0.1606,3,V,4.0
V4,72.0,86.0,63.0,87.0,75.0,75,4423.0,square4,i,0.0373,3,V,4.0
V4,73.0,86.0,69.0,92.0,70.0,92,4515.0,square3,j,0.0341,2,V,4.0
V4,74.0,81.0,62.0,90.0,69.0,90,4605.0,square3,j,0.0624,2,V,4.0
V4,75.0,83.0,66.0,88.0,74.0,88,4693.0,square3,j,0.1215,2,V,4.0
V4,76.0,80.0,64.0,92.0,75.0,92,4785.0,square3,j,0.0965,2,V,4.0
V4,77.0,81.0,65.0,91.0,74.0,91,4876.0,square3,j,0.1292,2,V,4.0
V4,78.0,78.0,70.0,89.0,73.0,89,4965.0,square3,j,0.0626,2,V,4.0
V4,79.0,84.0,66.0,85.0,75.0,85,5050.0,square3,j,0.1342,2,V,4.0
V4,80.0,83.0,65.0,93.0,74.0,93,5143.0,square3,j,0.0588,2,V,4.0
V4,81.0,86.0,59.0,91.0,74.0,91,5234.0,square3,j,0.2143,2,V,4.0
V4,82.0,87.0,64.0,92.0,73.0,92,5326.0,square3,j,0.1464,2,V,4.0
V4,83.0,83.0,68.0,86.0,70.0,86,5412.0,square3,j,0.1565,2,V,4.0
V4,84.0,82.0,62.0,87.0,73.0,87,5499.0,square3,j,0.0004,2,V,4.0
V4,85.0,85.0,61.0,90.0,70.0,90,5589.0,square3,j,0.0061,2,V,4.0
V4,86.0,84.0,66.0,97.0,71.0,97,5686.0,square3,j,0.1878,2,V,4.0
V4,87.0,82.0,64.0,87.0,71.0,87,5773.0,square3,j,0.0108,2,V,4.0
V4,88.0,80.0,67.0,93.0,72.0,93,5866.0,square3,j,0.0169,2,V,4.0
V4,89.0,78.0,64.0,92.0,75.0,78,5944.0,square1,f,0.0311,0,V,4.0
V4,90.0,75.0,66.0,88.0,72.0,88,6032.0,square3,j,0.1085,2,V,4.0
V4,91.0,82.0,59.0,91.0,76.0,76,6108.0,square4,i,0.0212,3,V,4.0
V4,92.0,84.0,62.0,91.0,70.0,62,6170.0,square2,r,0.0927,1,V,4.0
V4,93.0,80.0,61.0,94.0,76.0,94,6264.0,square3,j,0.092,2,V,4.0
V4,94.0,83.0,64.0,88.0,72.0,88,6352.0,square3,j,0.0838,2,V,4.0
V4,95.0,82.0,60.0,94.0,69.0,94,6446.0,square3,j,0.1279,2,V,4.0
V4,96.0,84.0,63.0,92.0,72.0,92,6538.0,square3,j,0.1672,2,V,4.0
V4,97.0,84.0,62.0,85.0,70.0,85,6623.0,square3,j,0.0292,2,V,4.0
V4,98.0,81.0,64.0,93.0,72.0,93,6716.0,square3,j,0.0335,2,V,4.0
V4,99.0,80.0,61.0,92.0,75.0,92,6808.0,square3,j,0.0004,2,V,4.0
V6,0.0,43.0,59.0,68.0,49.0,43,43.0,square1,r,0.6945,0,V,6.0
V6,1.0,43.0,62.0,71.0,50.0,62,105.0,square2,j,0.0306,1,V,6.0
V6,2.0,48.0,61.0,72.0,51.0,72,177.0,square3,i,0.0585,2,V,6.0
V6,3.0,46.0,55.0,71.0,51.0,51,228.0,square4,f,0.0412,3,V,6.0
V6,4.0,44.0,61.0,74.0,48.0,74,302.0,square3,i,0.0355,2,V,6.0
V6,5.0,45.0,62.0,70.0,51.0,70,372.0,square3,i,0.0878,2,V,6.0
V6,6.0,42.0,67.0,73.0,46.0,73,445.0,square3,i,0.0606,2,V,6.0
V6,7.0,44.0,63.0,71.0,53.0,71,516.0,square3,i,0.0547,2,V,6.0
V6,8.0,41.0,62.0,73.0,52.0,73,589.0,square3,i,0.0252,2,V,6.0
V6,9.0,46.0,59.0,72.0,54.0,72,661.0,square3,i,0.0128,2,V,6.0
V6,10.0,45.0,59.0,70.0,53.0,70,731.0,square3,i,0.1681,2,V,6.0
V6,11.0,45.0,60.0,70.0,49.0,70,801.0,square3,i,0.022,2,V,6.0
V6,12.0,45.0,66.0,64.0,48.0,64,865.0,square3,i,0.0628,2,V,6.0
V6,13.0,45.0,61.0,69.0,47.0,45,910.0,square1,r,0.5909,0,V,6.0
V6,14.0,47.0,60.0,71.0,56.0,60,970.0,square2,j,0.1088,1,V,6.0
V6,15.0,46.0,64.0,67.0,52.0,52,1022.0,square4,f,0.0004,3,V,6.0
V6,16.0,50.0,60.0,69.0,54.0,69,1091.0,square3,i,0.133,2,V,6.0
V6,17.0,43.0,60.0,70.0,53.0,70,1161.0,square3,i,0.0377,2,V,6.0
V6,18.0,46.0,63.0,72.0,55.0,72,1233.0,square3,i,0.0754,2,V,6.0
V6,19.0,46.0,65.0,73.0,51.0,73,1306.0,square3,i,0.1273,2,V,6.0
V6,20.0,44.0,63.0,66.0,51.0,66,1372.0,square3,i,0.0819,2,V,6.0
V6,21.0,43.0,63.0,70.0,49.0,70,1442.0,square3,i,0.0314,2,V,6.0
V6,22.0,45.0,63.0,71.0,50.0,71,1513.0,square3,i,0.0711,2,V,6.0
V6,23.0,45.0,38.0,28.0,60.0,28,1541.0,square3,i,0.0296,2,V,6.0
V6,24.0,46.0,33.0,33.0,53.0,33,1574.0,square2,j,0.1339,1,V,6.0
V6,25.0,45.0,36.0,32.0,63.0,63,1637.0,square4,f,0.0418,3,V,6.0
V6,26.0,52.0,37.0,28.0,57.0,52,1689.0,square1,r,0.1594,0,V,6.0
V6,27.0,45.0,33.0,30.0,62.0,62,1751.0,square4,f,0.1023,3,V,6.0
V6,28.0,43.0,37.0,24.0,51.0,51,1802.0,square4,f,0.1211,3,V,6.0
V6,29.0,48.0,39.0,34.0,61.0,48,1850.0,square1,r,0.1429,0,V,6.0
V6,30.0,48.0,44.0,35.0,59.0,44,1894.0,square2,j,0.292,1,V,6.0
V6,31.0,50.0,39.0,34.0,53.0,34,1928.0,square3,i,0.0091,2,V,6.0
V6,32.0,44.0,33.0,33.0,54.0,54,1982.0,square4,f,0.0486,3,V,6.0
V6,33.0,48.0,37.0,30.0,56.0,56,2038.0,square4,f,0.1629,3,V,6.0
V6,34.0,52.0,37.0,27.0,59.0,59,2097.0,square4,f,0.1545,3,V,6.0
V6,35.0,47.0,32.0,29.0,59.0,59,2156.0,square4,f,0.1004,3,V,6.0
V6,36.0,45.0,37.0,27.0,56.0,56,2212.0,square4,f,0.1839,3,V,6.0
V6,37.0,39.0,37.0,31.0,57.0,39,2251.0,square1,r,0.1378,0,V,6.0
V6,38.0,50.0,38.0,29.0,56.0,38,2289.0,square2,j,0.1255,1,V,6.0
V6,39.0,48.0,37.0,27.0,57.0,27,2316.0,square3,i,0.0434,2,V,6.0
V6,40.0,53.0,37.0,29.0,57.0,57,2373.0,square4,f,0.0711,3,V,6.0
V6,41.0,41.0,34.0,33.0,58.0,58,2431.0,square4,f,0.2134,3,V,6.0
V6,42.0,50.0,37.0,31.0,57.0,57,2488.0,square4,f,0.1089,3,V,6.0
V6,43.0,48.0,34.0,30.0,58.0,58,2546.0,square4,f,0.1213,3,V,6.0
V6,44.0,44.0,37.0,33.0,60.0,60,2606.0,square4,f,0.0585,3,V,6.0
V6,45.0,44.0,32.0,33.0,55.0,55,2661.0,square4,f,0.1042,3,V,6.0
V6,46.0,44.0,36.0,33.0,59.0,59,2720.0,square4,f,0.1786,3,V,6.0
V6,47.0,42.0,34.0,29.0,52.0,52,2772.0,square4,f,0.0875,3,V,6.0
V6,48.0,46.0,41.0,28.0,60.0,60,2832.0,square4,f,0.0753,3,V,6.0
V6,49.0,46.0,40.0,27.0,55.0,55,2887.0,square4,f,0.088,3,V,6.0
V6,50.0,46.0,41.0,32.0,55.0,55,2942.0,square4,f,0.2623,3,V,6.0
V6,51.0,41.0,39.0,30.0,55.0,55,2997.0,square4,f,0.0633,3,V,6.0
V6,52.0,47.0,37.0,31.0,55.0,55,3052.0,square4,f,0.0653,3,V,6.0
V6,53.0,57.0,36.0,30.0,58.0,58,3110.0,square4,f,0.2332,3,V,6.0
V6,54.0,42.0,38.0,28.0,50.0,50,3160.0,square4,f,0.04,3,V,6.0
V6,55.0,56.0,42.0,67.0,46.0,46,3206.0,square4,f,0.4875,3,V,6.0
V6,56.0,54.0,37.0,68.0,46.0,46,3252.0,square4,f,0.0004,3,V,6.0
V6,57.0,57.0,40.0,64.0,52.0,52,3304.0,square4,f,0.042,3,V,6.0
V6,58.0,53.0,45.0,68.0,45.0,45,3349.0,square4,f,0.1394,3,V,6.0
V6,59.0,59.0,41.0,69.0,49.0,49,3398.0,square4,f,0.0796,3,V,6.0
V6,60.0,62.0,41.0,71.0,51.0,51,3449.0,square4,f,0.1956,3,V,6.0
V6,61.0,58.0,50.0,72.0,51.0,51,3500.0,square4,f,0.0338,3,V,6.0
V6,62.0,61.0,43.0,65.0,47.0,47,3547.0,square4,f,0.1587,3,V,6.0
V6,63.0,55.0,40.0,67.0,51.0,55,3602.0,square1,r,0.8264,0,V,6.0
V6,64.0,56.0,43.0,67.0,47.0,56,3658.0,square1,r,0.086,0,V,6.0
V6,65.0,62.0,46.0,67.0,48.0,67,3725.0,square3,i,0.0542,2,V,6.0
V6,66.0,55.0,44.0,67.0,48.0,44,3769.0,square2,j,0.0419,1,V,6.0
V6,67.0,61.0,46.0,70.0,49.0,70,3839.0,square3,i,0.263,2,V,6.0
V6,68.0,63.0,41.0,72.0,46.0,72,3911.0,square3,i,0.1856,2,V,6.0
V6,69.0,59.0,41.0,68.0,48.0,68,3979.0,square3,i,0.0746,2,V,6.0
V6,70.0,59.0,37.0,70.0,45.0,70,4049.0,square3,i,0.01,2,V,6.0
V6,71.0,83.0,64.0,56.0,70.0,56,4105.0,square3,i,0.1261,2,V,6.0
V6,72.0,82.0,59.0,53.0,75.0,53,4158.0,square3,i,0.1044,2,V,6.0
V6,73.0,85.0,67.0,58.0,73.0,58,4216.0,square3,i,0.0347,2,V,6.0
V6,74.0,79.0,67.0,61.0,73.0,61,4277.0,square3,i,0.1293,2,V,6.0
V6,75.0,84.0,62.0,53.0,69.0,53,4330.0,square3,i,0.0397,2,V,6.0
V6,76.0,81.0,60.0,55.0,76.0,81,4411.0,square1,r,0.267,0,V,6.0
V6,77.0,84.0,61.0,60.0,72.0,84,4495.0,square1,r,0.0122,0,V,6.0
V6,78.0,90.0,61.0,54.0,74.0,90,4585.0,square1,r,0.0003,0,V,6.0
V6,79.0,80.0,64.0,51.0,75.0,80,4665.0,square1,r,0.0298,0,V,6.0
V6,80.0,85.0,62.0,56.0,78.0,85,4750.0,square1,r,0.1546,0,V,6.0
V6,81.0,86.0,65.0,58.0,69.0,86,4836.0,square1,r,0.1735,0,V,6.0
V6,82.0,83.0,62.0,58.0,77.0,83,4919.0,square1,r,0.0752,0,V,6.0
V6,83.0,87.0,61.0,59.0,70.0,87,5006.0,square1,r,0.0523,0,V,6.0
V6,84.0,89.0,65.0,54.0,78.0,89,5095.0,square1,r,0.0833,0,V,6.0
V6,85.0,78.0,63.0,55.0,75.0,78,5173.0,square1,r,0.2086,0,V,6.0
V6,86.0,87.0,67.0,52.0,75.0,87,5260.0,square1,r,0.1154,0,V,6.0
V6,87.0,86.0,62.0,60.0,75.0,86,5346.0,square1,r,0.1877,0,V,6.0
V6,88.0,79.0,67.0,56.0,76.0,76,5422.0,square4,f,0.0253,3,V,6.0
V6,89.0,83.0,61.0,57.0,75.0,57,5479.0,square3,i,0.7251,2,V,6.0
V6,90.0,83.0,67.0,51.0,76.0,83,5562.0,square1,r,0.285,0,V,6.0
V6,91.0,83.0,63.0,55.0,69.0,83,5645.0,square1,r,0.0582,0,V,6.0
V6,92.0,89.0,56.0,53.0,68.0,89,5734.0,square1,r,0.4756,0,V,6.0
V6,93.0,84.0,61.0,59.0,74.0,84,5818.0,square1,r,0.0888,0,V,6.0
V6,94.0,77.0,58.0,58.0,76.0,77,5895.0,square1,r,0.195,0,V,6.0
V6,95.0,82.0,60.0,53.0,74.0,82,5977.0,square1,r,0.1334,0,V,6.0
V6,96.0,87.0,61.0,56.0,71.0,87,6064.0,square1,r,0.2492,0,V,6.0
V6,97.0,83.0,66.0,55.0,75.0,83,6147.0,square1,r,0.1601,0,V,6.0
V6,98.0,81.0,63.0,55.0,76.0,81,6228.0,square1,r,0.0004,0,V,6.0
V6,99.0,92.0,63.0,61.0,78.0,92,6320.0,square1,r,0.1722,0,V,6.0
V2,0.0,33.0,24.0,43.0,18.0,24,24.0,square2,r,0.3196,1,V,2.0
V2,1.0,33.0,29.0,42.0,21.0,42,66.0,square3,j,0.0952,2,V,2.0
V2,2.0,37.0,26.0,45.0,22.0,22,88.0,square4,i,0.0378,3,V,2.0
V2,3.0,39.0,26.0,41.0,20.0,39,127.0,square1,f,0.1546,0,V,2.0
V2,4.0,29.0,32.0,45.0,19.0,45,172.0,square3,j,0.0588,2,V,2.0
V2,5.0,33.0,28.0,44.0,17.0,44,216.0,square3,j,0.0051,2,V,2.0
V2,6.0,32.0,24.0,49.0,20.0,49,265.0,square3,j,0.0931,2,V,2.0
V2,7.0,32.0,21.0,42.0,13.0,42,307.0,square3,j,0.0261,2,V,2.0
V2,8.0,35.0,23.0,45.0,19.0,45,352.0,square3,j,0.1312,2,V,2.0
V2,9.0,33.0,28.0,46.0,17.0,46,398.0,square3,j,0.1463,2,V,2.0
V2,10.0,39.0,27.0,45.0,21.0,39,437.0,square1,f,0.0876,0,V,2.0
V2,11.0,30.0,23.0,44.0,22.0,44,481.0,square3,j,0.1924,2,V,2.0
V2,12.0,31.0,26.0,43.0,16.0,16,497.0,square4,i,0.0964,3,V,2.0
V2,13.0,35.0,26.0,43.0,22.0,26,523.0,square2,r,0.406,1,V,2.0
V2,14.0,35.0,29.0,46.0,19.0,46,569.0,square3,j,0.2336,2,V,2.0
V2,15.0,36.0,22.0,44.0,20.0,44,613.0,square3,j,0.0375,2,V,2.0
V2,16.0,33.0,27.0,45.0,19.0,45,658.0,square3,j,0.12,2,V,2.0
V2,17.0,35.0,25.0,41.0,15.0,41,699.0,square3,j,0.1337,2,V,2.0
V2,18.0,37.0,27.0,51.0,21.0,51,750.0,square3,j,0.167,2,V,2.0
V2,19.0,33.0,25.0,43.0,18.0,43,793.0,square3,j,0.1473,2,V,2.0
V2,20.0,39.0,25.0,43.0,20.0,43,836.0,square3,j,0.1511,2,V,2.0
V2,21.0,27.0,32.0,43.0,24.0,43,879.0,square3,j,0.1918,2,V,2.0
V2,22.0,35.0,27.0,50.0,13.0,35,914.0,square1,f,0.2463,0,V,2.0
V2,23.0,36.0,25.0,39.0,17.0,39,953.0,square3,j,0.1153,2,V,2.0
V2,24.0,32.0,45.0,39.0,59.0,39,992.0,square3,j,0.1629,2,V,2.0
V2,25.0,26.0,43.0,37.0,55.0,37,1029.0,square3,j,0.0378,2,V,2.0
V2,26.0,23.0,45.0,39.0,58.0,39,1068.0,square3,j,0.1213,2,V,2.0
V2,27.0,30.0,44.0,40.0,56.0,40,1108.0,square3,j,0.0338,2,V,2.0
V2,28.0,34.0,48.0,41.0,54.0,41,1149.0,square3,j,0.0975,2,V,2.0
V2,29.0,29.0,42.0,35.0,54.0,35,1184.0,square3,j,0.1879,2,V,2.0
V2,30.0,22.0,39.0,39.0,55.0,39,1223.0,square3,j,0.0748,2,V,2.0
V2,31.0,32.0,48.0,35.0,50.0,35,1258.0,square3,j,0.2679,2,V,2.0
V2,32.0,27.0,47.0,40.0,58.0,27,1285.0,square1,f,0.2507,0,V,2.0
V2,33.0,28.0,46.0,31.0,54.0,46,1331.0,square2,r,0.0005,1,V,2.0
V2,34.0,28.0,44.0,41.0,49.0,49,1380.0,square4,i,0.0004,3,V,2.0
V2,35.0,31.0,44.0,33.0,59.0,59,1439.0,square4,i,0.0877,3,V,2.0
V2,36.0,29.0,48.0,30.0,55.0,55,1494.0,square4,i,0.0961,3,V,2.0
V2,37.0,25.0,45.0,32.0,51.0,51,1545.0,square4,i,0.0668,3,V,2.0
V2,38.0,29.0,48.0,33.0,54.0,54,1599.0,square4,i,0.1055,3,V,2.0
V2,39.0,29.0,44.0,33.0,54.0,54,1653.0,square4,i,0.1843,3,V,2.0
V2,40.0,33.0,42.0,37.0,61.0,61,1714.0,square4,i,0.0543,3,V,2.0
V2,41.0,28.0,45.0,41.0,57.0,57,1771.0,square4,i,0.1466,3,V,2.0
V2,42.0,33.0,46.0,36.0,54.0,54,1825.0,square4,i,0.1014,3,V,2.0
V2,43.0,31.0,42.0,40.0,57.0,57,1882.0,square4,i,0.0336,3,V,2.0
V2,44.0,27.0,45.0,38.0,56.0,56,1938.0,square4,i,0.0324,3,V,2.0
V2,45.0,27.0,44.0,32.0,51.0,51,1989.0,square4,i,0.0667,3,V,2.0
V2,46.0,28.0,44.0,39.0,57.0,57,2046.0,square4,i,0.3963,3,V,2.0
V2,47.0,30.0,45.0,36.0,56.0,56,2102.0,square4,i,0.9052,3,V,2.0
V2,48.0,31.0,47.0,41.0,59.0,59,2161.0,square4,i,0.0169,3,V,2.0
V2,49.0,32.0,45.0,33.0,57.0,57,2218.0,square4,i,0.3005,3,V,2.0
V2,50.0,24.0,38.0,36.0,52.0,52,2270.0,square4,i,0.066,3,V,2.0
V2,51.0,29.0,48.0,34.0,54.0,54,2324.0,square4,i,0.0895,3,V,2.0
V2,52.0,30.0,50.0,38.0,56.0,56,2380.0,square4,i,0.6378,3,V,2.0
V2,53.0,27.0,47.0,33.0,55.0,55,2435.0,square4,i,0.4693,3,V,2.0
V2,54.0,34.0,21.0,45.0,25.0,25,2460.0,square4,i,0.9468,3,V,2.0
V2,55.0,36.0,19.0,39.0,24.0,39,2499.0,square3,j,0.3311,2,V,2.0
V2,56.0,29.0,19.0,45.0,18.0,19,2518.0,square2,r,0.1771,1,V,2.0
V2,57.0,29.0,20.0,39.0,20.0,29,2547.0,square1,f,0.1097,0,V,2.0
V2,58.0,40.0,18.0,42.0,21.0,21,2568.0,square4,i,0.2421,3,V,2.0
V2,59.0,31.0,17.0,44.0,23.0,44,2612.0,square3,j,0.15,2,V,2.0
V2,60.0,31.0,19.0,42.0,20.0,42,2654.0,square3,j,0.0939,2,V,2.0
V2,61.0,34.0,16.0,41.0,25.0,41,2695.0,square3,j,0.046,2,V,2.0
V2,62.0,28.0,12.0,41.0,22.0,41,2736.0,square3,j,0.0335,2,V,2.0
V2,63.0,32.0,14.0,45.0,26.0,45,2781.0,square3,j,0.2154,2,V,2.0
V2,64.0,36.0,21.0,41.0,25.0,41,2822.0,square3,j,0.1432,2,V,2.0
V2,65.0,32.0,13.0,39.0,24.0,39,2861.0,square3,j,0.2876,2,V,2.0
V2,66.0,35.0,15.0,42.0,20.0,42,2903.0,square3,j,0.0633,2,V,2.0
V2,67.0,30.0,23.0,47.0,27.0,27,2930.0,square4,i,0.0462,3,V,2.0
V2,68.0,31.0,17.0,43.0,24.0,31,2961.0,square1,f,0.1171,0,V,2.0
V2,69.0,33.0,20.0,41.0,20.0,20,2981.0,square2,r,0.1054,1,V,2.0
V2,70.0,37.0,17.0,43.0,21.0,43,3024.0,square3,j,0.0877,2,V,2.0
V2,71.0,45.0,31.0,36.0,58.0,36,3060.0,square3,j,0.1251,2,V,2.0
V2,72.0,47.0,31.0,31.0,54.0,31,3091.0,square3,j,0.0379,2,V,2.0
V2,73.0,50.0,30.0,33.0,55.0,33,3124.0,square3,j,0.0765,2,V,2.0
V2,74.0,45.0,31.0,36.0,51.0,36,3160.0,square3,j,0.1004,2,V,2.0
V2,75.0,47.0,28.0,38.0,54.0,38,3198.0,square3,j,0.0209,2,V,2.0
V2,76.0,52.0,33.0,35.0,60.0,35,3233.0,square3,j,0.4669,2,V,2.0
V2,77.0,41.0,29.0,37.0,53.0,37,3270.0,square3,j,1.1795,2,V,2.0
V2,78.0,51.0,24.0,34.0,56.0,34,3304.0,square3,j,0.3959,2,V,2.0
V2,79.0,41.0,34.0,36.0,52.0,36,3340.0,square3,j,0.3921,2,V,2.0
V2,80.0,48.0,31.0,37.0,51.0,37,3377.0,square3,j,1.1167,2,V,2.0
V2,81.0,43.0,32.0,40.0,53.0,40,3417.0,square3,j,0.1168,2,V,2.0
V2,82.0,48.0,25.0,37.0,58.0,37,3454.0,square3,j,0.1838,2,V,2.0
V2,83.0,45.0,32.0,36.0,61.0,36,3490.0,square3,j,0.3085,2,V,2.0
V2,84.0,47.0,29.0,39.0,60.0,39,3529.0,square3,j,0.1707,2,V,2.0
V2,85.0,49.0,30.0,39.0,54.0,39,3568.0,square3,j,0.1502,2,V,2.0
V2,86.0,46.0,28.0,33.0,51.0,33,3601.0,square3,j,0.2192,2,V,2.0
V2,87.0,45.0,24.0,37.0,55.0,37,3638.0,square3,j,0.0567,2,V,2.0
V2,88.0,48.0,29.0,42.0,54.0,42,3680.0,square3,j,0.3001,2,V,2.0
V2,89.0,43.0,31.0,38.0,52.0,38,3718.0,square3,j,0.1753,2,V,2.0
V2,90.0,51.0,33.0,36.0,56.0,36,3754.0,square3,j,0.1192,2,V,2.0
V2,91.0,49.0,32.0,37.0,59.0,37,3791.0,square3,j,0.4941,2,V,2.0
V2,92.0,47.0,29.0,37.0,56.0,37,3828.0,square3,j,0.0031,2,V,2.0
V2,93.0,45.0,27.0,35.0,56.0,35,3863.0,square3,j,0.1837,2,V,2.0
V2,94.0,45.0,31.0,31.0,49.0,31,3894.0,square3,j,0.0843,2,V,2.0
V2,95.0,47.0,33.0,36.0,52.0,36,3930.0,square3,j,0.0702,2,V,2.0
V2,96.0,44.0,28.0,37.0,59.0,37,3967.0,square3,j,0.3379,2,V,2.0
V2,97.0,48.0,28.0,33.0,55.0,33,4000.0,square3,j,0.5777,2,V,2.0
V2,98.0,49.0,29.0,39.0,60.0,39,4039.0,square3,j,0.21,2,V,2.0
V2,99.0,44.0,30.0,36.0,50.0,36,4075.0,square3,j,1.0959,2,V,2.0
