block,Trial,square1,square2,square3,square4,currPoints,totalPoints,square,choiceKey.keys,choiceKey.rt,armNum,blockType,blockNum
prac,0.0,100.0,0.0,0.0,0.0,0,0.0,square4,,,3,p,0.0
prac,1.0,100.0,0.0,0.0,0.0,100,100.0,square1,,,0,p,0.0
prac,2.0,100.0,0.0,0.0,0.0,100,200.0,square1,,,0,p,0.0
prac,3.0,100.0,0.0,0.0,0.0,100,300.0,square1,,,0,p,0.0
prac,4.0,100.0,0.0,0.0,0.0,100,400.0,square1,,,0,p,0.0
prac,5.0,100.0,0.0,0.0,0.0,0,400.0,square2,,,1,p,0.0
prac,6.0,100.0,0.0,0.0,0.0,0,400.0,square3,,,2,p,0.0
prac,7.0,100.0,0.0,0.0,0.0,100,500.0,square1,,,0,p,0.0
prac,8.0,100.0,0.0,0.0,0.0,100,600.0,square1,,,0,p,0.0
prac,9.0,100.0,0.0,0.0,0.0,100,700.0,square1,,,0,p,0.0
S3,0.0,38.0,48.0,42.0,57.0,42,42.0,square3,j,1.2549,2,S,3.0
S3,1.0,29.0,43.0,51.0,57.0,51,93.0,square3,j,0.68,2,S,3.0
S3,2.0,41.0,49.0,46.0,49.0,49,142.0,square4,r,0.2763,3,S,3.0
S3,3.0,44.0,50.0,45.0,52.0,44,186.0,square1,f,0.2685,0,S,3.0
S3,4.0,37.0,51.0,45.0,58.0,51,237.0,square2,i,0.3022,1,S,3.0
S3,5.0,47.0,43.0,42.0,49.0,43,280.0,square2,i,0.2831,1,S,3.0
S3,6.0,44.0,53.0,51.0,58.0,58,338.0,square4,r,0.375,3,S,3.0
S3,7.0,39.0,47.0,46.0,54.0,46,384.0,square3,j,0.3528,2,S,3.0
S3,8.0,43.0,53.0,41.0,52.0,52,436.0,square4,r,0.2366,3,S,3.0
S3,9.0,42.0,46.0,41.0,53.0,42,478.0,square1,f,0.2798,0,S,3.0
S3,10.0,37.0,49.0,49.0,55.0,55,533.0,square4,r,0.2219,3,S,3.0
S3,11.0,40.0,47.0,36.0,59.0,59,592.0,square4,r,0.2219,3,S,3.0
S3,12.0,46.0,51.0,39.0,56.0,56,648.0,square4,r,0.2181,3,S,3.0
S3,13.0,39.0,48.0,45.0,57.0,57,705.0,square4,r,0.202,3,S,3.0
S3,14.0,39.0,55.0,43.0,47.0,47,752.0,square4,r,0.1992,3,S,3.0
S3,15.0,46.0,46.0,47.0,52.0,46,798.0,square2,i,0.2394,1,S,3.0
S3,16.0,42.0,49.0,50.0,55.0,55,853.0,square4,r,0.0069,3,S,3.0
S3,17.0,45.0,45.0,56.0,47.0,47,900.0,square4,r,0.0534,3,S,3.0
S3,18.0,46.0,43.0,45.0,50.0,45,945.0,square3,j,0.2095,2,S,3.0
S3,19.0,41.0,47.0,50.0,55.0,55,1000.0,square4,r,0.0181,3,S,3.0
S3,20.0,45.0,52.0,49.0,52.0,52,1052.0,square4,r,0.0881,3,S,3.0
S3,21.0,40.0,43.0,47.0,46.0,46,1098.0,square4,r,0.0187,3,S,3.0
S3,22.0,45.0,46.0,44.0,47.0,47,1145.0,square4,r,0.2359,3,S,3.0
S3,23.0,36.0,50.0,42.0,46.0,46,1191.0,square4,r,0.1927,3,S,3.0
S3,24.0,42.0,54.0,49.0,55.0,55,1246.0,square4,r,0.1357,3,S,3.0
S3,25.0,43.0,51.0,44.0,54.0,54,1300.0,square4,r,0.2522,3,S,3.0
S3,26.0,49.0,50.0,52.0,52.0,52,1352.0,square4,r,0.0968,3,S,3.0
S3,27.0,47.0,52.0,44.0,50.0,50,1402.0,square4,r,0.0529,3,S,3.0
S3,28.0,37.0,48.0,40.0,47.0,47,1449.0,square4,r,0.0353,3,S,3.0
S3,29.0,50.0,43.0,50.0,57.0,50,1499.0,square1,f,0.1126,0,S,3.0
S3,30.0,50.0,50.0,46.0,47.0,50,1549.0,square1,f,0.2524,0,S,3.0
S3,31.0,37.0,53.0,49.0,56.0,37,1586.0,square1,f,0.1812,0,S,3.0
S3,32.0,42.0,50.0,43.0,58.0,58,1644.0,square4,r,0.2535,3,S,3.0
S3,33.0,44.0,49.0,46.0,59.0,49,1693.0,square2,i,0.2786,1,S,3.0
S3,34.0,42.0,50.0,50.0,58.0,50,1743.0,square2,i,0.2372,1,S,3.0
S3,35.0,43.0,46.0,45.0,50.0,46,1789.0,square2,i,0.2063,1,S,3.0
S3,36.0,46.0,52.0,50.0,48.0,48,1837.0,square4,r,0.0782,3,S,3.0
S3,37.0,48.0,50.0,49.0,52.0,52,1889.0,square4,r,0.0553,3,S,3.0
S3,38.0,39.0,43.0,50.0,55.0,55,1944.0,square4,r,0.002,3,S,3.0
S3,39.0,50.0,53.0,46.0,57.0,57,2001.0,square4,r,0.0791,3,S,3.0
S3,40.0,41.0,46.0,48.0,55.0,55,2056.0,square4,r,0.0016,3,S,3.0
S3,41.0,49.0,49.0,40.0,56.0,56,2112.0,square4,r,0.0078,3,S,3.0
S3,42.0,47.0,49.0,43.0,48.0,48,2160.0,square4,r,0.1479,3,S,3.0
S3,43.0,46.0,43.0,41.0,58.0,58,2218.0,square4,r,0.236,3,S,3.0
S3,44.0,46.0,52.0,51.0,55.0,51,2269.0,square3,j,0.2898,2,S,3.0
S3,45.0,46.0,41.0,46.0,49.0,46,2315.0,square3,j,0.1192,2,S,3.0
S3,46.0,32.0,56.0,40.0,50.0,40,2355.0,square3,j,0.1704,2,S,3.0
S3,47.0,42.0,49.0,44.0,51.0,44,2399.0,square3,j,0.2769,2,S,3.0
S3,48.0,36.0,45.0,38.0,50.0,50,2449.0,square4,r,0.0523,3,S,3.0
S3,49.0,45.0,48.0,47.0,52.0,52,2501.0,square4,r,0.1624,3,S,3.0
S7,0.0,68.0,73.0,62.0,57.0,99999,0.0,invalid,,,-1,S,7.0
S7,1.0,74.0,67.0,66.0,59.0,67,67.0,square2,f,1.3682,1,S,7.0
S7,2.0,68.0,69.0,65.0,60.0,65,132.0,square3,r,0.4019,2,S,7.0
S7,3.0,74.0,68.0,65.0,63.0,63,195.0,square4,i,1.3708,3,S,7.0
S7,4.0,68.0,74.0,67.0,63.0,68,263.0,square1,j,0.236,0,S,7.0
S7,5.0,68.0,67.0,61.0,57.0,68,331.0,square1,j,0.1688,0,S,7.0
S7,6.0,72.0,64.0,65.0,51.0,72,403.0,square1,j,0.0677,0,S,7.0
S7,7.0,69.0,63.0,69.0,63.0,69,472.0,square1,j,0.2494,0,S,7.0
S7,8.0,71.0,68.0,63.0,54.0,71,543.0,square1,j,0.2191,0,S,7.0
S7,9.0,81.0,66.0,68.0,62.0,66,609.0,square2,f,0.254,1,S,7.0
S7,10.0,72.0,73.0,68.0,61.0,73,682.0,square2,f,0.104,1,S,7.0
S7,11.0,72.0,72.0,62.0,58.0,72,754.0,square2,f,0.1685,1,S,7.0
S7,12.0,66.0,66.0,62.0,61.0,66,820.0,square2,f,0.086,1,S,7.0
S7,13.0,73.0,75.0,75.0,68.0,75,895.0,square3,r,0.5693,2,S,7.0
S7,14.0,71.0,73.0,72.0,66.0,72,967.0,square3,r,0.2091,2,S,7.0
S7,15.0,75.0,68.0,68.0,65.0,68,1035.0,square3,r,0.2172,2,S,7.0
S7,16.0,67.0,65.0,62.0,56.0,62,1097.0,square3,r,0.1868,2,S,7.0
S7,17.0,72.0,67.0,63.0,64.0,64,1161.0,square4,i,0.211,3,S,7.0
S7,18.0,73.0,69.0,66.0,65.0,65,1226.0,square4,i,0.1208,3,S,7.0
S7,19.0,75.0,70.0,62.0,58.0,75,1301.0,square1,j,0.1259,0,S,7.0
S7,20.0,76.0,63.0,67.0,62.0,76,1377.0,square1,j,0.0755,0,S,7.0
S7,21.0,79.0,76.0,63.0,64.0,79,1456.0,square1,j,0.1358,0,S,7.0
S7,22.0,67.0,72.0,63.0,62.0,67,1523.0,square1,j,0.0322,0,S,7.0
S7,23.0,69.0,71.0,70.0,62.0,69,1592.0,square1,j,0.5547,0,S,7.0
S7,24.0,74.0,67.0,70.0,62.0,74,1666.0,square1,j,0.2073,0,S,7.0
S7,25.0,70.0,67.0,72.0,62.0,70,1736.0,square1,j,0.1409,0,S,7.0
S7,26.0,72.0,62.0,74.0,65.0,72,1808.0,square1,j,0.1573,0,S,7.0
S7,27.0,69.0,70.0,68.0,62.0,69,1877.0,square1,j,0.1184,0,S,7.0
S7,28.0,65.0,66.0,60.0,62.0,60,1937.0,square3,r,0.1755,2,S,7.0
S7,29.0,70.0,64.0,60.0,68.0,60,1997.0,square3,r,0.0917,2,S,7.0
S7,30.0,69.0,69.0,64.0,57.0,69,2066.0,square1,j,0.1871,0,S,7.0
S7,31.0,77.0,67.0,65.0,60.0,77,2143.0,square1,j,0.0605,0,S,7.0
S7,32.0,67.0,75.0,65.0,58.0,67,2210.0,square1,j,0.0645,0,S,7.0
S7,33.0,74.0,66.0,66.0,60.0,74,2284.0,square1,j,0.081,0,S,7.0
S7,34.0,72.0,72.0,66.0,61.0,72,2356.0,square1,j,0.5489,0,S,7.0
S7,35.0,67.0,68.0,64.0,62.0,67,2423.0,square1,j,0.1304,0,S,7.0
S7,36.0,64.0,63.0,70.0,58.0,64,2487.0,square1,j,0.0732,0,S,7.0
S7,37.0,80.0,72.0,64.0,53.0,80,2567.0,square1,j,0.0067,0,S,7.0
S7,38.0,78.0,69.0,76.0,67.0,78,2645.0,square1,j,0.0692,0,S,7.0
S7,39.0,69.0,66.0,60.0,67.0,69,2714.0,square1,j,0.4708,0,S,7.0
S7,40.0,72.0,71.0,63.0,66.0,72,2786.0,square1,j,0.0099,0,S,7.0
S7,41.0,80.0,73.0,65.0,63.0,80,2866.0,square1,j,0.0411,0,S,7.0
S7,42.0,77.0,60.0,65.0,59.0,77,2943.0,square1,j,0.0498,0,S,7.0
S7,43.0,70.0,72.0,70.0,63.0,70,3013.0,square1,j,0.0343,0,S,7.0
S7,44.0,77.0,70.0,66.0,58.0,77,3090.0,square1,j,0.0718,0,S,7.0
S7,45.0,75.0,69.0,73.0,58.0,75,3165.0,square1,j,0.0176,0,S,7.0
S7,46.0,74.0,71.0,63.0,63.0,74,3239.0,square1,j,0.5357,0,S,7.0
S7,47.0,73.0,75.0,71.0,64.0,73,3312.0,square1,j,0.1912,0,S,7.0
S7,48.0,78.0,79.0,64.0,58.0,79,3391.0,square2,f,0.0496,1,S,7.0
S7,49.0,75.0,72.0,66.0,72.0,72,3463.0,square2,f,0.1339,1,S,7.0
S9,0.0,36.0,36.0,32.0,32.0,32,32.0,square4,r,0.6382,3,S,9.0
S9,1.0,40.0,29.0,36.0,24.0,36,68.0,square3,f,0.2208,2,S,9.0
S9,2.0,31.0,43.0,22.0,29.0,43,111.0,square2,j,0.2357,1,S,9.0
S9,3.0,41.0,33.0,28.0,27.0,41,152.0,square1,i,0.2359,0,S,9.0
S9,4.0,34.0,29.0,32.0,31.0,31,183.0,square4,r,0.1729,3,S,9.0
S9,5.0,41.0,32.0,22.0,29.0,22,205.0,square3,f,0.1362,2,S,9.0
S9,6.0,44.0,30.0,21.0,28.0,30,235.0,square2,j,0.169,1,S,9.0
S9,7.0,39.0,37.0,26.0,24.0,39,274.0,square1,i,0.1209,0,S,9.0
S9,8.0,41.0,33.0,23.0,20.0,41,315.0,square1,i,0.6184,0,S,9.0
S9,9.0,30.0,35.0,24.0,27.0,27,342.0,square4,r,0.0395,3,S,9.0
S9,10.0,41.0,29.0,23.0,28.0,23,365.0,square3,f,0.4021,2,S,9.0
S9,11.0,37.0,38.0,22.0,33.0,38,403.0,square2,j,0.095,1,S,9.0
S9,12.0,35.0,31.0,27.0,32.0,35,438.0,square1,i,0.0574,0,S,9.0
S9,13.0,38.0,37.0,30.0,29.0,37,475.0,square2,j,0.0383,1,S,9.0
S9,14.0,36.0,38.0,30.0,37.0,36,511.0,square1,i,0.0018,0,S,9.0
S9,15.0,40.0,29.0,27.0,24.0,29,540.0,square2,j,0.4631,1,S,9.0
S9,16.0,33.0,37.0,29.0,28.0,33,573.0,square1,i,0.0494,0,S,9.0
S9,17.0,41.0,32.0,36.0,31.0,41,614.0,square1,i,0.3857,0,S,9.0
S9,18.0,39.0,26.0,16.0,35.0,39,653.0,square1,i,0.2044,0,S,9.0
S9,19.0,35.0,30.0,23.0,27.0,35,688.0,square1,i,0.1763,0,S,9.0
S9,20.0,39.0,34.0,23.0,29.0,39,727.0,square1,i,0.124,0,S,9.0
S9,21.0,35.0,37.0,28.0,31.0,35,762.0,square1,i,0.1181,0,S,9.0
S9,22.0,37.0,30.0,23.0,38.0,37,799.0,square1,i,0.146,0,S,9.0
S9,23.0,37.0,34.0,27.0,34.0,37,836.0,square1,i,0.1587,0,S,9.0
S9,24.0,31.0,34.0,26.0,27.0,31,867.0,square1,i,0.0402,0,S,9.0
S9,25.0,38.0,40.0,29.0,24.0,38,905.0,square1,i,0.053,0,S,9.0
S9,26.0,43.0,31.0,21.0,24.0,43,948.0,square1,i,0.105,0,S,9.0
S9,27.0,30.0,31.0,23.0,28.0,31,979.0,square2,j,0.0145,1,S,9.0
S9,28.0,44.0,32.0,31.0,32.0,32,1011.0,square2,j,0.0359,1,S,9.0
S9,29.0,36.0,38.0,22.0,22.0,38,1049.0,square2,j,0.2175,1,S,9.0
S9,30.0,41.0,30.0,26.0,29.0,41,1090.0,square1,i,0.0289,0,S,9.0
S9,31.0,39.0,37.0,30.0,32.0,39,1129.0,square1,i,0.0863,0,S,9.0
S9,32.0,35.0,39.0,28.0,31.0,35,1164.0,square1,i,0.0181,0,S,9.0
S9,33.0,37.0,39.0,29.0,32.0,37,1201.0,square1,i,0.1797,0,S,9.0
S9,34.0,46.0,33.0,21.0,25.0,46,1247.0,square1,i,0.0211,0,S,9.0
S9,35.0,38.0,33.0,28.0,28.0,38,1285.0,square1,i,0.2189,0,S,9.0
S9,36.0,40.0,37.0,21.0,32.0,40,1325.0,square1,i,0.2059,0,S,9.0
S9,37.0,38.0,43.0,23.0,37.0,38,1363.0,square1,i,0.5226,0,S,9.0
S9,38.0,36.0,31.0,29.0,29.0,36,1399.0,square1,i,0.1023,0,S,9.0
S9,39.0,41.0,29.0,26.0,28.0,41,1440.0,square1,i,0.1316,0,S,9.0
S9,40.0,32.0,36.0,26.0,28.0,32,1472.0,square1,i,0.2235,0,S,9.0
S9,41.0,40.0,37.0,35.0,28.0,35,1507.0,square3,f,0.0358,2,S,9.0
S9,42.0,43.0,32.0,26.0,37.0,26,1533.0,square3,f,0.2691,2,S,9.0
S9,43.0,40.0,31.0,23.0,31.0,23,1556.0,square3,f,0.1144,2,S,9.0
S9,44.0,42.0,38.0,24.0,40.0,24,1580.0,square3,f,0.2458,2,S,9.0
S9,45.0,36.0,35.0,30.0,33.0,36,1616.0,square1,i,0.1068,0,S,9.0
S9,46.0,38.0,30.0,33.0,26.0,38,1654.0,square1,i,0.0659,0,S,9.0
S9,47.0,39.0,37.0,25.0,26.0,39,1693.0,square1,i,0.1204,0,S,9.0
S9,48.0,36.0,35.0,26.0,27.0,36,1729.0,square1,i,0.0271,0,S,9.0
S9,49.0,40.0,32.0,24.0,28.0,28,1757.0,square4,r,0.7168,3,S,9.0
S1,0.0,72.0,58.0,70.0,66.0,66,66.0,square4,j,1.1869,3,S,1.0
S1,1.0,75.0,64.0,66.0,69.0,64,130.0,square2,f,0.2228,1,S,1.0
S1,2.0,75.0,62.0,62.0,79.0,75,205.0,square1,r,1.3103,0,S,1.0
S1,3.0,68.0,62.0,63.0,69.0,63,268.0,square3,i,0.2222,2,S,1.0
S1,4.0,82.0,63.0,64.0,73.0,82,350.0,square1,r,0.1397,0,S,1.0
S1,5.0,66.0,70.0,65.0,73.0,66,416.0,square1,r,0.116,0,S,1.0
S1,6.0,73.0,65.0,62.0,65.0,65,481.0,square2,f,0.0736,1,S,1.0
S1,7.0,70.0,61.0,65.0,66.0,61,542.0,square2,f,0.0607,1,S,1.0
S1,8.0,78.0,63.0,67.0,68.0,68,610.0,square4,j,0.1024,3,S,1.0
S1,9.0,74.0,67.0,66.0,68.0,68,678.0,square4,j,0.0532,3,S,1.0
S1,10.0,73.0,59.0,68.0,68.0,68,746.0,square3,i,0.1527,2,S,1.0
S1,11.0,76.0,65.0,62.0,81.0,62,808.0,square3,i,0.136,2,S,1.0
S1,12.0,77.0,66.0,69.0,63.0,77,885.0,square1,r,0.0019,0,S,1.0
S1,13.0,75.0,63.0,68.0,73.0,75,960.0,square1,r,0.0355,0,S,1.0
S1,14.0,67.0,60.0,67.0,69.0,67,1027.0,square1,r,0.1249,0,S,1.0
S1,15.0,70.0,63.0,69.0,73.0,70,1097.0,square1,r,0.2194,0,S,1.0
S1,16.0,69.0,61.0,69.0,69.0,69,1166.0,square1,r,0.163,0,S,1.0
S1,17.0,73.0,68.0,67.0,73.0,73,1239.0,square1,r,0.1193,0,S,1.0
S1,18.0,70.0,58.0,73.0,66.0,70,1309.0,square1,r,0.153,0,S,1.0
S1,19.0,75.0,58.0,62.0,68.0,62,1371.0,square3,i,0.0528,2,S,1.0
S1,20.0,76.0,58.0,72.0,67.0,67,1438.0,square4,j,0.0736,3,S,1.0
S1,21.0,69.0,66.0,66.0,67.0,66,1504.0,square2,f,0.0867,1,S,1.0
S1,22.0,70.0,68.0,65.0,65.0,70,1574.0,square1,r,0.0017,0,S,1.0
S1,23.0,71.0,60.0,64.0,64.0,71,1645.0,square1,r,0.0593,0,S,1.0
S1,24.0,70.0,72.0,62.0,67.0,70,1715.0,square1,r,0.5166,0,S,1.0
S1,25.0,68.0,60.0,70.0,65.0,68,1783.0,square1,r,0.1725,0,S,1.0
S1,26.0,76.0,64.0,72.0,69.0,76,1859.0,square1,r,0.153,0,S,1.0
S1,27.0,71.0,56.0,70.0,65.0,71,1930.0,square1,r,0.124,0,S,1.0
S1,28.0,67.0,67.0,71.0,76.0,67,1997.0,square1,r,0.0352,0,S,1.0
S1,29.0,78.0,64.0,64.0,74.0,78,2075.0,square1,r,0.1666,0,S,1.0
S1,30.0,74.0,63.0,65.0,71.0,74,2149.0,square1,r,0.2182,0,S,1.0
S1,31.0,78.0,58.0,69.0,69.0,78,2227.0,square1,r,0.2033,0,S,1.0
S1,32.0,71.0,67.0,68.0,60.0,71,2298.0,square1,r,0.018,0,S,1.0
S1,33.0,68.0,63.0,65.0,73.0,68,2366.0,square1,r,0.1965,0,S,1.0
S1,34.0,71.0,62.0,74.0,73.0,71,2437.0,square1,r,0.5132,0,S,1.0
S1,35.0,75.0,59.0,67.0,77.0,75,2512.0,square1,r,0.0757,0,S,1.0
S1,36.0,77.0,60.0,66.0,67.0,77,2589.0,square1,r,0.127,0,S,1.0
S1,37.0,69.0,60.0,69.0,75.0,69,2658.0,square1,r,0.2126,0,S,1.0
S1,38.0,77.0,64.0,62.0,70.0,77,2735.0,square1,r,0.0145,0,S,1.0
S1,39.0,72.0,66.0,69.0,65.0,72,2807.0,square1,r,0.1699,0,S,1.0
S1,40.0,69.0,63.0,66.0,69.0,69,2876.0,square1,r,0.1356,0,S,1.0
S1,41.0,72.0,62.0,70.0,70.0,72,2948.0,square1,r,0.24,0,S,1.0
S1,42.0,78.0,60.0,63.0,62.0,78,3026.0,square1,r,0.0694,0,S,1.0
S1,43.0,71.0,62.0,67.0,73.0,71,3097.0,square1,r,0.1177,0,S,1.0
S1,44.0,75.0,63.0,69.0,73.0,75,3172.0,square1,r,0.119,0,S,1.0
S1,45.0,66.0,60.0,68.0,73.0,66,3238.0,square1,r,0.0549,0,S,1.0
S1,46.0,74.0,67.0,69.0,71.0,74,3312.0,square1,r,0.0016,0,S,1.0
S1,47.0,71.0,66.0,68.0,70.0,71,3383.0,square1,r,0.0895,0,S,1.0
S1,48.0,72.0,75.0,71.0,77.0,72,3455.0,square1,r,0.0191,0,S,1.0
S1,49.0,65.0,57.0,66.0,75.0,65,3520.0,square1,r,0.1075,0,S,1.0
S6,0.0,40.0,29.0,39.0,26.0,39,39.0,square3,r,0.5867,2,S,6.0
S6,1.0,34.0,40.0,31.0,25.0,25,64.0,square4,f,0.0559,3,S,6.0
S6,2.0,37.0,31.0,25.0,30.0,37,101.0,square1,j,0.0713,0,S,6.0
S6,3.0,39.0,37.0,30.0,27.0,37,138.0,square2,i,0.0426,1,S,6.0
S6,4.0,42.0,40.0,28.0,32.0,28,166.0,square3,r,0.1631,2,S,6.0
S6,5.0,35.0,35.0,39.0,29.0,35,201.0,square2,i,0.1059,1,S,6.0
S6,6.0,48.0,30.0,37.0,33.0,48,249.0,square1,j,0.0255,0,S,6.0
S6,7.0,47.0,34.0,31.0,29.0,29,278.0,square4,f,0.129,3,S,6.0
S6,8.0,43.0,35.0,30.0,25.0,43,321.0,square1,j,0.0718,0,S,6.0
S6,9.0,36.0,38.0,35.0,35.0,38,359.0,square2,i,0.002,1,S,6.0
S6,10.0,38.0,35.0,31.0,21.0,38,397.0,square1,j,0.0019,0,S,6.0
S6,11.0,30.0,36.0,31.0,20.0,36,433.0,square2,i,0.537,1,S,6.0
S6,12.0,37.0,40.0,33.0,22.0,37,470.0,square1,j,0.3614,0,S,6.0
S6,13.0,32.0,41.0,35.0,29.0,32,502.0,square1,j,0.0564,0,S,6.0
S6,14.0,41.0,29.0,30.0,32.0,32,534.0,square4,f,0.3794,3,S,6.0
S6,15.0,43.0,37.0,31.0,27.0,27,561.0,square4,f,0.0768,3,S,6.0
S6,16.0,34.0,34.0,35.0,31.0,35,596.0,square3,r,0.0863,2,S,6.0
S6,17.0,47.0,40.0,29.0,28.0,29,625.0,square3,r,0.1207,2,S,6.0
S6,18.0,37.0,38.0,34.0,35.0,34,659.0,square3,r,0.1618,2,S,6.0
S6,19.0,36.0,39.0,31.0,26.0,31,690.0,square3,r,0.1549,2,S,6.0
S6,20.0,44.0,40.0,31.0,25.0,25,715.0,square4,f,0.1377,3,S,6.0
S6,21.0,39.0,41.0,35.0,24.0,24,739.0,square4,f,0.1921,3,S,6.0
S6,22.0,41.0,38.0,41.0,31.0,41,780.0,square1,j,0.2634,0,S,6.0
S6,23.0,37.0,31.0,30.0,32.0,37,817.0,square1,j,0.2136,0,S,6.0
S6,24.0,48.0,34.0,34.0,21.0,34,851.0,square2,i,0.1575,1,S,6.0
S6,25.0,42.0,45.0,26.0,29.0,45,896.0,square2,i,0.1116,1,S,6.0
S6,26.0,40.0,39.0,36.0,28.0,39,935.0,square2,i,0.1769,1,S,6.0
S6,27.0,42.0,33.0,29.0,29.0,33,968.0,square2,i,0.0789,1,S,6.0
S6,28.0,41.0,30.0,29.0,29.0,41,1009.0,square1,j,0.3883,0,S,6.0
S6,29.0,42.0,40.0,32.0,27.0,42,1051.0,square1,j,0.1035,0,S,6.0
S6,30.0,42.0,36.0,30.0,26.0,42,1093.0,square1,j,0.0317,0,S,6.0
S6,31.0,42.0,34.0,35.0,29.0,42,1135.0,square1,j,0.2191,0,S,6.0
S6,32.0,35.0,36.0,31.0,23.0,35,1170.0,square1,j,0.0253,0,S,6.0
S6,33.0,35.0,31.0,35.0,30.0,35,1205.0,square1,j,0.3801,0,S,6.0
S6,34.0,40.0,38.0,31.0,27.0,38,1243.0,square2,i,0.074,1,S,6.0
S6,35.0,42.0,37.0,34.0,34.0,37,1280.0,square2,i,0.2245,1,S,6.0
S6,36.0,37.0,46.0,31.0,34.0,46,1326.0,square2,i,0.2265,1,S,6.0
S6,37.0,38.0,40.0,30.0,26.0,40,1366.0,square2,i,0.2531,1,S,6.0
S6,38.0,36.0,34.0,31.0,33.0,34,1400.0,square2,i,0.0636,1,S,6.0
S6,39.0,44.0,37.0,33.0,31.0,37,1437.0,square2,i,0.0022,1,S,6.0
S6,40.0,40.0,38.0,31.0,25.0,38,1475.0,square2,i,0.3713,1,S,6.0
S6,41.0,49.0,35.0,35.0,28.0,49,1524.0,square1,j,0.1684,0,S,6.0
S6,42.0,44.0,40.0,32.0,28.0,44,1568.0,square1,j,0.1545,0,S,6.0
S6,43.0,43.0,36.0,33.0,26.0,43,1611.0,square1,j,0.2739,0,S,6.0
S6,44.0,38.0,33.0,34.0,26.0,38,1649.0,square1,j,0.2362,0,S,6.0
S6,45.0,32.0,35.0,30.0,28.0,32,1681.0,square1,j,0.2723,0,S,6.0
S6,46.0,38.0,36.0,34.0,30.0,36,1717.0,square2,i,0.1525,1,S,6.0
S6,47.0,44.0,35.0,32.0,31.0,35,1752.0,square2,i,0.2655,1,S,6.0
S6,48.0,40.0,40.0,31.0,33.0,40,1792.0,square2,i,0.3881,1,S,6.0
S6,49.0,41.0,29.0,29.0,29.0,41,1833.0,square1,j,0.2548,0,S,6.0
S11,0.0,49.0,53.0,49.0,45.0,45,45.0,square4,r,0.6251,3,S,11.0
S11,1.0,54.0,56.0,42.0,50.0,54,99.0,square1,f,0.1887,0,S,11.0
S11,2.0,39.0,51.0,39.0,43.0,51,150.0,square2,j,0.2677,1,S,11.0
S11,3.0,53.0,50.0,38.0,43.0,38,188.0,square3,i,1.4229,2,S,11.0
S11,4.0,47.0,54.0,39.0,48.0,47,235.0,square1,f,0.4053,0,S,11.0
S11,5.0,47.0,52.0,40.0,46.0,47,282.0,square1,f,0.1217,0,S,11.0
S11,6.0,47.0,46.0,44.0,54.0,47,329.0,square1,f,0.0734,0,S,11.0
S11,7.0,48.0,51.0,35.0,51.0,51,380.0,square4,r,0.0672,3,S,11.0
S11,8.0,52.0,49.0,36.0,43.0,36,416.0,square3,i,0.1835,2,S,11.0
S11,9.0,47.0,53.0,41.0,55.0,53,469.0,square2,j,0.085,1,S,11.0
S11,10.0,44.0,48.0,41.0,43.0,41,510.0,square3,i,0.149,2,S,11.0
S11,11.0,41.0,54.0,38.0,43.0,54,564.0,square2,j,0.4543,1,S,11.0
S11,12.0,45.0,54.0,44.0,45.0,45,609.0,square1,f,0.2213,0,S,11.0
S11,13.0,54.0,52.0,44.0,50.0,50,659.0,square4,r,0.3339,3,S,11.0
S11,14.0,57.0,58.0,36.0,45.0,57,716.0,square1,f,0.2422,0,S,11.0
S11,15.0,48.0,54.0,43.0,49.0,49,765.0,square4,r,0.3376,3,S,11.0
S11,16.0,58.0,47.0,42.0,46.0,42,807.0,square3,i,0.1429,2,S,11.0
S11,17.0,41.0,61.0,42.0,53.0,61,868.0,square2,j,0.2533,1,S,11.0
S11,18.0,51.0,58.0,33.0,39.0,58,926.0,square2,j,0.2426,1,S,11.0
S11,19.0,48.0,49.0,37.0,42.0,49,975.0,square2,j,0.2388,1,S,11.0
S11,20.0,52.0,52.0,45.0,46.0,52,1027.0,square2,j,0.19,1,S,11.0
S11,21.0,47.0,53.0,44.0,51.0,47,1074.0,square1,f,0.1749,0,S,11.0
S11,22.0,49.0,54.0,37.0,41.0,49,1123.0,square1,f,0.1073,0,S,11.0
S11,23.0,52.0,54.0,41.0,45.0,52,1175.0,square1,f,0.065,0,S,11.0
S11,24.0,42.0,56.0,41.0,45.0,42,1217.0,square1,f,0.1071,0,S,11.0
S11,25.0,52.0,56.0,42.0,44.0,56,1273.0,square2,j,0.0224,1,S,11.0
S11,26.0,43.0,56.0,41.0,45.0,56,1329.0,square2,j,0.4608,1,S,11.0
S11,27.0,48.0,50.0,40.0,43.0,50,1379.0,square2,j,0.2091,1,S,11.0
S11,28.0,46.0,49.0,38.0,48.0,49,1428.0,square2,j,0.2157,1,S,11.0
S11,29.0,46.0,55.0,40.0,42.0,55,1483.0,square2,j,0.1389,1,S,11.0
S11,30.0,46.0,56.0,43.0,37.0,43,1526.0,square3,i,0.1309,2,S,11.0
S11,31.0,42.0,49.0,44.0,42.0,44,1570.0,square3,i,0.1408,2,S,11.0
S11,32.0,51.0,52.0,36.0,40.0,36,1606.0,square3,i,0.1536,2,S,11.0
S11,33.0,44.0,53.0,39.0,43.0,39,1645.0,square3,i,0.1384,2,S,11.0
S11,34.0,52.0,52.0,43.0,49.0,49,1694.0,square4,r,0.3041,3,S,11.0
S11,35.0,53.0,51.0,38.0,45.0,45,1739.0,square4,r,0.2728,3,S,11.0
S11,36.0,50.0,44.0,42.0,48.0,48,1787.0,square4,r,0.2425,3,S,11.0
S11,37.0,49.0,51.0,40.0,48.0,48,1835.0,square4,r,0.167,3,S,11.0
S11,38.0,47.0,47.0,39.0,38.0,47,1882.0,square1,f,0.2561,0,S,11.0
S11,39.0,51.0,55.0,40.0,42.0,51,1933.0,square1,f,0.2693,0,S,11.0
S11,40.0,50.0,52.0,41.0,44.0,50,1983.0,square1,f,0.1264,0,S,11.0
S11,41.0,47.0,50.0,46.0,50.0,47,2030.0,square1,f,0.0813,0,S,11.0
S11,42.0,52.0,48.0,41.0,47.0,52,2082.0,square1,f,0.5801,0,S,11.0
S11,43.0,50.0,56.0,34.0,42.0,50,2132.0,square1,f,0.5372,0,S,11.0
S11,44.0,42.0,48.0,37.0,49.0,48,2180.0,square2,j,0.7535,1,S,11.0
S11,45.0,47.0,47.0,41.0,40.0,47,2227.0,square2,j,1.3391,1,S,11.0
S11,46.0,50.0,56.0,40.0,44.0,50,2277.0,square1,f,0.2685,0,S,11.0
S11,47.0,46.0,48.0,38.0,47.0,46,2323.0,square1,f,0.7384,0,S,11.0
S11,48.0,45.0,54.0,44.0,41.0,45,2368.0,square1,f,0.8442,0,S,11.0
S11,49.0,44.0,53.0,41.0,41.0,53,2421.0,square2,j,1.4027,1,S,11.0
V1,0.0,46.0,61.0,52.0,71.0,52,52.0,square3,r,0.7547,2,V,1.0
V1,1.0,45.0,63.0,54.0,78.0,78,130.0,square4,f,0.2661,3,V,1.0
V1,2.0,51.0,58.0,59.0,77.0,59,189.0,square3,r,1.3701,2,V,1.0
V1,3.0,53.0,65.0,56.0,75.0,56,245.0,square3,r,0.2508,2,V,1.0
V1,4.0,49.0,68.0,53.0,72.0,53,298.0,square3,r,0.239,2,V,1.0
V1,5.0,47.0,70.0,59.0,76.0,76,374.0,square4,f,0.2493,3,V,1.0
V1,6.0,55.0,63.0,54.0,76.0,76,450.0,square4,f,0.2353,3,V,1.0
V1,7.0,47.0,67.0,55.0,74.0,74,524.0,square4,f,0.0286,3,V,1.0
V1,8.0,47.0,65.0,46.0,76.0,76,600.0,square4,f,0.1791,3,V,1.0
V1,9.0,46.0,68.0,59.0,78.0,46,646.0,square1,j,0.4514,0,V,1.0
V1,10.0,58.0,67.0,58.0,79.0,58,704.0,square1,j,0.2477,0,V,1.0
V1,11.0,44.0,61.0,54.0,72.0,44,748.0,square1,j,0.2358,0,V,1.0
V1,12.0,44.0,65.0,56.0,75.0,44,792.0,square1,j,0.2662,0,V,1.0
V1,13.0,47.0,63.0,53.0,73.0,63,855.0,square2,i,0.0573,1,V,1.0
V1,14.0,49.0,66.0,56.0,75.0,66,921.0,square2,i,0.1257,1,V,1.0
V1,15.0,49.0,66.0,52.0,79.0,66,987.0,square2,i,0.1874,1,V,1.0
V1,16.0,51.0,61.0,48.0,72.0,61,1048.0,square2,i,0.2053,1,V,1.0
V1,17.0,46.0,61.0,59.0,71.0,71,1119.0,square4,f,0.3932,3,V,1.0
V1,18.0,45.0,61.0,53.0,72.0,72,1191.0,square4,f,0.1344,3,V,1.0
V1,19.0,49.0,63.0,54.0,76.0,76,1267.0,square4,f,0.1006,3,V,1.0
V1,20.0,46.0,66.0,52.0,72.0,72,1339.0,square4,f,0.1292,3,V,1.0
V1,21.0,50.0,65.0,51.0,73.0,73,1412.0,square4,f,0.0348,3,V,1.0
V1,22.0,56.0,62.0,56.0,77.0,77,1489.0,square4,f,0.002,3,V,1.0
V1,23.0,45.0,67.0,54.0,83.0,83,1572.0,square4,f,0.0415,3,V,1.0
V1,24.0,46.0,69.0,57.0,71.0,71,1643.0,square4,f,0.6033,3,V,1.0
V1,25.0,41.0,65.0,55.0,76.0,76,1719.0,square4,f,0.4844,3,V,1.0
V1,26.0,51.0,60.0,55.0,74.0,74,1793.0,square4,f,0.2612,3,V,1.0
V1,27.0,52.0,63.0,56.0,73.0,73,1866.0,square4,f,0.0018,3,V,1.0
V1,28.0,50.0,68.0,50.0,76.0,76,1942.0,square4,f,0.0511,3,V,1.0
V1,29.0,51.0,60.0,54.0,74.0,74,2016.0,square4,f,0.1153,3,V,1.0
V1,30.0,35.0,67.0,57.0,40.0,40,2056.0,square4,f,0.0704,3,V,1.0
V1,31.0,38.0,60.0,52.0,35.0,35,2091.0,square4,f,0.0184,3,V,1.0
V1,32.0,37.0,67.0,52.0,41.0,41,2132.0,square4,f,0.0915,3,V,1.0
V1,33.0,37.0,62.0,53.0,42.0,42,2174.0,square4,f,0.1067,3,V,1.0
V1,34.0,35.0,58.0,54.0,43.0,43,2217.0,square4,f,0.8481,3,V,1.0
V1,35.0,40.0,60.0,50.0,44.0,44,2261.0,square4,f,0.219,3,V,1.0
V1,36.0,39.0,66.0,50.0,39.0,39,2300.0,square4,f,0.1503,3,V,1.0
V1,37.0,32.0,59.0,54.0,38.0,38,2338.0,square4,f,0.0819,3,V,1.0
V1,38.0,32.0,64.0,50.0,39.0,39,2377.0,square4,f,0.1413,3,V,1.0
V1,39.0,37.0,60.0,45.0,40.0,40,2417.0,square4,f,0.1357,3,V,1.0
V1,40.0,35.0,61.0,54.0,43.0,54,2471.0,square3,r,0.092,2,V,1.0
V1,41.0,33.0,62.0,49.0,42.0,49,2520.0,square3,r,0.0539,2,V,1.0
V1,42.0,31.0,70.0,52.0,42.0,52,2572.0,square3,r,0.0077,2,V,1.0
V1,43.0,37.0,59.0,48.0,41.0,59,2631.0,square2,i,0.3291,1,V,1.0
V1,44.0,39.0,63.0,53.0,44.0,63,2694.0,square2,i,0.0766,1,V,1.0
V1,45.0,37.0,62.0,48.0,41.0,62,2756.0,square2,i,0.189,1,V,1.0
V1,46.0,34.0,65.0,52.0,39.0,34,2790.0,square1,j,0.4734,0,V,1.0
V1,47.0,42.0,59.0,52.0,43.0,42,2832.0,square1,j,0.2694,0,V,1.0
V1,48.0,39.0,62.0,50.0,38.0,39,2871.0,square1,j,0.1416,0,V,1.0
V1,49.0,33.0,63.0,49.0,40.0,33,2904.0,square1,j,0.2037,0,V,1.0
V1,50.0,38.0,66.0,54.0,37.0,37,2941.0,square4,f,0.2044,3,V,1.0
V1,51.0,33.0,66.0,50.0,37.0,50,2991.0,square3,r,0.0232,2,V,1.0
V1,52.0,41.0,65.0,55.0,44.0,55,3046.0,square3,r,0.2395,2,V,1.0
V1,53.0,75.0,50.0,46.0,60.0,46,3092.0,square3,r,0.0454,2,V,1.0
V1,54.0,74.0,53.0,45.0,61.0,45,3137.0,square3,r,0.2248,2,V,1.0
V1,55.0,74.0,54.0,43.0,65.0,43,3180.0,square3,r,0.1152,2,V,1.0
V1,56.0,73.0,54.0,44.0,56.0,44,3224.0,square3,r,0.1753,2,V,1.0
V1,57.0,67.0,58.0,52.0,63.0,52,3276.0,square3,r,0.0019,2,V,1.0
V1,58.0,72.0,51.0,43.0,62.0,43,3319.0,square3,r,0.1304,2,V,1.0
V1,59.0,68.0,47.0,49.0,56.0,49,3368.0,square3,r,0.1232,2,V,1.0
V1,60.0,72.0,55.0,46.0,65.0,55,3423.0,square2,i,0.1038,1,V,1.0
V1,61.0,76.0,50.0,46.0,62.0,50,3473.0,square2,i,0.2808,1,V,1.0
V1,62.0,77.0,58.0,46.0,66.0,58,3531.0,square2,i,0.2729,1,V,1.0
V1,63.0,72.0,53.0,48.0,66.0,53,3584.0,square2,i,0.2737,1,V,1.0
V1,64.0,70.0,49.0,49.0,60.0,49,3633.0,square2,i,0.1229,1,V,1.0
V1,65.0,68.0,49.0,46.0,66.0,49,3682.0,square2,i,0.2572,1,V,1.0
V1,66.0,77.0,52.0,41.0,64.0,52,3734.0,square2,i,0.1894,1,V,1.0
V1,67.0,74.0,56.0,42.0,69.0,56,3790.0,square2,i,0.2069,1,V,1.0
V1,68.0,77.0,50.0,46.0,68.0,50,3840.0,square2,i,0.0726,1,V,1.0
V1,69.0,76.0,48.0,45.0,63.0,48,3888.0,square2,i,0.2199,1,V,1.0
V1,70.0,71.0,53.0,50.0,65.0,53,3941.0,square2,i,0.1736,1,V,1.0
V1,71.0,70.0,56.0,44.0,59.0,56,3997.0,square2,i,0.2502,1,V,1.0
V1,72.0,74.0,54.0,55.0,61.0,54,4051.0,square2,i,0.3108,1,V,1.0
V1,73.0,73.0,53.0,47.0,61.0,73,4124.0,square1,j,0.5573,0,V,1.0
V1,74.0,71.0,53.0,51.0,65.0,71,4195.0,square1,j,0.2463,0,V,1.0
V1,75.0,72.0,51.0,48.0,64.0,72,4267.0,square1,j,0.4229,0,V,1.0
V1,76.0,72.0,53.0,49.0,62.0,72,4339.0,square1,j,0.2383,0,V,1.0
V1,77.0,62.0,76.0,64.0,86.0,62,4401.0,square1,j,0.0465,0,V,1.0
V1,78.0,61.0,74.0,63.0,87.0,61,4462.0,square1,j,0.2278,0,V,1.0
V1,79.0,56.0,78.0,67.0,89.0,78,4540.0,square2,i,0.1229,1,V,1.0
V1,80.0,59.0,75.0,63.0,84.0,75,4615.0,square2,i,0.2218,1,V,1.0
V1,81.0,63.0,74.0,68.0,82.0,74,4689.0,square2,i,0.2368,1,V,1.0
V1,82.0,59.0,75.0,67.0,80.0,75,4764.0,square2,i,0.222,1,V,1.0
V1,83.0,58.0,77.0,63.0,82.0,77,4841.0,square2,i,0.1364,1,V,1.0
V1,84.0,57.0,76.0,64.0,87.0,76,4917.0,square2,i,0.254,1,V,1.0
V1,85.0,61.0,73.0,66.0,83.0,83,5000.0,square4,f,0.3801,3,V,1.0
V1,86.0,60.0,71.0,66.0,85.0,85,5085.0,square4,f,0.2729,3,V,1.0
V1,87.0,61.0,80.0,73.0,84.0,84,5169.0,square4,f,0.2231,3,V,1.0
V1,88.0,67.0,77.0,67.0,85.0,85,5254.0,square4,f,0.1459,3,V,1.0
V1,89.0,60.0,79.0,63.0,86.0,86,5340.0,square4,f,0.2137,3,V,1.0
V1,90.0,60.0,74.0,66.0,88.0,88,5428.0,square4,f,0.198,3,V,1.0
V1,91.0,57.0,81.0,61.0,79.0,61,5489.0,square3,r,0.0908,2,V,1.0
V1,92.0,61.0,78.0,61.0,84.0,78,5567.0,square2,i,0.4234,1,V,1.0
V1,93.0,64.0,72.0,69.0,83.0,64,5631.0,square1,j,0.7033,0,V,1.0
V1,94.0,64.0,73.0,68.0,83.0,83,5714.0,square4,f,0.3112,3,V,1.0
V1,95.0,61.0,69.0,68.0,87.0,87,5801.0,square4,f,0.2619,3,V,1.0
V1,96.0,55.0,77.0,65.0,88.0,88,5889.0,square4,f,0.1745,3,V,1.0
V1,97.0,61.0,75.0,63.0,82.0,82,5971.0,square4,f,0.0282,3,V,1.0
V1,98.0,59.0,71.0,66.0,82.0,82,6053.0,square4,f,0.0019,3,V,1.0
V1,99.0,61.0,69.0,67.0,84.0,84,6137.0,square4,f,0.072,3,V,1.0
V5,0.0,46.0,21.0,37.0,28.0,28,28.0,square4,r,0.9942,3,V,5.0
V5,1.0,43.0,27.0,36.0,31.0,43,71.0,square1,f,0.3027,0,V,5.0
V5,2.0,50.0,18.0,43.0,32.0,18,89.0,square2,j,0.1258,1,V,5.0
V5,3.0,53.0,23.0,36.0,34.0,36,125.0,square3,i,0.1519,2,V,5.0
V5,4.0,52.0,19.0,38.0,34.0,34,159.0,square4,r,0.0753,3,V,5.0
V5,5.0,50.0,22.0,41.0,29.0,50,209.0,square1,f,0.2263,0,V,5.0
V5,6.0,52.0,19.0,40.0,33.0,52,261.0,square1,f,0.0023,0,V,5.0
V5,7.0,48.0,24.0,36.0,27.0,48,309.0,square1,f,0.1367,0,V,5.0
V5,8.0,50.0,24.0,35.0,33.0,33,342.0,square4,r,0.056,3,V,5.0
V5,9.0,48.0,25.0,39.0,34.0,48,390.0,square1,f,0.4696,0,V,5.0
V5,10.0,52.0,19.0,32.0,34.0,19,409.0,square2,j,0.0846,1,V,5.0
V5,11.0,48.0,22.0,32.0,32.0,32,441.0,square3,i,0.2356,2,V,5.0
V5,12.0,47.0,17.0,43.0,29.0,47,488.0,square1,f,0.102,0,V,5.0
V5,13.0,46.0,21.0,42.0,29.0,46,534.0,square1,f,0.1229,0,V,5.0
V5,14.0,47.0,28.0,42.0,28.0,47,581.0,square1,f,0.1647,0,V,5.0
V5,15.0,50.0,29.0,38.0,36.0,50,631.0,square1,f,0.1066,0,V,5.0
V5,16.0,49.0,24.0,36.0,34.0,49,680.0,square1,f,0.1575,0,V,5.0
V5,17.0,50.0,20.0,38.0,35.0,50,730.0,square1,f,0.181,0,V,5.0
V5,18.0,49.0,22.0,46.0,29.0,49,779.0,square1,f,0.1251,0,V,5.0
V5,19.0,46.0,23.0,40.0,31.0,31,810.0,square4,r,0.0019,3,V,5.0
V5,20.0,51.0,22.0,41.0,28.0,41,851.0,square3,i,0.2687,2,V,5.0
V5,21.0,51.0,26.0,36.0,31.0,26,877.0,square2,j,0.3001,1,V,5.0
V5,22.0,47.0,18.0,41.0,28.0,41,918.0,square3,i,0.1956,2,V,5.0
V5,23.0,52.0,20.0,36.0,29.0,36,954.0,square3,i,0.1196,2,V,5.0
V5,24.0,51.0,21.0,41.0,34.0,51,1005.0,square1,f,0.1364,0,V,5.0
V5,25.0,50.0,20.0,41.0,27.0,50,1055.0,square1,f,0.1528,0,V,5.0
V5,26.0,49.0,29.0,37.0,28.0,49,1104.0,square1,f,0.1678,0,V,5.0
V5,27.0,10.0,13.0,42.0,32.0,10,1114.0,square1,f,0.1007,0,V,5.0
V5,28.0,9.0,19.0,40.0,27.0,27,1141.0,square4,r,0.1161,3,V,5.0
V5,29.0,17.0,17.0,38.0,29.0,38,1179.0,square3,i,0.1044,2,V,5.0
V5,30.0,8.0,18.0,36.0,29.0,18,1197.0,square2,j,0.0846,1,V,5.0
V5,31.0,16.0,24.0,34.0,29.0,34,1231.0,square3,i,0.2574,2,V,5.0
V5,32.0,9.0,17.0,35.0,31.0,9,1240.0,square1,f,0.0971,0,V,5.0
V5,33.0,11.0,19.0,36.0,28.0,11,1251.0,square1,f,0.1638,0,V,5.0
V5,34.0,10.0,19.0,38.0,28.0,10,1261.0,square1,f,0.18,0,V,5.0
V5,35.0,5.0,23.0,40.0,34.0,40,1301.0,square3,i,0.1497,2,V,5.0
V5,36.0,17.0,20.0,36.0,31.0,31,1332.0,square4,r,0.0787,3,V,5.0
V5,37.0,12.0,13.0,36.0,30.0,30,1362.0,square4,r,0.1658,3,V,5.0
V5,38.0,14.0,24.0,35.0,27.0,35,1397.0,square3,i,0.2414,2,V,5.0
V5,39.0,13.0,20.0,39.0,32.0,20,1417.0,square2,j,0.2285,1,V,5.0
V5,40.0,9.0,15.0,37.0,24.0,37,1454.0,square3,i,0.0092,2,V,5.0
V5,41.0,9.0,14.0,38.0,31.0,38,1492.0,square3,i,0.0095,2,V,5.0
V5,42.0,14.0,17.0,43.0,31.0,43,1535.0,square3,i,0.1376,2,V,5.0
V5,43.0,10.0,18.0,39.0,23.0,39,1574.0,square3,i,0.0781,2,V,5.0
V5,44.0,10.0,20.0,33.0,32.0,33,1607.0,square3,i,0.0752,2,V,5.0
V5,45.0,16.0,17.0,37.0,29.0,37,1644.0,square3,i,0.258,2,V,5.0
V5,46.0,9.0,22.0,37.0,25.0,37,1681.0,square3,i,0.2402,2,V,5.0
V5,47.0,10.0,22.0,35.0,26.0,26,1707.0,square4,r,0.0502,3,V,5.0
V5,48.0,11.0,16.0,39.0,23.0,16,1723.0,square2,j,0.1246,1,V,5.0
V5,49.0,13.0,16.0,33.0,27.0,13,1736.0,square1,f,0.2376,0,V,5.0
V5,50.0,12.0,16.0,39.0,24.0,39,1775.0,square3,i,0.2118,2,V,5.0
V5,51.0,10.0,21.0,43.0,28.0,43,1818.0,square3,i,0.2026,2,V,5.0
V5,52.0,8.0,15.0,36.0,28.0,36,1854.0,square3,i,0.1203,2,V,5.0
V5,53.0,38.0,20.0,31.0,54.0,31,1885.0,square3,i,0.0849,2,V,5.0
V5,54.0,39.0,20.0,35.0,51.0,35,1920.0,square3,i,0.0818,2,V,5.0
V5,55.0,41.0,21.0,27.0,50.0,27,1947.0,square3,i,0.0256,2,V,5.0
V5,56.0,39.0,23.0,28.0,49.0,28,1975.0,square3,i,0.0188,2,V,5.0
V5,57.0,36.0,28.0,29.0,59.0,29,2004.0,square3,i,0.0277,2,V,5.0
V5,58.0,38.0,22.0,28.0,49.0,28,2032.0,square3,i,0.8533,2,V,5.0
V5,59.0,44.0,23.0,30.0,51.0,23,2055.0,square2,j,0.0424,1,V,5.0
V5,60.0,43.0,21.0,31.0,48.0,21,2076.0,square2,j,0.0358,1,V,5.0
V5,61.0,39.0,24.0,35.0,50.0,24,2100.0,square2,j,0.082,1,V,5.0
V5,62.0,38.0,25.0,31.0,52.0,52,2152.0,square4,r,0.1462,3,V,5.0
V5,63.0,41.0,14.0,31.0,52.0,52,2204.0,square4,r,0.0245,3,V,5.0
V5,64.0,43.0,23.0,30.0,51.0,51,2255.0,square4,r,0.07,3,V,5.0
V5,65.0,41.0,23.0,35.0,52.0,52,2307.0,square4,r,0.0877,3,V,5.0
V5,66.0,41.0,17.0,33.0,47.0,47,2354.0,square4,r,0.0019,3,V,5.0
V5,67.0,44.0,23.0,32.0,49.0,49,2403.0,square4,r,0.1015,3,V,5.0
V5,68.0,44.0,24.0,31.0,44.0,44,2447.0,square4,r,0.0006,3,V,5.0
V5,69.0,43.0,28.0,27.0,48.0,43,2490.0,square1,f,0.6168,0,V,5.0
V5,70.0,38.0,22.0,26.0,50.0,38,2528.0,square1,f,0.0626,0,V,5.0
V5,71.0,41.0,29.0,26.0,53.0,53,2581.0,square4,r,0.0005,3,V,5.0
V5,72.0,40.0,20.0,28.0,51.0,51,2632.0,square4,r,0.2212,3,V,5.0
V5,73.0,59.0,44.0,51.0,35.0,51,2683.0,square3,i,0.0455,2,V,5.0
V5,74.0,60.0,38.0,55.0,43.0,55,2738.0,square3,i,0.1179,2,V,5.0
V5,75.0,63.0,45.0,50.0,37.0,50,2788.0,square3,i,0.2426,2,V,5.0
V5,76.0,62.0,42.0,50.0,37.0,37,2825.0,square4,r,0.2118,3,V,5.0
V5,77.0,57.0,37.0,52.0,35.0,52,2877.0,square3,i,0.3268,2,V,5.0
V5,78.0,66.0,45.0,54.0,37.0,54,2931.0,square3,i,0.2758,2,V,5.0
V5,79.0,64.0,37.0,48.0,35.0,48,2979.0,square3,i,0.2471,2,V,5.0
V5,80.0,63.0,40.0,56.0,38.0,63,3042.0,square1,f,0.2515,0,V,5.0
V5,81.0,62.0,41.0,54.0,32.0,62,3104.0,square1,f,0.2511,0,V,5.0
V5,82.0,58.0,41.0,59.0,39.0,58,3162.0,square1,f,0.2331,0,V,5.0
V5,83.0,66.0,46.0,54.0,35.0,66,3228.0,square1,f,0.219,0,V,5.0
V5,84.0,67.0,44.0,52.0,33.0,44,3272.0,square2,j,0.119,1,V,5.0
V5,85.0,67.0,45.0,46.0,36.0,45,3317.0,square2,j,0.1776,1,V,5.0
V5,86.0,65.0,44.0,51.0,38.0,65,3382.0,square1,f,0.2221,0,V,5.0
V5,87.0,64.0,49.0,48.0,35.0,64,3446.0,square1,f,0.1913,0,V,5.0
V5,88.0,68.0,47.0,56.0,36.0,68,3514.0,square1,f,0.1028,0,V,5.0
V5,89.0,60.0,42.0,57.0,32.0,42,3556.0,square2,j,0.302,1,V,5.0
V5,90.0,59.0,43.0,53.0,34.0,59,3615.0,square1,f,0.3086,0,V,5.0
V5,91.0,64.0,43.0,51.0,34.0,34,3649.0,square4,r,0.1345,3,V,5.0
V5,92.0,65.0,41.0,57.0,38.0,57,3706.0,square3,i,0.2197,2,V,5.0
V5,93.0,59.0,48.0,54.0,40.0,59,3765.0,square1,f,0.3012,0,V,5.0
V5,94.0,66.0,44.0,53.0,43.0,66,3831.0,square1,f,0.1997,0,V,5.0
V5,95.0,63.0,43.0,50.0,40.0,63,3894.0,square1,f,0.2136,0,V,5.0
V5,96.0,62.0,44.0,50.0,33.0,62,3956.0,square1,f,0.1165,0,V,5.0
V5,97.0,64.0,49.0,55.0,37.0,64,4020.0,square1,f,0.0796,0,V,5.0
V5,98.0,65.0,44.0,53.0,36.0,65,4085.0,square1,f,0.0571,0,V,5.0
V5,99.0,65.0,42.0,55.0,35.0,65,4150.0,square1,f,0.07,0,V,5.0
V9,0.0,20.0,29.0,37.0,45.0,45,45.0,square4,f,0.8427,3,V,9.0
V9,1.0,21.0,32.0,39.0,45.0,39,84.0,square3,r,1.3795,2,V,9.0
V9,2.0,16.0,27.0,41.0,48.0,16,100.0,square1,j,0.4355,0,V,9.0
V9,3.0,20.0,30.0,42.0,50.0,30,130.0,square2,i,0.1659,1,V,9.0
V9,4.0,22.0,34.0,37.0,47.0,47,177.0,square4,f,0.2756,3,V,9.0
V9,5.0,17.0,32.0,38.0,49.0,49,226.0,square4,f,0.1666,3,V,9.0
V9,6.0,17.0,25.0,39.0,47.0,47,273.0,square4,f,0.2083,3,V,9.0
V9,7.0,22.0,28.0,33.0,48.0,48,321.0,square4,f,0.2119,3,V,9.0
V9,8.0,20.0,24.0,34.0,41.0,34,355.0,square3,r,0.0792,2,V,9.0
V9,9.0,20.0,33.0,30.0,51.0,33,388.0,square2,i,0.1063,1,V,9.0
V9,10.0,21.0,35.0,38.0,50.0,38,426.0,square3,r,0.1984,2,V,9.0
V9,11.0,19.0,29.0,44.0,45.0,45,471.0,square4,f,0.1403,3,V,9.0
V9,12.0,27.0,24.0,38.0,54.0,54,525.0,square4,f,0.1735,3,V,9.0
V9,13.0,15.0,26.0,37.0,50.0,50,575.0,square4,f,0.2256,3,V,9.0
V9,14.0,24.0,26.0,39.0,42.0,42,617.0,square4,f,0.1374,3,V,9.0
V9,15.0,26.0,27.0,43.0,49.0,26,643.0,square1,j,0.0839,0,V,9.0
V9,16.0,19.0,30.0,42.0,49.0,49,692.0,square4,f,0.049,3,V,9.0
V9,17.0,21.0,30.0,34.0,49.0,49,741.0,square4,f,0.1835,3,V,9.0
V9,18.0,25.0,33.0,41.0,51.0,51,792.0,square4,f,0.0571,3,V,9.0
V9,19.0,17.0,31.0,41.0,45.0,45,837.0,square4,f,0.1244,3,V,9.0
V9,20.0,19.0,31.0,34.0,49.0,49,886.0,square4,f,0.1706,3,V,9.0
V9,21.0,23.0,29.0,37.0,48.0,48,934.0,square4,f,0.1249,3,V,9.0
V9,22.0,15.0,32.0,36.0,48.0,36,970.0,square3,r,0.0875,2,V,9.0
V9,23.0,25.0,33.0,39.0,47.0,33,1003.0,square2,i,0.1526,1,V,9.0
V9,24.0,21.0,30.0,38.0,52.0,21,1024.0,square1,j,0.2296,0,V,9.0
V9,25.0,25.0,29.0,42.0,48.0,48,1072.0,square4,f,0.1495,3,V,9.0
V9,26.0,22.0,29.0,39.0,47.0,47,1119.0,square4,f,0.0953,3,V,9.0
V9,27.0,17.0,31.0,45.0,41.0,41,1160.0,square4,f,0.1695,3,V,9.0
V9,28.0,29.0,28.0,43.0,43.0,43,1203.0,square4,f,0.2006,3,V,9.0
V9,29.0,20.0,31.0,43.0,49.0,31,1234.0,square2,i,0.041,1,V,9.0
V9,30.0,23.0,33.0,39.0,48.0,33,1267.0,square2,i,0.0394,1,V,9.0
V9,31.0,20.0,27.0,38.0,53.0,38,1305.0,square3,r,0.2018,2,V,9.0
V9,32.0,23.0,29.0,37.0,49.0,37,1342.0,square3,r,0.1873,2,V,9.0
V9,33.0,24.0,33.0,37.0,49.0,24,1366.0,square1,j,0.4495,0,V,9.0
V9,34.0,43.0,58.0,48.0,30.0,30,1396.0,square4,f,0.1336,3,V,9.0
V9,35.0,48.0,59.0,45.0,34.0,34,1430.0,square4,f,0.2183,3,V,9.0
V9,36.0,39.0,56.0,54.0,32.0,32,1462.0,square4,f,0.2345,3,V,9.0
V9,37.0,40.0,57.0,50.0,35.0,57,1519.0,square2,i,0.2574,1,V,9.0
V9,38.0,49.0,62.0,51.0,33.0,62,1581.0,square2,i,0.2353,1,V,9.0
V9,39.0,45.0,61.0,48.0,34.0,61,1642.0,square2,i,0.2419,1,V,9.0
V9,40.0,40.0,65.0,51.0,29.0,65,1707.0,square2,i,0.2478,1,V,9.0
V9,41.0,44.0,57.0,50.0,38.0,57,1764.0,square2,i,0.2499,1,V,9.0
V9,42.0,40.0,57.0,49.0,33.0,57,1821.0,square2,i,0.1521,1,V,9.0
V9,43.0,42.0,64.0,54.0,35.0,64,1885.0,square2,i,0.4228,1,V,9.0
V9,44.0,44.0,55.0,49.0,39.0,49,1934.0,square3,r,0.1516,2,V,9.0
V9,45.0,37.0,66.0,51.0,35.0,66,2000.0,square2,i,0.0021,1,V,9.0
V9,46.0,40.0,59.0,51.0,32.0,59,2059.0,square2,i,0.2348,1,V,9.0
V9,47.0,38.0,62.0,57.0,31.0,62,2121.0,square2,i,0.1264,1,V,9.0
V9,48.0,43.0,61.0,54.0,34.0,61,2182.0,square2,i,0.1739,1,V,9.0
V9,49.0,43.0,61.0,49.0,40.0,61,2243.0,square2,i,0.0447,1,V,9.0
V9,50.0,37.0,58.0,51.0,32.0,58,2301.0,square2,i,0.2104,1,V,9.0
V9,51.0,44.0,63.0,48.0,39.0,44,2345.0,square1,j,0.2042,0,V,9.0
V9,52.0,35.0,65.0,48.0,30.0,30,2375.0,square4,f,0.2028,3,V,9.0
V9,53.0,43.0,59.0,48.0,39.0,48,2423.0,square3,r,0.1351,2,V,9.0
V9,54.0,43.0,59.0,52.0,30.0,59,2482.0,square2,i,0.163,1,V,9.0
V9,55.0,41.0,58.0,51.0,34.0,58,2540.0,square2,i,0.106,1,V,9.0
V9,56.0,44.0,63.0,50.0,33.0,63,2603.0,square2,i,0.0071,1,V,9.0
V9,57.0,42.0,60.0,49.0,32.0,60,2663.0,square2,i,0.1521,1,V,9.0
V9,58.0,44.0,62.0,57.0,30.0,62,2725.0,square2,i,0.1011,1,V,9.0
V9,59.0,45.0,61.0,45.0,31.0,61,2786.0,square2,i,0.1041,1,V,9.0
V9,60.0,43.0,63.0,53.0,33.0,63,2849.0,square2,i,0.5439,1,V,9.0
V9,61.0,39.0,56.0,55.0,31.0,56,2905.0,square2,i,0.1409,1,V,9.0
V9,62.0,39.0,61.0,50.0,34.0,61,2966.0,square2,i,0.068,1,V,9.0
V9,63.0,44.0,57.0,48.0,36.0,57,3023.0,square2,i,0.1513,1,V,9.0
V9,64.0,40.0,60.0,58.0,35.0,35,3058.0,square4,f,0.1856,3,V,9.0
V9,65.0,42.0,60.0,54.0,38.0,60,3118.0,square2,i,0.1012,1,V,9.0
V9,66.0,41.0,60.0,54.0,37.0,60,3178.0,square2,i,0.1142,1,V,9.0
V9,67.0,43.0,61.0,54.0,40.0,61,3239.0,square2,i,0.1272,1,V,9.0
V9,68.0,45.0,40.0,26.0,18.0,40,3279.0,square2,i,0.1081,1,V,9.0
V9,69.0,50.0,41.0,29.0,20.0,29,3308.0,square3,r,0.0969,2,V,9.0
V9,70.0,43.0,36.0,27.0,15.0,36,3344.0,square2,i,0.0834,1,V,9.0
V9,71.0,44.0,40.0,28.0,18.0,44,3388.0,square1,j,0.002,0,V,9.0
V9,72.0,42.0,38.0,27.0,18.0,18,3406.0,square4,f,0.0068,3,V,9.0
V9,73.0,46.0,33.0,25.0,19.0,33,3439.0,square2,i,0.5945,1,V,9.0
V9,74.0,47.0,40.0,28.0,20.0,40,3479.0,square2,i,0.1372,1,V,9.0
V9,75.0,39.0,39.0,27.0,25.0,39,3518.0,square2,i,0.1857,1,V,9.0
V9,76.0,50.0,31.0,29.0,23.0,31,3549.0,square2,i,0.1174,1,V,9.0
V9,77.0,44.0,37.0,28.0,13.0,37,3586.0,square2,i,0.0402,1,V,9.0
V9,78.0,43.0,36.0,23.0,17.0,36,3622.0,square2,i,0.0685,1,V,9.0
V9,79.0,42.0,36.0,28.0,24.0,36,3658.0,square2,i,0.4869,1,V,9.0
V9,80.0,47.0,35.0,30.0,14.0,30,3688.0,square3,r,0.1191,2,V,9.0
V9,81.0,46.0,33.0,29.0,18.0,18,3706.0,square4,f,0.0525,3,V,9.0
V9,82.0,46.0,35.0,28.0,18.0,46,3752.0,square1,j,0.0895,0,V,9.0
V9,83.0,47.0,41.0,32.0,15.0,47,3799.0,square1,j,0.2344,0,V,9.0
V9,84.0,45.0,38.0,31.0,18.0,45,3844.0,square1,j,0.2483,0,V,9.0
V9,85.0,42.0,35.0,30.0,21.0,42,3886.0,square1,j,0.1184,0,V,9.0
V9,86.0,49.0,39.0,23.0,18.0,39,3925.0,square2,i,0.1676,1,V,9.0
V9,87.0,49.0,39.0,27.0,16.0,49,3974.0,square1,j,0.137,0,V,9.0
V9,88.0,45.0,38.0,25.0,14.0,45,4019.0,square1,j,0.2253,0,V,9.0
V9,89.0,45.0,32.0,28.0,19.0,45,4064.0,square1,j,0.1842,0,V,9.0
V9,90.0,44.0,35.0,29.0,20.0,44,4108.0,square1,j,0.0515,0,V,9.0
V9,91.0,42.0,38.0,32.0,16.0,42,4150.0,square1,j,0.5008,0,V,9.0
V9,92.0,45.0,36.0,23.0,20.0,45,4195.0,square1,j,0.0583,0,V,9.0
V9,93.0,45.0,35.0,26.0,18.0,35,4230.0,square2,i,0.1169,1,V,9.0
V9,94.0,44.0,37.0,27.0,13.0,13,4243.0,square4,f,0.1289,3,V,9.0
V9,95.0,46.0,36.0,25.0,20.0,46,4289.0,square1,j,0.0907,0,V,9.0
V9,96.0,43.0,39.0,27.0,16.0,43,4332.0,square1,j,0.2616,0,V,9.0
V9,97.0,48.0,39.0,30.0,16.0,48,4380.0,square1,j,0.1089,0,V,9.0
V9,98.0,49.0,40.0,26.0,20.0,40,4420.0,square2,i,0.0796,1,V,9.0
V9,99.0,49.0,41.0,27.0,18.0,41,4461.0,square2,i,0.0977,1,V,9.0
