block,Trial,square1,square2,square3,square4,currPoints,totalPoints,square,choiceKey.keys,choiceKey.rt,armNum,blockType,blockNum
prac,0.0,100.0,0.0,0.0,0.0,0.0,0.0,square4,,,3,p,0.0
prac,1.0,100.0,0.0,0.0,0.0,0.0,0.0,square3,,,2,p,0.0
prac,2.0,100.0,0.0,0.0,0.0,0.0,0.0,square2,,,1,p,0.0
prac,3.0,100.0,0.0,0.0,0.0,100.0,100.0,square1,,,0,p,0.0
prac,4.0,100.0,0.0,0.0,0.0,0.0,100.0,square2,,,1,p,0.0
prac,5.0,100.0,0.0,0.0,0.0,100.0,200.0,square1,,,0,p,0.0
prac,6.0,100.0,0.0,0.0,0.0,100.0,300.0,square1,,,0,p,0.0
prac,7.0,100.0,0.0,0.0,0.0,100.0,400.0,square1,,,0,p,0.0
prac,8.0,100.0,0.0,0.0,0.0,100.0,500.0,square1,,,0,p,0.0
prac,9.0,100.0,0.0,0.0,0.0,100.0,600.0,square1,,,0,p,0.0
V5,0.0,46.0,21.0,37.0,28.0,37.0,37.0,square3,r,0.8222,2,V,5.0
V5,1.0,43.0,27.0,36.0,31.0,27.0,64.0,square2,f,0.6055,1,V,5.0
V5,2.0,50.0,18.0,43.0,32.0,32.0,96.0,square4,i,0.542,3,V,5.0
V5,3.0,53.0,23.0,36.0,34.0,53.0,149.0,square1,j,0.4596,0,V,5.0
V5,4.0,52.0,19.0,38.0,34.0,38.0,187.0,square3,r,0.5382,2,V,5.0
V5,5.0,50.0,22.0,41.0,29.0,29.0,216.0,square4,i,0.3479,3,V,5.0
V5,6.0,52.0,19.0,40.0,33.0,52.0,268.0,square1,j,0.5753,0,V,5.0
V5,7.0,48.0,24.0,36.0,27.0,48.0,316.0,square1,j,0.399,0,V,5.0
V5,8.0,50.0,24.0,35.0,33.0,24.0,340.0,square2,f,0.3406,1,V,5.0
V5,9.0,48.0,25.0,39.0,34.0,39.0,379.0,square3,r,0.3455,2,V,5.0
V5,10.0,52.0,19.0,32.0,34.0,52.0,431.0,square1,j,0.4484,0,V,5.0
V5,11.0,48.0,22.0,32.0,32.0,48.0,479.0,square1,j,0.4976,0,V,5.0
V5,12.0,47.0,17.0,43.0,29.0,47.0,526.0,square1,j,0.3325,0,V,5.0
V5,13.0,46.0,21.0,42.0,29.0,29.0,555.0,square4,i,0.3413,3,V,5.0
V5,14.0,47.0,28.0,42.0,28.0,42.0,597.0,square3,r,0.0283,2,V,5.0
V5,15.0,50.0,29.0,38.0,36.0,29.0,626.0,square2,f,0.1736,1,V,5.0
V5,16.0,49.0,24.0,36.0,34.0,49.0,675.0,square1,j,0.2267,0,V,5.0
V5,17.0,50.0,20.0,38.0,35.0,50.0,725.0,square1,j,0.2101,0,V,5.0
V5,18.0,49.0,22.0,46.0,29.0,49.0,774.0,square1,j,0.1628,0,V,5.0
V5,19.0,46.0,23.0,40.0,31.0,46.0,820.0,square1,j,0.2009,0,V,5.0
V5,20.0,51.0,22.0,41.0,28.0,51.0,871.0,square1,j,0.1651,0,V,5.0
V5,21.0,51.0,26.0,36.0,31.0,51.0,922.0,square1,j,0.3321,0,V,5.0
V5,22.0,47.0,18.0,41.0,28.0,47.0,969.0,square1,j,0.1404,0,V,5.0
V5,23.0,52.0,20.0,36.0,29.0,52.0,1021.0,square1,j,0.2763,0,V,5.0
V5,24.0,51.0,21.0,41.0,34.0,51.0,1072.0,square1,j,0.8032,0,V,5.0
V5,25.0,50.0,20.0,41.0,27.0,41.0,1113.0,square3,r,0.3315,2,V,5.0
V5,26.0,49.0,29.0,37.0,28.0,49.0,1162.0,square1,j,0.0876,0,V,5.0
V5,27.0,10.0,13.0,42.0,32.0,10.0,1172.0,square1,j,0.2986,0,V,5.0
V5,28.0,9.0,19.0,40.0,27.0,40.0,1212.0,square3,r,0.373,2,V,5.0
V5,29.0,17.0,17.0,38.0,29.0,38.0,1250.0,square3,r,0.2527,2,V,5.0
V5,30.0,8.0,18.0,36.0,29.0,36.0,1286.0,square3,r,0.2651,2,V,5.0
V5,31.0,16.0,24.0,34.0,29.0,29.0,1315.0,square4,i,0.0107,3,V,5.0
V5,32.0,9.0,17.0,35.0,31.0,17.0,1332.0,square2,f,0.1104,1,V,5.0
V5,33.0,11.0,19.0,36.0,28.0,36.0,1368.0,square3,r,0.0205,2,V,5.0
V5,34.0,10.0,19.0,38.0,28.0,38.0,1406.0,square3,r,0.2221,2,V,5.0
V5,35.0,5.0,23.0,40.0,34.0,40.0,1446.0,square3,r,0.2113,2,V,5.0
V5,36.0,17.0,20.0,36.0,31.0,36.0,1482.0,square3,r,0.2738,2,V,5.0
V5,37.0,12.0,13.0,36.0,30.0,36.0,1518.0,square3,r,0.3139,2,V,5.0
V5,38.0,14.0,24.0,35.0,27.0,35.0,1553.0,square3,r,0.0795,2,V,5.0
V5,39.0,13.0,20.0,39.0,32.0,39.0,1592.0,square3,r,0.2869,2,V,5.0
V5,40.0,9.0,15.0,37.0,24.0,37.0,1629.0,square3,r,0.1046,2,V,5.0
V5,41.0,9.0,14.0,38.0,31.0,38.0,1667.0,square3,r,0.2097,2,V,5.0
V5,42.0,14.0,17.0,43.0,31.0,43.0,1710.0,square3,r,0.1407,2,V,5.0
V5,43.0,10.0,18.0,39.0,23.0,39.0,1749.0,square3,r,0.049,2,V,5.0
V5,44.0,10.0,20.0,33.0,32.0,33.0,1782.0,square3,r,0.2964,2,V,5.0
V5,45.0,16.0,17.0,37.0,29.0,37.0,1819.0,square3,r,0.2002,2,V,5.0
V5,46.0,9.0,22.0,37.0,25.0,37.0,1856.0,square3,r,0.1112,2,V,5.0
V5,47.0,10.0,22.0,35.0,26.0,35.0,1891.0,square3,r,0.22,2,V,5.0
V5,48.0,11.0,16.0,39.0,23.0,39.0,1930.0,square3,r,0.3121,2,V,5.0
V5,49.0,13.0,16.0,33.0,27.0,33.0,1963.0,square3,r,0.2685,2,V,5.0
V5,50.0,12.0,16.0,39.0,24.0,39.0,2002.0,square3,r,0.1856,2,V,5.0
V5,51.0,10.0,21.0,43.0,28.0,10.0,2012.0,square1,j,0.1315,0,V,5.0
V5,52.0,8.0,15.0,36.0,28.0,36.0,2048.0,square3,r,0.1737,2,V,5.0
V5,53.0,38.0,20.0,31.0,54.0,31.0,2079.0,square3,r,0.242,2,V,5.0
V5,54.0,39.0,20.0,35.0,51.0,35.0,2114.0,square3,r,0.1683,2,V,5.0
V5,55.0,41.0,21.0,27.0,50.0,27.0,2141.0,square3,r,0.2474,2,V,5.0
V5,56.0,39.0,23.0,28.0,49.0,28.0,2169.0,square3,r,0.0009,2,V,5.0
V5,57.0,36.0,28.0,29.0,59.0,29.0,2198.0,square3,r,0.1406,2,V,5.0
V5,58.0,38.0,22.0,28.0,49.0,28.0,2226.0,square3,r,0.1691,2,V,5.0
V5,59.0,44.0,23.0,30.0,51.0,30.0,2256.0,square3,r,0.0058,2,V,5.0
V5,60.0,43.0,21.0,31.0,48.0,31.0,2287.0,square3,r,0.1806,2,V,5.0
V5,61.0,39.0,24.0,35.0,50.0,35.0,2322.0,square3,r,0.0656,2,V,5.0
V5,62.0,38.0,25.0,31.0,52.0,31.0,2353.0,square3,r,0.147,2,V,5.0
V5,63.0,41.0,14.0,31.0,52.0,31.0,2384.0,square3,r,0.1073,2,V,5.0
V5,64.0,43.0,23.0,30.0,51.0,30.0,2414.0,square3,r,0.1532,2,V,5.0
V5,65.0,41.0,23.0,35.0,52.0,35.0,2449.0,square3,r,0.2299,2,V,5.0
V5,66.0,41.0,17.0,33.0,47.0,33.0,2482.0,square3,r,0.1938,2,V,5.0
V5,67.0,44.0,23.0,32.0,49.0,32.0,2514.0,square3,r,0.0992,2,V,5.0
V5,68.0,44.0,24.0,31.0,44.0,31.0,2545.0,square3,r,1.2308,2,V,5.0
V5,69.0,43.0,28.0,27.0,48.0,27.0,2572.0,square3,r,0.3126,2,V,5.0
V5,70.0,38.0,22.0,26.0,50.0,26.0,2598.0,square3,r,0.2488,2,V,5.0
V5,71.0,41.0,29.0,26.0,53.0,26.0,2624.0,square3,r,0.2652,2,V,5.0
V5,72.0,40.0,20.0,28.0,51.0,51.0,2675.0,square4,i,0.6987,3,V,5.0
V5,73.0,59.0,44.0,51.0,35.0,35.0,2710.0,square4,i,0.294,3,V,5.0
V5,74.0,60.0,38.0,55.0,43.0,43.0,2753.0,square4,i,0.2326,3,V,5.0
V5,75.0,63.0,45.0,50.0,37.0,37.0,2790.0,square4,i,0.2704,3,V,5.0
V5,76.0,62.0,42.0,50.0,37.0,37.0,2827.0,square4,i,0.273,3,V,5.0
V5,77.0,57.0,37.0,52.0,35.0,35.0,2862.0,square4,i,0.2851,3,V,5.0
V5,78.0,66.0,45.0,54.0,37.0,37.0,2899.0,square4,i,0.2782,3,V,5.0
V5,79.0,64.0,37.0,48.0,35.0,35.0,2934.0,square4,i,0.266,3,V,5.0
V5,80.0,63.0,40.0,56.0,38.0,38.0,2972.0,square4,i,0.0987,3,V,5.0
V5,81.0,62.0,41.0,54.0,32.0,32.0,3004.0,square4,i,0.1667,3,V,5.0
V5,82.0,58.0,41.0,59.0,39.0,41.0,3045.0,square2,f,0.2987,1,V,5.0
V5,83.0,66.0,46.0,54.0,35.0,46.0,3091.0,square2,f,0.2718,1,V,5.0
V5,84.0,67.0,44.0,52.0,33.0,44.0,3135.0,square2,f,0.2714,1,V,5.0
V5,85.0,67.0,45.0,46.0,36.0,45.0,3180.0,square2,f,0.2907,1,V,5.0
V5,86.0,65.0,44.0,51.0,38.0,44.0,3224.0,square2,f,0.2435,1,V,5.0
V5,87.0,64.0,49.0,48.0,35.0,49.0,3273.0,square2,f,0.2191,1,V,5.0
V5,88.0,68.0,47.0,56.0,36.0,47.0,3320.0,square2,f,0.2186,1,V,5.0
V5,89.0,60.0,42.0,57.0,32.0,42.0,3362.0,square2,f,0.2178,1,V,5.0
V5,90.0,59.0,43.0,53.0,34.0,43.0,3405.0,square2,f,0.2087,1,V,5.0
V5,91.0,64.0,43.0,51.0,34.0,43.0,3448.0,square2,f,0.2265,1,V,5.0
V5,92.0,65.0,41.0,57.0,38.0,38.0,3486.0,square4,i,0.1331,3,V,5.0
V5,93.0,59.0,48.0,54.0,40.0,48.0,3534.0,square2,f,0.1464,1,V,5.0
V5,94.0,66.0,44.0,53.0,43.0,44.0,3578.0,square2,f,0.2746,1,V,5.0
V5,95.0,63.0,43.0,50.0,40.0,43.0,3621.0,square2,f,0.0398,1,V,5.0
V5,96.0,62.0,44.0,50.0,33.0,44.0,3665.0,square2,f,0.219,1,V,5.0
V5,97.0,64.0,49.0,55.0,37.0,49.0,3714.0,square2,f,0.1876,1,V,5.0
V5,98.0,65.0,44.0,53.0,36.0,44.0,3758.0,square2,f,0.1272,1,V,5.0
V5,99.0,65.0,42.0,55.0,35.0,42.0,3800.0,square2,f,0.342,1,V,5.0
V9,0.0,20.0,29.0,37.0,45.0,45.0,45.0,square4,r,0.9036,3,V,9.0
V9,1.0,21.0,32.0,39.0,45.0,32.0,77.0,square2,i,0.262,1,V,9.0
V9,2.0,16.0,27.0,41.0,48.0,41.0,118.0,square3,j,0.2667,2,V,9.0
V9,3.0,20.0,30.0,42.0,50.0,20.0,138.0,square1,f,0.2718,0,V,9.0
V9,4.0,22.0,34.0,37.0,47.0,47.0,185.0,square4,r,0.3075,3,V,9.0
V9,5.0,17.0,32.0,38.0,49.0,49.0,234.0,square4,r,0.1966,3,V,9.0
V9,6.0,17.0,25.0,39.0,47.0,47.0,281.0,square4,r,0.2494,3,V,9.0
V9,7.0,22.0,28.0,33.0,48.0,48.0,329.0,square4,r,0.1654,3,V,9.0
V9,8.0,20.0,24.0,34.0,41.0,41.0,370.0,square4,r,0.2181,3,V,9.0
V9,9.0,20.0,33.0,30.0,51.0,51.0,421.0,square4,r,0.1325,3,V,9.0
V9,10.0,21.0,35.0,38.0,50.0,50.0,471.0,square4,r,0.1308,3,V,9.0
V9,11.0,19.0,29.0,44.0,45.0,45.0,516.0,square4,r,0.2598,3,V,9.0
V9,12.0,27.0,24.0,38.0,54.0,54.0,570.0,square4,r,0.0488,3,V,9.0
V9,13.0,15.0,26.0,37.0,50.0,50.0,620.0,square4,r,0.1534,3,V,9.0
V9,14.0,24.0,26.0,39.0,42.0,42.0,662.0,square4,r,0.1716,3,V,9.0
V9,15.0,26.0,27.0,43.0,49.0,49.0,711.0,square4,r,0.2605,3,V,9.0
V9,16.0,19.0,30.0,42.0,49.0,49.0,760.0,square4,r,0.2124,3,V,9.0
V9,17.0,21.0,30.0,34.0,49.0,49.0,809.0,square4,r,0.201,3,V,9.0
V9,18.0,25.0,33.0,41.0,51.0,51.0,860.0,square4,r,0.2073,3,V,9.0
V9,19.0,17.0,31.0,41.0,45.0,45.0,905.0,square4,r,0.2763,3,V,9.0
V9,20.0,19.0,31.0,34.0,49.0,49.0,954.0,square4,r,0.2165,3,V,9.0
V9,21.0,23.0,29.0,37.0,48.0,48.0,1002.0,square4,r,0.15,3,V,9.0
V9,22.0,15.0,32.0,36.0,48.0,48.0,1050.0,square4,r,0.2327,3,V,9.0
V9,23.0,25.0,33.0,39.0,47.0,47.0,1097.0,square4,r,0.1808,3,V,9.0
V9,24.0,21.0,30.0,38.0,52.0,52.0,1149.0,square4,r,0.2102,3,V,9.0
V9,25.0,25.0,29.0,42.0,48.0,48.0,1197.0,square4,r,0.2718,3,V,9.0
V9,26.0,22.0,29.0,39.0,47.0,47.0,1244.0,square4,r,0.2002,3,V,9.0
V9,27.0,17.0,31.0,45.0,41.0,41.0,1285.0,square4,r,0.3338,3,V,9.0
V9,28.0,29.0,28.0,43.0,43.0,43.0,1328.0,square4,r,0.0962,3,V,9.0
V9,29.0,20.0,31.0,43.0,49.0,49.0,1377.0,square4,r,0.1926,3,V,9.0
V9,30.0,23.0,33.0,39.0,48.0,48.0,1425.0,square4,r,0.0434,3,V,9.0
V9,31.0,20.0,27.0,38.0,53.0,53.0,1478.0,square4,r,0.2401,3,V,9.0
V9,32.0,23.0,29.0,37.0,49.0,49.0,1527.0,square4,r,0.0714,3,V,9.0
V9,33.0,24.0,33.0,37.0,49.0,49.0,1576.0,square4,r,0.1423,3,V,9.0
V9,34.0,43.0,58.0,48.0,30.0,30.0,1606.0,square4,r,0.1155,3,V,9.0
V9,35.0,48.0,59.0,45.0,34.0,34.0,1640.0,square4,r,0.054,3,V,9.0
V9,36.0,39.0,56.0,54.0,32.0,32.0,1672.0,square4,r,0.2367,3,V,9.0
V9,37.0,40.0,57.0,50.0,35.0,50.0,1722.0,square3,j,0.7445,2,V,9.0
V9,38.0,49.0,62.0,51.0,33.0,51.0,1773.0,square3,j,0.1977,2,V,9.0
V9,39.0,45.0,61.0,48.0,34.0,48.0,1821.0,square3,j,0.1114,2,V,9.0
V9,40.0,40.0,65.0,51.0,29.0,51.0,1872.0,square3,j,0.2414,2,V,9.0
V9,41.0,44.0,57.0,50.0,38.0,50.0,1922.0,square3,j,0.087,2,V,9.0
V9,42.0,40.0,57.0,49.0,33.0,49.0,1971.0,square3,j,0.5804,2,V,9.0
V9,43.0,42.0,64.0,54.0,35.0,54.0,2025.0,square3,j,0.2156,2,V,9.0
V9,44.0,44.0,55.0,49.0,39.0,49.0,2074.0,square3,j,0.199,2,V,9.0
V9,45.0,37.0,66.0,51.0,35.0,51.0,2125.0,square3,j,0.2817,2,V,9.0
V9,46.0,40.0,59.0,51.0,32.0,51.0,2176.0,square3,j,0.2432,2,V,9.0
V9,47.0,38.0,62.0,57.0,31.0,57.0,2233.0,square3,j,0.1626,2,V,9.0
V9,48.0,43.0,61.0,54.0,34.0,54.0,2287.0,square3,j,0.2488,2,V,9.0
V9,49.0,43.0,61.0,49.0,40.0,49.0,2336.0,square3,j,0.1985,2,V,9.0
V9,50.0,37.0,58.0,51.0,32.0,51.0,2387.0,square3,j,0.12,2,V,9.0
V9,51.0,44.0,63.0,48.0,39.0,48.0,2435.0,square3,j,0.0512,2,V,9.0
V9,52.0,35.0,65.0,48.0,30.0,48.0,2483.0,square3,j,0.0338,2,V,9.0
V9,53.0,43.0,59.0,48.0,39.0,48.0,2531.0,square3,j,0.0754,2,V,9.0
V9,54.0,43.0,59.0,52.0,30.0,52.0,2583.0,square3,j,0.0862,2,V,9.0
V9,55.0,41.0,58.0,51.0,34.0,51.0,2634.0,square3,j,0.1969,2,V,9.0
V9,56.0,44.0,63.0,50.0,33.0,50.0,2684.0,square3,j,0.1542,2,V,9.0
V9,57.0,42.0,60.0,49.0,32.0,49.0,2733.0,square3,j,0.1353,2,V,9.0
V9,58.0,44.0,62.0,57.0,30.0,57.0,2790.0,square3,j,0.0994,2,V,9.0
V9,59.0,45.0,61.0,45.0,31.0,45.0,2835.0,square3,j,0.18,2,V,9.0
V9,60.0,43.0,63.0,53.0,33.0,53.0,2888.0,square3,j,0.0662,2,V,9.0
V9,61.0,39.0,56.0,55.0,31.0,55.0,2943.0,square3,j,0.0596,2,V,9.0
V9,62.0,39.0,61.0,50.0,34.0,50.0,2993.0,square3,j,0.2417,2,V,9.0
V9,63.0,44.0,57.0,48.0,36.0,48.0,3041.0,square3,j,0.1346,2,V,9.0
V9,64.0,40.0,60.0,58.0,35.0,58.0,3099.0,square3,j,0.2154,2,V,9.0
V9,65.0,42.0,60.0,54.0,38.0,54.0,3153.0,square3,j,0.1745,2,V,9.0
V9,66.0,41.0,60.0,54.0,37.0,54.0,3207.0,square3,j,0.2329,2,V,9.0
V9,67.0,43.0,61.0,54.0,40.0,54.0,3261.0,square3,j,0.1412,2,V,9.0
V9,68.0,45.0,40.0,26.0,18.0,26.0,3287.0,square3,j,0.2874,2,V,9.0
V9,69.0,50.0,41.0,29.0,20.0,50.0,3337.0,square1,f,0.2152,0,V,9.0
V9,70.0,43.0,36.0,27.0,15.0,43.0,3380.0,square1,f,0.0189,0,V,9.0
V9,71.0,44.0,40.0,28.0,18.0,44.0,3424.0,square1,f,0.1404,0,V,9.0
V9,72.0,42.0,38.0,27.0,18.0,42.0,3466.0,square1,f,0.0637,0,V,9.0
V9,73.0,46.0,33.0,25.0,19.0,46.0,3512.0,square1,f,0.0439,0,V,9.0
V9,74.0,47.0,40.0,28.0,20.0,47.0,3559.0,square1,f,0.0924,0,V,9.0
V9,75.0,39.0,39.0,27.0,25.0,39.0,3598.0,square1,f,0.0778,0,V,9.0
V9,76.0,50.0,31.0,29.0,23.0,50.0,3648.0,square1,f,0.0506,0,V,9.0
V9,77.0,44.0,37.0,28.0,13.0,44.0,3692.0,square1,f,0.1671,0,V,9.0
V9,78.0,43.0,36.0,23.0,17.0,43.0,3735.0,square1,f,0.1441,0,V,9.0
V9,79.0,42.0,36.0,28.0,24.0,42.0,3777.0,square1,f,0.0809,0,V,9.0
V9,80.0,47.0,35.0,30.0,14.0,47.0,3824.0,square1,f,0.1987,0,V,9.0
V9,81.0,46.0,33.0,29.0,18.0,46.0,3870.0,square1,f,0.2323,0,V,9.0
V9,82.0,46.0,35.0,28.0,18.0,46.0,3916.0,square1,f,0.2201,0,V,9.0
V9,83.0,47.0,41.0,32.0,15.0,47.0,3963.0,square1,f,0.133,0,V,9.0
V9,84.0,45.0,38.0,31.0,18.0,45.0,4008.0,square1,f,0.0748,0,V,9.0
V9,85.0,42.0,35.0,30.0,21.0,42.0,4050.0,square1,f,0.2264,0,V,9.0
V9,86.0,49.0,39.0,23.0,18.0,49.0,4099.0,square1,f,0.1607,0,V,9.0
V9,87.0,49.0,39.0,27.0,16.0,49.0,4148.0,square1,f,0.0706,0,V,9.0
V9,88.0,45.0,38.0,25.0,14.0,45.0,4193.0,square1,f,0.1538,0,V,9.0
V9,89.0,45.0,32.0,28.0,19.0,45.0,4238.0,square1,f,0.1434,0,V,9.0
V9,90.0,44.0,35.0,29.0,20.0,44.0,4282.0,square1,f,0.1412,0,V,9.0
V9,91.0,42.0,38.0,32.0,16.0,42.0,4324.0,square1,f,0.2396,0,V,9.0
V9,92.0,45.0,36.0,23.0,20.0,36.0,4360.0,square2,i,0.0809,1,V,9.0
V9,93.0,45.0,35.0,26.0,18.0,18.0,4378.0,square4,r,0.5277,3,V,9.0
V9,94.0,44.0,37.0,27.0,13.0,44.0,4422.0,square1,f,0.0269,0,V,9.0
V9,95.0,46.0,36.0,25.0,20.0,46.0,4468.0,square1,f,0.1839,0,V,9.0
V9,96.0,43.0,39.0,27.0,16.0,43.0,4511.0,square1,f,0.2135,0,V,9.0
V9,97.0,48.0,39.0,30.0,16.0,48.0,4559.0,square1,f,0.1702,0,V,9.0
V9,98.0,49.0,40.0,26.0,20.0,49.0,4608.0,square1,f,0.1415,0,V,9.0
V9,99.0,49.0,41.0,27.0,18.0,49.0,4657.0,square1,f,0.3478,0,V,9.0
V10,0.0,28.0,21.0,37.0,46.0,28.0,28.0,square1,i,0.8908,0,V,10.0
V10,1.0,26.0,19.0,41.0,49.0,41.0,69.0,square3,r,0.1317,2,V,10.0
V10,2.0,29.0,20.0,43.0,48.0,48.0,117.0,square4,f,0.1968,3,V,10.0
V10,3.0,27.0,27.0,37.0,44.0,27.0,144.0,square2,j,0.1825,1,V,10.0
V10,4.0,28.0,16.0,36.0,47.0,47.0,191.0,square4,f,0.2814,3,V,10.0
V10,5.0,33.0,25.0,42.0,54.0,54.0,245.0,square4,f,0.0746,3,V,10.0
V10,6.0,28.0,19.0,35.0,45.0,45.0,290.0,square4,f,0.1489,3,V,10.0
V10,7.0,30.0,24.0,35.0,49.0,49.0,339.0,square4,f,0.1395,3,V,10.0
V10,8.0,37.0,29.0,41.0,47.0,47.0,386.0,square4,f,0.1998,3,V,10.0
V10,9.0,28.0,21.0,41.0,48.0,48.0,434.0,square4,f,0.1554,3,V,10.0
V10,10.0,27.0,22.0,39.0,42.0,42.0,476.0,square4,f,0.0656,3,V,10.0
V10,11.0,32.0,16.0,41.0,48.0,48.0,524.0,square4,f,0.1504,3,V,10.0
V10,12.0,34.0,15.0,33.0,49.0,49.0,573.0,square4,f,0.0981,3,V,10.0
V10,13.0,36.0,19.0,41.0,45.0,45.0,618.0,square4,f,0.1926,3,V,10.0
V10,14.0,28.0,23.0,35.0,53.0,53.0,671.0,square4,f,0.1866,3,V,10.0
V10,15.0,26.0,28.0,40.0,50.0,50.0,721.0,square4,f,0.0773,3,V,10.0
V10,16.0,30.0,25.0,42.0,47.0,47.0,768.0,square4,f,0.1792,3,V,10.0
V10,17.0,31.0,19.0,38.0,50.0,50.0,818.0,square4,f,0.1646,3,V,10.0
V10,18.0,34.0,21.0,35.0,48.0,48.0,866.0,square4,f,0.2425,3,V,10.0
V10,19.0,31.0,24.0,39.0,46.0,46.0,912.0,square4,f,0.098,3,V,10.0
V10,20.0,28.0,22.0,42.0,47.0,47.0,959.0,square4,f,0.0264,3,V,10.0
V10,21.0,24.0,20.0,41.0,47.0,47.0,1006.0,square4,f,0.2055,3,V,10.0
V10,22.0,32.0,22.0,34.0,44.0,44.0,1050.0,square4,f,0.1269,3,V,10.0
V10,23.0,29.0,23.0,37.0,47.0,47.0,1097.0,square4,f,0.1497,3,V,10.0
V10,24.0,25.0,25.0,38.0,46.0,46.0,1143.0,square4,f,0.1611,3,V,10.0
V10,25.0,30.0,24.0,41.0,45.0,45.0,1188.0,square4,f,0.0967,3,V,10.0
V10,26.0,32.0,17.0,38.0,49.0,49.0,1237.0,square4,f,0.1322,3,V,10.0
V10,27.0,34.0,21.0,38.0,47.0,47.0,1284.0,square4,f,0.0332,3,V,10.0
V10,28.0,29.0,21.0,37.0,45.0,37.0,1321.0,square3,r,0.0431,2,V,10.0
V10,29.0,30.0,20.0,31.0,47.0,47.0,1368.0,square4,f,0.3961,3,V,10.0
V10,30.0,28.0,21.0,35.0,44.0,44.0,1412.0,square4,f,0.2545,3,V,10.0
V10,31.0,36.0,25.0,14.0,8.0,8.0,1420.0,square4,f,0.0988,3,V,10.0
V10,32.0,38.0,27.0,19.0,11.0,19.0,1439.0,square3,r,0.115,2,V,10.0
V10,33.0,39.0,21.0,20.0,13.0,39.0,1478.0,square1,i,0.5508,0,V,10.0
V10,34.0,34.0,24.0,20.0,10.0,24.0,1502.0,square2,j,0.1326,1,V,10.0
V10,35.0,44.0,29.0,17.0,11.0,44.0,1546.0,square1,i,0.4427,0,V,10.0
V10,36.0,33.0,30.0,17.0,9.0,33.0,1579.0,square1,i,0.0765,0,V,10.0
V10,37.0,31.0,27.0,12.0,6.0,31.0,1610.0,square1,i,0.628,0,V,10.0
V10,38.0,34.0,29.0,15.0,10.0,34.0,1644.0,square1,i,0.2405,0,V,10.0
V10,39.0,35.0,21.0,19.0,5.0,35.0,1679.0,square1,i,0.2394,0,V,10.0
V10,40.0,32.0,26.0,18.0,6.0,32.0,1711.0,square1,i,0.1002,0,V,10.0
V10,41.0,34.0,32.0,13.0,9.0,34.0,1745.0,square1,i,0.0877,0,V,10.0
V10,42.0,35.0,30.0,16.0,8.0,35.0,1780.0,square1,i,0.1742,0,V,10.0
V10,43.0,38.0,32.0,16.0,8.0,38.0,1818.0,square1,i,0.1045,0,V,10.0
V10,44.0,34.0,20.0,18.0,3.0,34.0,1852.0,square1,i,0.0713,0,V,10.0
V10,45.0,38.0,22.0,23.0,9.0,38.0,1890.0,square1,i,0.1132,0,V,10.0
V10,46.0,36.0,28.0,16.0,10.0,36.0,1926.0,square1,i,0.1072,0,V,10.0
V10,47.0,36.0,27.0,13.0,8.0,36.0,1962.0,square1,i,0.1951,0,V,10.0
V10,48.0,35.0,27.0,14.0,12.0,35.0,1997.0,square1,i,0.1724,0,V,10.0
V10,49.0,33.0,28.0,16.0,10.0,33.0,2030.0,square1,i,0.1035,0,V,10.0
V10,50.0,31.0,29.0,19.0,8.0,31.0,2061.0,square1,i,0.1304,0,V,10.0
V10,51.0,32.0,21.0,20.0,12.0,32.0,2093.0,square1,i,0.2146,0,V,10.0
V10,52.0,29.0,25.0,21.0,10.0,29.0,2122.0,square1,i,0.106,0,V,10.0
V10,53.0,39.0,29.0,23.0,2.0,39.0,2161.0,square1,i,0.1659,0,V,10.0
V10,54.0,33.0,28.0,19.0,7.0,33.0,2194.0,square1,i,0.1531,0,V,10.0
V10,55.0,34.0,24.0,15.0,8.0,34.0,2228.0,square1,i,0.0765,0,V,10.0
V10,56.0,35.0,20.0,21.0,9.0,35.0,2263.0,square1,i,0.143,0,V,10.0
V10,57.0,33.0,27.0,19.0,7.0,33.0,2296.0,square1,i,0.1447,0,V,10.0
V10,58.0,38.0,24.0,16.0,7.0,38.0,2334.0,square1,i,0.1337,0,V,10.0
V10,59.0,34.0,29.0,15.0,5.0,34.0,2368.0,square1,i,0.141,0,V,10.0
V10,60.0,34.0,22.0,19.0,9.0,34.0,2402.0,square1,i,0.0807,0,V,10.0
V10,61.0,39.0,31.0,20.0,10.0,39.0,2441.0,square1,i,0.0816,0,V,10.0
V10,62.0,35.0,24.0,18.0,6.0,35.0,2476.0,square1,i,0.0532,0,V,10.0
V10,63.0,35.0,26.0,18.0,9.0,35.0,2511.0,square1,i,0.2016,0,V,10.0
V10,64.0,31.0,55.0,23.0,23.0,31.0,2542.0,square1,i,0.1724,0,V,10.0
V10,65.0,35.0,50.0,22.0,27.0,35.0,2577.0,square1,i,0.1382,0,V,10.0
V10,66.0,35.0,53.0,25.0,29.0,35.0,2612.0,square1,i,0.109,0,V,10.0
V10,67.0,38.0,44.0,17.0,29.0,38.0,2650.0,square1,i,0.141,0,V,10.0
V10,68.0,36.0,48.0,22.0,27.0,36.0,2686.0,square1,i,0.227,0,V,10.0
V10,69.0,41.0,53.0,17.0,28.0,53.0,2739.0,square2,j,0.159,1,V,10.0
V10,70.0,40.0,48.0,23.0,28.0,48.0,2787.0,square2,j,0.2612,1,V,10.0
V10,71.0,39.0,43.0,24.0,20.0,43.0,2830.0,square2,j,0.1661,1,V,10.0
V10,72.0,36.0,49.0,19.0,25.0,49.0,2879.0,square2,j,0.1386,1,V,10.0
V10,73.0,39.0,49.0,23.0,32.0,49.0,2928.0,square2,j,0.2185,1,V,10.0
V10,74.0,36.0,44.0,17.0,29.0,44.0,2972.0,square2,j,0.2399,1,V,10.0
V10,75.0,37.0,46.0,20.0,30.0,46.0,3018.0,square2,j,0.1627,1,V,10.0
V10,76.0,38.0,47.0,23.0,30.0,47.0,3065.0,square2,j,0.1932,1,V,10.0
V10,77.0,36.0,49.0,22.0,32.0,49.0,3114.0,square2,j,0.2052,1,V,10.0
V10,78.0,41.0,44.0,19.0,27.0,44.0,3158.0,square2,j,0.2434,1,V,10.0
V10,79.0,41.0,48.0,22.0,27.0,48.0,3206.0,square2,j,0.1964,1,V,10.0
V10,80.0,34.0,44.0,26.0,29.0,44.0,3250.0,square2,j,0.1758,1,V,10.0
V10,81.0,38.0,47.0,18.0,29.0,47.0,3297.0,square2,j,0.2134,1,V,10.0
V10,82.0,43.0,43.0,23.0,28.0,43.0,3340.0,square2,j,0.1505,1,V,10.0
V10,83.0,34.0,51.0,23.0,26.0,51.0,3391.0,square2,j,0.154,1,V,10.0
V10,84.0,36.0,46.0,18.0,25.0,46.0,3437.0,square2,j,0.1282,1,V,10.0
V10,85.0,39.0,46.0,25.0,26.0,46.0,3483.0,square2,j,0.242,1,V,10.0
V10,86.0,39.0,50.0,27.0,27.0,50.0,3533.0,square2,j,0.1616,1,V,10.0
V10,87.0,38.0,46.0,20.0,30.0,46.0,3579.0,square2,j,0.1424,1,V,10.0
V10,88.0,37.0,49.0,22.0,28.0,49.0,3628.0,square2,j,0.1395,1,V,10.0
V10,89.0,34.0,51.0,25.0,26.0,51.0,3679.0,square2,j,0.1109,1,V,10.0
V10,90.0,41.0,49.0,22.0,29.0,49.0,3728.0,square2,j,0.1333,1,V,10.0
V10,91.0,37.0,45.0,26.0,32.0,45.0,3773.0,square2,j,0.0013,1,V,10.0
V10,92.0,42.0,42.0,27.0,28.0,42.0,3815.0,square2,j,0.1302,1,V,10.0
V10,93.0,41.0,48.0,19.0,36.0,48.0,3863.0,square2,j,0.0196,1,V,10.0
V10,94.0,43.0,49.0,23.0,31.0,49.0,3912.0,square2,j,0.0752,1,V,10.0
V10,95.0,39.0,46.0,18.0,27.0,46.0,3958.0,square2,j,0.4868,1,V,10.0
V10,96.0,37.0,48.0,24.0,27.0,48.0,4006.0,square2,j,0.143,1,V,10.0
V10,97.0,42.0,50.0,23.0,31.0,50.0,4056.0,square2,j,0.2447,1,V,10.0
V10,98.0,33.0,47.0,25.0,32.0,47.0,4103.0,square2,j,0.1679,1,V,10.0
V10,99.0,39.0,48.0,23.0,32.0,48.0,4151.0,square2,j,0.0592,1,V,10.0
NS6,0.0,68.0,18.0,30.0,58.0,58.0,58.0,square4,r,0.7785,3,N,6.0
NS6,1.0,62.0,23.0,38.0,67.0,67.0,125.0,square4,r,0.2782,3,N,6.0
NS6,2.0,59.0,30.0,33.0,67.0,67.0,192.0,square4,r,0.2511,3,N,6.0
NS6,3.0,62.0,27.0,39.0,65.0,65.0,257.0,square4,r,0.2014,3,N,6.0
NS6,4.0,65.0,22.0,32.0,67.0,32.0,289.0,square3,i,0.2098,2,N,6.0
NS6,5.0,61.0,28.0,39.0,67.0,28.0,317.0,square2,f,0.1927,1,N,6.0
NS6,6.0,59.0,28.0,39.0,66.0,59.0,376.0,square1,j,0.1856,0,N,6.0
NS6,7.0,56.0,30.0,43.0,63.0,63.0,439.0,square4,r,0.2757,3,N,6.0
NS6,8.0,57.0,26.0,36.0,60.0,60.0,499.0,square4,r,0.1528,3,N,6.0
NS6,9.0,51.0,30.0,38.0,65.0,65.0,564.0,square4,r,0.1829,3,N,6.0
NS6,10.0,46.0,26.0,41.0,61.0,61.0,625.0,square4,r,0.1927,3,N,6.0
NS6,11.0,46.0,30.0,40.0,58.0,58.0,683.0,square4,r,0.1318,3,N,6.0
NS6,12.0,44.0,27.0,41.0,56.0,56.0,739.0,square4,r,0.2443,3,N,6.0
NS6,13.0,41.0,32.0,44.0,54.0,54.0,793.0,square4,r,0.2153,3,N,6.0
NS6,14.0,45.0,36.0,41.0,51.0,51.0,844.0,square4,r,0.1206,3,N,6.0
NS6,15.0,37.0,34.0,39.0,54.0,54.0,898.0,square4,r,0.1934,3,N,6.0
NS6,16.0,36.0,37.0,39.0,48.0,48.0,946.0,square4,r,0.1467,3,N,6.0
NS6,17.0,41.0,39.0,36.0,45.0,45.0,991.0,square4,r,0.141,3,N,6.0
NS6,18.0,39.0,38.0,29.0,48.0,48.0,1039.0,square4,r,0.1813,3,N,6.0
NS6,19.0,35.0,40.0,32.0,46.0,32.0,1071.0,square3,i,0.0687,2,N,6.0
NS6,20.0,41.0,40.0,28.0,55.0,55.0,1126.0,square4,r,0.1349,3,N,6.0
NS6,21.0,45.0,44.0,27.0,54.0,54.0,1180.0,square4,r,0.219,3,N,6.0
NS6,22.0,44.0,51.0,31.0,53.0,53.0,1233.0,square4,r,0.1623,3,N,6.0
NS6,23.0,44.0,50.0,29.0,53.0,53.0,1286.0,square4,r,0.0652,3,N,6.0
NS6,24.0,49.0,49.0,35.0,55.0,55.0,1341.0,square4,r,0.1314,3,N,6.0
NS6,25.0,44.0,51.0,36.0,56.0,56.0,1397.0,square4,r,0.0508,3,N,6.0
NS6,26.0,43.0,46.0,38.0,58.0,58.0,1455.0,square4,r,0.1206,3,N,6.0
NS6,27.0,41.0,44.0,41.0,59.0,59.0,1514.0,square4,r,0.1311,3,N,6.0
NS6,28.0,38.0,47.0,39.0,58.0,58.0,1572.0,square4,r,0.0007,3,N,6.0
NS6,29.0,39.0,46.0,37.0,54.0,54.0,1626.0,square4,r,0.0815,3,N,6.0
NS6,30.0,36.0,49.0,40.0,53.0,53.0,1679.0,square4,r,0.1659,3,N,6.0
NS6,31.0,37.0,45.0,36.0,55.0,55.0,1734.0,square4,r,0.1324,3,N,6.0
NS6,32.0,42.0,42.0,40.0,56.0,56.0,1790.0,square4,r,0.1106,3,N,6.0
NS6,33.0,33.0,44.0,32.0,53.0,53.0,1843.0,square4,r,0.0877,3,N,6.0
NS6,34.0,32.0,42.0,36.0,49.0,49.0,1892.0,square4,r,0.1312,3,N,6.0
NS6,35.0,35.0,28.0,38.0,51.0,51.0,1943.0,square4,r,0.1188,3,N,6.0
NS6,36.0,38.0,28.0,35.0,52.0,52.0,1995.0,square4,r,0.1115,3,N,6.0
NS6,37.0,44.0,31.0,37.0,55.0,44.0,2039.0,square1,j,0.0013,0,N,6.0
NS6,38.0,36.0,31.0,36.0,54.0,54.0,2093.0,square4,r,0.4434,3,N,6.0
NS6,39.0,40.0,29.0,41.0,60.0,29.0,2122.0,square2,f,0.1954,1,N,6.0
NS6,40.0,46.0,33.0,36.0,62.0,62.0,2184.0,square4,r,0.1757,3,N,6.0
NS6,41.0,44.0,38.0,34.0,63.0,63.0,2247.0,square4,r,0.1621,3,N,6.0
NS6,42.0,43.0,32.0,29.0,59.0,59.0,2306.0,square4,r,0.0496,3,N,6.0
NS6,43.0,47.0,29.0,38.0,61.0,61.0,2367.0,square4,r,0.1084,3,N,6.0
NS6,44.0,49.0,33.0,36.0,56.0,56.0,2423.0,square4,r,0.2651,3,N,6.0
NS6,45.0,51.0,29.0,32.0,60.0,60.0,2483.0,square4,r,0.199,3,N,6.0
NS6,46.0,52.0,36.0,41.0,64.0,64.0,2547.0,square4,r,0.26,3,N,6.0
NS6,47.0,55.0,35.0,46.0,60.0,60.0,2607.0,square4,r,0.2819,3,N,6.0
NS6,48.0,57.0,34.0,40.0,64.0,64.0,2671.0,square4,r,0.2744,3,N,6.0
NS6,49.0,54.0,37.0,42.0,59.0,59.0,2730.0,square4,r,0.2635,3,N,6.0
NS6,50.0,58.0,40.0,35.0,51.0,51.0,2781.0,square4,r,0.2137,3,N,6.0
NS6,51.0,64.0,35.0,36.0,53.0,53.0,2834.0,square4,r,0.2076,3,N,6.0
NS6,52.0,60.0,37.0,30.0,52.0,52.0,2886.0,square4,r,0.1003,3,N,6.0
NS6,53.0,63.0,40.0,30.0,54.0,54.0,2940.0,square4,r,0.1667,3,N,6.0
NS6,54.0,60.0,37.0,30.0,53.0,53.0,2993.0,square4,r,0.143,3,N,6.0
NS6,55.0,57.0,40.0,29.0,50.0,50.0,3043.0,square4,r,0.1207,3,N,6.0
NS6,56.0,58.0,30.0,30.0,46.0,46.0,3089.0,square4,r,0.1827,3,N,6.0
NS6,57.0,64.0,34.0,31.0,45.0,45.0,3134.0,square4,r,0.0934,3,N,6.0
NS6,58.0,66.0,31.0,34.0,48.0,34.0,3168.0,square3,i,0.1455,2,N,6.0
NS6,59.0,68.0,31.0,35.0,44.0,68.0,3236.0,square1,j,0.1651,0,N,6.0
NS6,60.0,65.0,28.0,27.0,49.0,65.0,3301.0,square1,j,0.1459,0,N,6.0
NS6,61.0,67.0,29.0,25.0,47.0,67.0,3368.0,square1,j,0.1411,0,N,6.0
NS6,62.0,67.0,31.0,27.0,41.0,67.0,3435.0,square1,j,0.1682,0,N,6.0
NS6,63.0,69.0,32.0,24.0,45.0,69.0,3504.0,square1,j,0.1494,0,N,6.0
NS6,64.0,72.0,41.0,30.0,50.0,72.0,3576.0,square1,j,0.1293,0,N,6.0
NS6,65.0,75.0,35.0,33.0,50.0,75.0,3651.0,square1,j,0.1463,0,N,6.0
NS6,66.0,71.0,37.0,26.0,49.0,71.0,3722.0,square1,j,0.0418,0,N,6.0
NS6,67.0,74.0,34.0,21.0,49.0,74.0,3796.0,square1,j,0.2535,0,N,6.0
NS6,68.0,81.0,37.0,27.0,50.0,81.0,3877.0,square1,j,0.0957,0,N,6.0
NS6,69.0,80.0,31.0,25.0,49.0,80.0,3957.0,square1,j,0.1418,0,N,6.0
NS6,70.0,83.0,33.0,31.0,46.0,83.0,4040.0,square1,j,0.0528,0,N,6.0
NS6,71.0,75.0,33.0,34.0,53.0,75.0,4115.0,square1,j,0.1538,0,N,6.0
NS6,72.0,73.0,39.0,32.0,55.0,73.0,4188.0,square1,j,0.1409,0,N,6.0
NS6,73.0,74.0,40.0,33.0,53.0,74.0,4262.0,square1,j,0.1473,0,N,6.0
NS6,74.0,73.0,46.0,32.0,50.0,73.0,4335.0,square1,j,0.1063,0,N,6.0
NS6,75.0,71.0,40.0,32.0,49.0,71.0,4406.0,square1,j,0.138,0,N,6.0
NS6,76.0,65.0,43.0,31.0,56.0,65.0,4471.0,square1,j,0.1823,0,N,6.0
NS6,77.0,66.0,41.0,33.0,56.0,66.0,4537.0,square1,j,0.2377,0,N,6.0
NS6,78.0,71.0,40.0,38.0,64.0,71.0,4608.0,square1,j,0.1816,0,N,6.0
NS6,79.0,69.0,36.0,35.0,62.0,69.0,4677.0,square1,j,0.2142,0,N,6.0
NS6,80.0,69.0,34.0,37.0,69.0,69.0,4746.0,square1,j,0.2142,0,N,6.0
NS6,81.0,70.0,37.0,37.0,71.0,70.0,4816.0,square1,j,0.0936,0,N,6.0
NS6,82.0,68.0,38.0,39.0,66.0,68.0,4884.0,square1,j,0.1668,0,N,6.0
NS6,83.0,69.0,42.0,41.0,73.0,69.0,4953.0,square1,j,0.1474,0,N,6.0
NS6,84.0,62.0,42.0,42.0,70.0,62.0,5015.0,square1,j,0.1736,0,N,6.0
NS6,85.0,57.0,45.0,42.0,77.0,57.0,5072.0,square1,j,0.1874,0,N,6.0
NS6,86.0,58.0,47.0,44.0,70.0,58.0,5130.0,square1,j,0.2425,0,N,6.0
NS6,87.0,62.0,44.0,52.0,73.0,62.0,5192.0,square1,j,0.2049,0,N,6.0
NS6,88.0,62.0,45.0,47.0,72.0,62.0,5254.0,square1,j,0.1664,0,N,6.0
NS6,89.0,59.0,50.0,47.0,73.0,59.0,5313.0,square1,j,0.1742,0,N,6.0
NS6,90.0,55.0,45.0,44.0,68.0,55.0,5368.0,square1,j,0.1427,0,N,6.0
NS6,91.0,55.0,51.0,47.0,67.0,51.0,5419.0,square2,f,0.1323,1,N,6.0
NS6,92.0,62.0,52.0,35.0,69.0,52.0,5471.0,square2,f,0.178,1,N,6.0
NS6,93.0,59.0,47.0,32.0,68.0,68.0,5539.0,square4,r,0.1832,3,N,6.0
NS6,94.0,67.0,53.0,44.0,66.0,66.0,5605.0,square4,r,0.1801,3,N,6.0
NS6,95.0,71.0,44.0,47.0,66.0,66.0,5671.0,square4,r,0.1755,3,N,6.0
NS6,96.0,68.0,53.0,47.0,66.0,66.0,5737.0,square4,r,0.2439,3,N,6.0
NS6,97.0,65.0,49.0,44.0,64.0,64.0,5801.0,square4,r,0.1264,3,N,6.0
NS6,98.0,66.0,54.0,55.0,57.0,57.0,5858.0,square4,r,0.084,3,N,6.0
NS6,99.0,69.0,57.0,51.0,56.0,56.0,5914.0,square4,r,0.1738,3,N,6.0
NS4,0.0,55.0,53.0,59.0,44.0,44.0,44.0,square4,i,0.5977,3,N,4.0
NS4,1.0,49.0,56.0,64.0,41.0,56.0,100.0,square2,r,0.02,1,N,4.0
NS4,2.0,50.0,54.0,71.0,48.0,50.0,150.0,square1,f,0.099,0,N,4.0
NS4,3.0,53.0,58.0,67.0,50.0,67.0,217.0,square3,j,0.1077,2,N,4.0
NS4,4.0,49.0,51.0,70.0,55.0,70.0,287.0,square3,j,0.1328,2,N,4.0
NS4,5.0,55.0,59.0,73.0,58.0,73.0,360.0,square3,j,0.0477,2,N,4.0
NS4,6.0,56.0,54.0,71.0,57.0,71.0,431.0,square3,j,0.0315,2,N,4.0
NS4,7.0,60.0,54.0,75.0,52.0,75.0,506.0,square3,j,0.0312,2,N,4.0
NS4,8.0,58.0,53.0,74.0,52.0,74.0,580.0,square3,j,0.1096,2,N,4.0
NS4,9.0,46.0,48.0,78.0,51.0,78.0,658.0,square3,j,0.1684,2,N,4.0
NS4,10.0,55.0,48.0,78.0,51.0,78.0,736.0,square3,j,0.0517,2,N,4.0
NS4,11.0,55.0,44.0,79.0,49.0,79.0,815.0,square3,j,0.1422,2,N,4.0
NS4,12.0,50.0,40.0,79.0,50.0,79.0,894.0,square3,j,0.0011,2,N,4.0
NS4,13.0,45.0,39.0,79.0,53.0,79.0,973.0,square3,j,0.0325,2,N,4.0
NS4,14.0,44.0,38.0,77.0,56.0,77.0,1050.0,square3,j,0.0259,2,N,4.0
NS4,15.0,45.0,32.0,68.0,52.0,68.0,1118.0,square3,j,0.0665,2,N,4.0
NS4,16.0,49.0,32.0,74.0,53.0,74.0,1192.0,square3,j,0.0008,2,N,4.0
NS4,17.0,45.0,32.0,69.0,51.0,69.0,1261.0,square3,j,0.147,2,N,4.0
NS4,18.0,50.0,34.0,69.0,47.0,69.0,1330.0,square3,j,0.0659,2,N,4.0
NS4,19.0,50.0,36.0,65.0,53.0,65.0,1395.0,square3,j,0.0795,2,N,4.0
NS4,20.0,45.0,36.0,62.0,53.0,62.0,1457.0,square3,j,0.0011,2,N,4.0
NS4,21.0,49.0,35.0,62.0,55.0,62.0,1519.0,square3,j,0.0991,2,N,4.0
NS4,22.0,53.0,32.0,61.0,60.0,61.0,1580.0,square3,j,0.0717,2,N,4.0
NS4,23.0,52.0,33.0,58.0,54.0,58.0,1638.0,square3,j,0.0532,2,N,4.0
NS4,24.0,48.0,32.0,52.0,60.0,52.0,1690.0,square3,j,0.0617,2,N,4.0
NS4,25.0,47.0,30.0,53.0,57.0,30.0,1720.0,square2,r,0.3676,1,N,4.0
NS4,26.0,50.0,30.0,60.0,55.0,55.0,1775.0,square4,i,0.0197,3,N,4.0
NS4,27.0,50.0,28.0,62.0,47.0,50.0,1825.0,square1,f,0.1661,0,N,4.0
NS4,28.0,54.0,28.0,58.0,49.0,58.0,1883.0,square3,j,0.134,2,N,4.0
NS4,29.0,44.0,29.0,50.0,49.0,50.0,1933.0,square3,j,0.087,2,N,4.0
NS4,30.0,43.0,26.0,55.0,57.0,55.0,1988.0,square3,j,0.0602,2,N,4.0
NS4,31.0,43.0,25.0,60.0,54.0,60.0,2048.0,square3,j,0.1474,2,N,4.0
NS4,32.0,34.0,27.0,58.0,56.0,58.0,2106.0,square3,j,0.0045,2,N,4.0
NS4,33.0,34.0,20.0,60.0,62.0,60.0,2166.0,square3,j,0.0506,2,N,4.0
NS4,34.0,38.0,28.0,58.0,57.0,58.0,2224.0,square3,j,0.0312,2,N,4.0
NS4,35.0,40.0,24.0,63.0,59.0,63.0,2287.0,square3,j,0.0473,2,N,4.0
NS4,36.0,36.0,30.0,56.0,63.0,56.0,2343.0,square3,j,0.0813,2,N,4.0
NS4,37.0,40.0,29.0,54.0,63.0,54.0,2397.0,square3,j,0.6139,2,N,4.0
NS4,38.0,40.0,33.0,53.0,69.0,53.0,2450.0,square3,j,0.2486,2,N,4.0
NS4,39.0,36.0,30.0,57.0,67.0,57.0,2507.0,square3,j,0.1548,2,N,4.0
NS4,40.0,33.0,33.0,58.0,68.0,58.0,2565.0,square3,j,0.2417,2,N,4.0
NS4,41.0,34.0,28.0,58.0,72.0,58.0,2623.0,square3,j,0.0716,2,N,4.0
NS4,42.0,35.0,30.0,60.0,70.0,60.0,2683.0,square3,j,0.1286,2,N,4.0
NS4,43.0,35.0,34.0,57.0,63.0,57.0,2740.0,square3,j,0.0592,2,N,4.0
NS4,44.0,30.0,32.0,59.0,69.0,59.0,2799.0,square3,j,0.0718,2,N,4.0
NS4,45.0,29.0,31.0,60.0,66.0,60.0,2859.0,square3,j,0.1094,2,N,4.0
NS4,46.0,35.0,34.0,66.0,66.0,66.0,2925.0,square3,j,0.1431,2,N,4.0
NS4,47.0,35.0,28.0,63.0,62.0,63.0,2988.0,square3,j,0.1708,2,N,4.0
NS4,48.0,37.0,37.0,61.0,55.0,61.0,3049.0,square3,j,0.1324,2,N,4.0
NS4,49.0,40.0,34.0,59.0,54.0,59.0,3108.0,square3,j,0.1302,2,N,4.0
NS4,50.0,39.0,38.0,68.0,51.0,38.0,3146.0,square2,r,0.198,1,N,4.0
NS4,51.0,46.0,28.0,69.0,48.0,46.0,3192.0,square1,f,0.07,0,N,4.0
NS4,52.0,40.0,34.0,62.0,49.0,49.0,3241.0,square4,i,0.1106,3,N,4.0
NS4,53.0,39.0,34.0,63.0,48.0,63.0,3304.0,square3,j,0.1962,2,N,4.0
NS4,54.0,44.0,31.0,58.0,47.0,58.0,3362.0,square3,j,0.0202,2,N,4.0
NS4,55.0,42.0,30.0,68.0,46.0,68.0,3430.0,square3,j,0.1145,2,N,4.0
NS4,56.0,36.0,25.0,69.0,44.0,69.0,3499.0,square3,j,0.2004,2,N,4.0
NS4,57.0,35.0,29.0,71.0,46.0,71.0,3570.0,square3,j,0.0929,2,N,4.0
NS4,58.0,43.0,28.0,68.0,47.0,68.0,3638.0,square3,j,0.1092,2,N,4.0
NS4,59.0,43.0,27.0,67.0,43.0,67.0,3705.0,square3,j,0.1242,2,N,4.0
NS4,60.0,40.0,25.0,72.0,46.0,72.0,3777.0,square3,j,0.1435,2,N,4.0
NS4,61.0,39.0,32.0,63.0,43.0,63.0,3840.0,square3,j,0.0932,2,N,4.0
NS4,62.0,39.0,29.0,61.0,39.0,61.0,3901.0,square3,j,0.0314,2,N,4.0
NS4,63.0,41.0,28.0,59.0,40.0,59.0,3960.0,square3,j,0.008,2,N,4.0
NS4,64.0,41.0,31.0,57.0,51.0,57.0,4017.0,square3,j,1.3028,2,N,4.0
NS4,65.0,46.0,36.0,59.0,58.0,59.0,4076.0,square3,j,0.1536,2,N,4.0
NS4,66.0,45.0,36.0,53.0,46.0,53.0,4129.0,square3,j,0.2124,2,N,4.0
NS4,67.0,40.0,34.0,49.0,46.0,49.0,4178.0,square3,j,0.2981,2,N,4.0
NS4,68.0,43.0,37.0,48.0,48.0,48.0,4226.0,square3,j,0.1486,2,N,4.0
NS4,69.0,42.0,36.0,44.0,56.0,36.0,4262.0,square2,r,0.1376,1,N,4.0
NS4,70.0,40.0,38.0,47.0,58.0,58.0,4320.0,square4,i,0.0501,3,N,4.0
NS4,71.0,36.0,34.0,42.0,63.0,36.0,4356.0,square1,f,0.1052,0,N,4.0
NS4,72.0,38.0,36.0,36.0,66.0,66.0,4422.0,square4,i,0.4193,3,N,4.0
NS4,73.0,36.0,40.0,40.0,66.0,66.0,4488.0,square4,i,0.0312,3,N,4.0
NS4,74.0,31.0,38.0,46.0,67.0,67.0,4555.0,square4,i,0.5187,3,N,4.0
NS4,75.0,40.0,33.0,42.0,64.0,42.0,4597.0,square3,j,0.0138,2,N,4.0
NS4,76.0,38.0,35.0,42.0,64.0,64.0,4661.0,square4,i,0.1099,3,N,4.0
NS4,77.0,40.0,35.0,39.0,66.0,66.0,4727.0,square4,i,0.0658,3,N,4.0
NS4,78.0,40.0,33.0,38.0,68.0,68.0,4795.0,square4,i,0.5075,3,N,4.0
NS4,79.0,40.0,38.0,31.0,70.0,70.0,4865.0,square4,i,0.2087,3,N,4.0
NS4,80.0,37.0,35.0,33.0,73.0,73.0,4938.0,square4,i,0.198,3,N,4.0
NS4,81.0,34.0,35.0,30.0,70.0,70.0,5008.0,square4,i,0.1625,3,N,4.0
NS4,82.0,35.0,37.0,31.0,66.0,66.0,5074.0,square4,i,0.2087,3,N,4.0
NS4,83.0,42.0,32.0,28.0,67.0,67.0,5141.0,square4,i,0.1162,3,N,4.0
NS4,84.0,38.0,35.0,30.0,68.0,68.0,5209.0,square4,i,0.153,3,N,4.0
NS4,85.0,43.0,35.0,32.0,64.0,64.0,5273.0,square4,i,0.1627,3,N,4.0
NS4,86.0,49.0,35.0,32.0,70.0,70.0,5343.0,square4,i,0.1144,3,N,4.0
NS4,87.0,48.0,34.0,32.0,69.0,69.0,5412.0,square4,i,0.1655,3,N,4.0
NS4,88.0,50.0,35.0,30.0,64.0,64.0,5476.0,square4,i,0.1078,3,N,4.0
NS4,89.0,48.0,34.0,32.0,68.0,68.0,5544.0,square4,i,0.0844,3,N,4.0
NS4,90.0,53.0,29.0,27.0,68.0,68.0,5612.0,square4,i,0.1925,3,N,4.0
NS4,91.0,54.0,27.0,34.0,68.0,68.0,5680.0,square4,i,0.1413,3,N,4.0
NS4,92.0,52.0,20.0,35.0,69.0,69.0,5749.0,square4,i,0.0647,3,N,4.0
NS4,93.0,42.0,15.0,33.0,68.0,68.0,5817.0,square4,i,0.0715,3,N,4.0
NS4,94.0,40.0,24.0,37.0,72.0,72.0,5889.0,square4,i,0.0989,3,N,4.0
NS4,95.0,43.0,25.0,43.0,69.0,69.0,5958.0,square4,i,0.1041,3,N,4.0
NS4,96.0,41.0,29.0,43.0,74.0,74.0,6032.0,square4,i,0.1729,3,N,4.0
NS4,97.0,46.0,32.0,42.0,78.0,78.0,6110.0,square4,i,0.102,3,N,4.0
NS4,98.0,48.0,26.0,46.0,75.0,75.0,6185.0,square4,i,0.1394,3,N,4.0
NS4,99.0,46.0,27.0,45.0,71.0,71.0,6256.0,square4,i,0.1271,3,N,4.0
NS12,0.0,80.0,24.0,40.0,79.0,79.0,79.0,square4,r,0.7884,3,N,12.0
NS12,1.0,78.0,28.0,44.0,78.0,78.0,157.0,square1,i,0.2202,0,N,12.0
NS12,2.0,77.0,28.0,37.0,82.0,28.0,185.0,square2,j,0.1034,1,N,12.0
NS12,3.0,76.0,33.0,39.0,82.0,39.0,224.0,square3,f,0.1091,2,N,12.0
NS12,4.0,79.0,37.0,34.0,78.0,78.0,302.0,square4,r,0.3035,3,N,12.0
NS12,5.0,83.0,33.0,28.0,81.0,83.0,385.0,square1,i,0.0784,0,N,12.0
NS12,6.0,77.0,39.0,33.0,80.0,77.0,462.0,square1,i,0.1995,0,N,12.0
NS12,7.0,77.0,40.0,25.0,85.0,85.0,547.0,square4,r,0.1436,3,N,12.0
NS12,8.0,77.0,40.0,29.0,87.0,77.0,624.0,square1,i,0.2621,0,N,12.0
NS12,9.0,70.0,42.0,29.0,88.0,88.0,712.0,square4,r,0.1265,3,N,12.0
NS12,10.0,65.0,47.0,31.0,86.0,86.0,798.0,square4,r,0.1171,3,N,12.0
NS12,11.0,67.0,46.0,26.0,84.0,84.0,882.0,square4,r,0.2132,3,N,12.0
NS12,12.0,67.0,36.0,26.0,84.0,84.0,966.0,square4,r,0.0975,3,N,12.0
NS12,13.0,69.0,33.0,23.0,82.0,82.0,1048.0,square4,r,0.179,3,N,12.0
NS12,14.0,66.0,35.0,20.0,81.0,81.0,1129.0,square4,r,0.0938,3,N,12.0
NS12,15.0,66.0,30.0,23.0,78.0,78.0,1207.0,square4,r,0.1277,3,N,12.0
NS12,16.0,69.0,28.0,17.0,74.0,69.0,1276.0,square1,i,0.001,0,N,12.0
NS12,17.0,66.0,32.0,20.0,78.0,78.0,1354.0,square4,r,0.0304,3,N,12.0
NS12,18.0,60.0,33.0,26.0,76.0,76.0,1430.0,square4,r,0.5092,3,N,12.0
NS12,19.0,63.0,37.0,23.0,76.0,76.0,1506.0,square4,r,0.195,3,N,12.0
NS12,20.0,59.0,36.0,24.0,78.0,78.0,1584.0,square4,r,0.0996,3,N,12.0
NS12,21.0,59.0,35.0,25.0,79.0,79.0,1663.0,square4,r,0.155,3,N,12.0
NS12,22.0,61.0,37.0,26.0,88.0,88.0,1751.0,square4,r,0.1666,3,N,12.0
NS12,23.0,61.0,37.0,25.0,83.0,83.0,1834.0,square4,r,0.1313,3,N,12.0
NS12,24.0,61.0,39.0,26.0,85.0,85.0,1919.0,square4,r,0.139,3,N,12.0
NS12,25.0,63.0,30.0,29.0,77.0,77.0,1996.0,square4,r,0.2506,3,N,12.0
NS12,26.0,58.0,39.0,29.0,83.0,83.0,2079.0,square4,r,0.1447,3,N,12.0
NS12,27.0,60.0,34.0,32.0,85.0,85.0,2164.0,square4,r,0.1874,3,N,12.0
NS12,28.0,63.0,32.0,35.0,77.0,77.0,2241.0,square4,r,0.121,3,N,12.0
NS12,29.0,61.0,35.0,23.0,79.0,79.0,2320.0,square4,r,0.1307,3,N,12.0
NS12,30.0,57.0,27.0,30.0,69.0,69.0,2389.0,square4,r,0.2302,3,N,12.0
NS12,31.0,64.0,29.0,26.0,69.0,69.0,2458.0,square4,r,0.207,3,N,12.0
NS12,32.0,65.0,29.0,33.0,69.0,69.0,2527.0,square4,r,0.115,3,N,12.0
NS12,33.0,68.0,29.0,33.0,73.0,68.0,2595.0,square1,i,0.0806,0,N,12.0
NS12,34.0,69.0,29.0,29.0,67.0,69.0,2664.0,square1,i,0.1752,0,N,12.0
NS12,35.0,66.0,32.0,30.0,61.0,66.0,2730.0,square1,i,0.1599,0,N,12.0
NS12,36.0,64.0,27.0,26.0,58.0,26.0,2756.0,square3,f,0.1298,2,N,12.0
NS12,37.0,65.0,32.0,27.0,67.0,67.0,2823.0,square4,r,0.0527,3,N,12.0
NS12,38.0,63.0,32.0,30.0,64.0,32.0,2855.0,square2,j,0.1835,1,N,12.0
NS12,39.0,65.0,30.0,30.0,70.0,65.0,2920.0,square1,i,0.1081,0,N,12.0
NS12,40.0,71.0,37.0,32.0,69.0,69.0,2989.0,square4,r,0.0969,3,N,12.0
NS12,41.0,66.0,45.0,37.0,69.0,69.0,3058.0,square4,r,0.0085,3,N,12.0
NS12,42.0,75.0,42.0,35.0,65.0,65.0,3123.0,square4,r,0.1329,3,N,12.0
NS12,43.0,82.0,39.0,35.0,57.0,57.0,3180.0,square4,r,0.079,3,N,12.0
NS12,44.0,81.0,34.0,34.0,61.0,61.0,3241.0,square4,r,0.0985,3,N,12.0
NS12,45.0,74.0,33.0,36.0,59.0,59.0,3300.0,square4,r,0.1348,3,N,12.0
NS12,46.0,77.0,32.0,40.0,57.0,77.0,3377.0,square1,i,0.0651,0,N,12.0
NS12,47.0,79.0,32.0,39.0,60.0,79.0,3456.0,square1,i,0.0873,0,N,12.0
NS12,48.0,80.0,28.0,34.0,62.0,80.0,3536.0,square1,i,0.0933,0,N,12.0
NS12,49.0,76.0,23.0,37.0,64.0,76.0,3612.0,square1,i,0.0658,0,N,12.0
NS12,50.0,75.0,25.0,37.0,65.0,75.0,3687.0,square1,i,0.0825,0,N,12.0
NS12,51.0,74.0,25.0,39.0,70.0,74.0,3761.0,square1,i,0.1095,0,N,12.0
NS12,52.0,79.0,26.0,40.0,73.0,79.0,3840.0,square1,i,0.0961,0,N,12.0
NS12,53.0,75.0,25.0,33.0,69.0,75.0,3915.0,square1,i,0.1378,0,N,12.0
NS12,54.0,79.0,25.0,38.0,68.0,79.0,3994.0,square1,i,0.0479,0,N,12.0
NS12,55.0,81.0,22.0,34.0,68.0,81.0,4075.0,square1,i,0.0709,0,N,12.0
NS12,56.0,72.0,29.0,39.0,69.0,72.0,4147.0,square1,i,0.0926,0,N,12.0
NS12,57.0,72.0,28.0,38.0,73.0,72.0,4219.0,square1,i,0.047,0,N,12.0
NS12,58.0,69.0,25.0,32.0,71.0,69.0,4288.0,square1,i,0.0746,0,N,12.0
NS12,59.0,75.0,30.0,33.0,69.0,75.0,4363.0,square1,i,0.0949,0,N,12.0
NS12,60.0,68.0,28.0,39.0,68.0,68.0,4431.0,square1,i,0.1136,0,N,12.0
NS12,61.0,69.0,32.0,37.0,60.0,69.0,4500.0,square1,i,0.0696,0,N,12.0
NS12,62.0,63.0,37.0,39.0,55.0,63.0,4563.0,square1,i,0.0813,0,N,12.0
NS12,63.0,63.0,38.0,43.0,54.0,63.0,4626.0,square1,i,0.0255,0,N,12.0
NS12,64.0,60.0,30.0,35.0,55.0,60.0,4686.0,square1,i,0.0596,0,N,12.0
NS12,65.0,60.0,37.0,34.0,55.0,55.0,4741.0,square4,r,0.0593,3,N,12.0
NS12,66.0,61.0,40.0,35.0,51.0,61.0,4802.0,square1,i,0.0042,0,N,12.0
NS12,67.0,65.0,37.0,35.0,53.0,65.0,4867.0,square1,i,0.0989,0,N,12.0
NS12,68.0,62.0,33.0,38.0,50.0,62.0,4929.0,square1,i,0.6058,0,N,12.0
NS12,69.0,56.0,41.0,29.0,54.0,56.0,4985.0,square1,i,0.1345,0,N,12.0
NS12,70.0,56.0,39.0,30.0,57.0,56.0,5041.0,square1,i,0.036,0,N,12.0
NS12,71.0,61.0,40.0,33.0,64.0,64.0,5105.0,square4,r,0.0526,3,N,12.0
NS12,72.0,51.0,42.0,35.0,67.0,67.0,5172.0,square4,r,0.1508,3,N,12.0
NS12,73.0,56.0,39.0,39.0,67.0,67.0,5239.0,square4,r,0.1418,3,N,12.0
NS12,74.0,50.0,38.0,40.0,63.0,63.0,5302.0,square4,r,0.0761,3,N,12.0
NS12,75.0,52.0,37.0,41.0,67.0,67.0,5369.0,square4,r,0.0011,3,N,12.0
NS12,76.0,47.0,40.0,46.0,67.0,67.0,5436.0,square4,r,0.0766,3,N,12.0
NS12,77.0,45.0,35.0,47.0,67.0,67.0,5503.0,square4,r,0.1019,3,N,12.0
NS12,78.0,44.0,38.0,52.0,66.0,66.0,5569.0,square4,r,0.1027,3,N,12.0
NS12,79.0,41.0,38.0,52.0,64.0,64.0,5633.0,square4,r,0.219,3,N,12.0
NS12,80.0,36.0,41.0,57.0,58.0,58.0,5691.0,square4,r,0.0652,3,N,12.0
NS12,81.0,36.0,42.0,66.0,63.0,63.0,5754.0,square4,r,0.109,3,N,12.0
NS12,82.0,35.0,44.0,65.0,62.0,62.0,5816.0,square4,r,0.1782,3,N,12.0
NS12,83.0,37.0,42.0,70.0,65.0,65.0,5881.0,square4,r,0.1847,3,N,12.0
NS12,84.0,35.0,39.0,72.0,58.0,58.0,5939.0,square4,r,0.1312,3,N,12.0
NS12,85.0,30.0,40.0,62.0,55.0,30.0,5969.0,square1,i,0.0008,0,N,12.0
NS12,86.0,36.0,40.0,65.0,59.0,40.0,6009.0,square2,j,0.3965,1,N,12.0
NS12,87.0,31.0,41.0,67.0,57.0,67.0,6076.0,square3,f,0.0574,2,N,12.0
NS12,88.0,30.0,50.0,67.0,52.0,67.0,6143.0,square3,f,0.1733,2,N,12.0
NS12,89.0,28.0,41.0,69.0,54.0,54.0,6197.0,square4,r,0.0275,3,N,12.0
NS12,90.0,29.0,41.0,61.0,57.0,61.0,6258.0,square3,f,0.4346,2,N,12.0
NS12,91.0,30.0,36.0,59.0,54.0,59.0,6317.0,square3,f,0.5669,2,N,12.0
NS12,92.0,28.0,29.0,60.0,54.0,60.0,6377.0,square3,f,0.2379,2,N,12.0
NS12,93.0,30.0,35.0,62.0,52.0,62.0,6439.0,square3,f,0.1346,2,N,12.0
NS12,94.0,30.0,36.0,60.0,56.0,60.0,6499.0,square3,f,0.1082,2,N,12.0
NS12,95.0,29.0,33.0,63.0,60.0,63.0,6562.0,square3,f,0.1327,2,N,12.0
NS12,96.0,29.0,30.0,59.0,59.0,59.0,6621.0,square4,r,0.0517,3,N,12.0
NS12,97.0,31.0,35.0,61.0,61.0,61.0,6682.0,square3,f,0.1669,2,N,12.0
NS12,98.0,31.0,40.0,67.0,58.0,67.0,6749.0,square3,f,0.1256,2,N,12.0
NS12,99.0,33.0,37.0,65.0,67.0,65.0,6814.0,square3,f,0.1507,2,N,12.0
