block,Trial,square1,square2,square3,square4,currPoints,totalPoints,square,choiceKey.keys,choiceKey.rt,armNum,blockType,blockNum
prac,0.0,100.0,0.0,0.0,0.0,0,0.0,square2,,,1,p,0.0
prac,1.0,100.0,0.0,0.0,0.0,100,100.0,square1,,,0,p,0.0
prac,2.0,100.0,0.0,0.0,0.0,0,100.0,square4,,,3,p,0.0
prac,3.0,100.0,0.0,0.0,0.0,0,100.0,square3,,,2,p,0.0
prac,4.0,100.0,0.0,0.0,0.0,100,200.0,square1,,,0,p,0.0
prac,5.0,100.0,0.0,0.0,0.0,100,300.0,square1,,,0,p,0.0
prac,6.0,100.0,0.0,0.0,0.0,100,400.0,square1,,,0,p,0.0
prac,7.0,100.0,0.0,0.0,0.0,100,500.0,square1,,,0,p,0.0
prac,8.0,100.0,0.0,0.0,0.0,100,600.0,square1,,,0,p,0.0
prac,9.0,100.0,0.0,0.0,0.0,100,700.0,square1,,,0,p,0.0
NS6,0.0,68.0,18.0,30.0,58.0,99999,0.0,invalid,,,-1,N,6.0
NS6,1.0,62.0,23.0,38.0,67.0,38,38.0,square3,f,0.0775,2,N,6.0
NS6,2.0,59.0,30.0,33.0,67.0,30,68.0,square2,i,0.2283,1,N,6.0
NS6,3.0,62.0,27.0,39.0,65.0,65,133.0,square4,j,0.4145,3,N,6.0
NS6,4.0,65.0,22.0,32.0,67.0,67,200.0,square4,j,0.3629,3,N,6.0
NS6,5.0,61.0,28.0,39.0,67.0,61,261.0,square1,r,0.378,0,N,6.0
NS6,6.0,59.0,28.0,39.0,66.0,66,327.0,square4,j,0.2535,3,N,6.0
NS6,7.0,56.0,30.0,43.0,63.0,63,390.0,square4,j,0.2121,3,N,6.0
NS6,8.0,57.0,26.0,36.0,60.0,60,450.0,square4,j,0.2956,3,N,6.0
NS6,9.0,51.0,30.0,38.0,65.0,51,501.0,square1,r,0.4237,0,N,6.0
NS6,10.0,46.0,26.0,41.0,61.0,41,542.0,square3,f,0.3866,2,N,6.0
NS6,11.0,46.0,30.0,40.0,58.0,30,572.0,square2,i,0.453,1,N,6.0
NS6,12.0,44.0,27.0,41.0,56.0,41,613.0,square3,f,0.3509,2,N,6.0
NS6,13.0,41.0,32.0,44.0,54.0,54,667.0,square4,j,0.2289,3,N,6.0
NS6,14.0,45.0,36.0,41.0,51.0,51,718.0,square4,j,0.2317,3,N,6.0
NS6,15.0,37.0,34.0,39.0,54.0,54,772.0,square4,j,0.0891,3,N,6.0
NS6,16.0,36.0,37.0,39.0,48.0,48,820.0,square4,j,0.0115,3,N,6.0
NS6,17.0,41.0,39.0,36.0,45.0,45,865.0,square4,j,0.0917,3,N,6.0
NS6,18.0,39.0,38.0,29.0,48.0,48,913.0,square4,j,0.2159,3,N,6.0
NS6,19.0,35.0,40.0,32.0,46.0,46,959.0,square4,j,0.0978,3,N,6.0
NS6,20.0,41.0,40.0,28.0,55.0,55,1014.0,square4,j,0.2174,3,N,6.0
NS6,21.0,45.0,44.0,27.0,54.0,54,1068.0,square4,j,0.346,3,N,6.0
NS6,22.0,44.0,51.0,31.0,53.0,53,1121.0,square4,j,0.1529,3,N,6.0
NS6,23.0,44.0,50.0,29.0,53.0,44,1165.0,square1,r,0.2585,0,N,6.0
NS6,24.0,49.0,49.0,35.0,55.0,35,1200.0,square3,f,0.1119,2,N,6.0
NS6,25.0,44.0,51.0,36.0,56.0,51,1251.0,square2,i,0.2107,1,N,6.0
NS6,26.0,43.0,46.0,38.0,58.0,58,1309.0,square4,j,0.0072,3,N,6.0
NS6,27.0,41.0,44.0,41.0,59.0,59,1368.0,square4,j,0.2404,3,N,6.0
NS6,28.0,38.0,47.0,39.0,58.0,58,1426.0,square4,j,0.0618,3,N,6.0
NS6,29.0,39.0,46.0,37.0,54.0,54,1480.0,square4,j,0.1138,3,N,6.0
NS6,30.0,36.0,49.0,40.0,53.0,53,1533.0,square4,j,0.2095,3,N,6.0
NS6,31.0,37.0,45.0,36.0,55.0,55,1588.0,square4,j,0.1134,3,N,6.0
NS6,32.0,42.0,42.0,40.0,56.0,56,1644.0,square4,j,0.0014,3,N,6.0
NS6,33.0,33.0,44.0,32.0,53.0,53,1697.0,square4,j,0.2906,3,N,6.0
NS6,34.0,32.0,42.0,36.0,49.0,49,1746.0,square4,j,0.0306,3,N,6.0
NS6,35.0,35.0,28.0,38.0,51.0,35,1781.0,square1,r,0.0349,0,N,6.0
NS6,36.0,38.0,28.0,35.0,52.0,35,1816.0,square3,f,0.4786,2,N,6.0
NS6,37.0,44.0,31.0,37.0,55.0,31,1847.0,square2,i,0.5289,1,N,6.0
NS6,38.0,36.0,31.0,36.0,54.0,54,1901.0,square4,j,0.3135,3,N,6.0
NS6,39.0,40.0,29.0,41.0,60.0,60,1961.0,square4,j,0.0991,3,N,6.0
NS6,40.0,46.0,33.0,36.0,62.0,62,2023.0,square4,j,0.1651,3,N,6.0
NS6,41.0,44.0,38.0,34.0,63.0,63,2086.0,square4,j,0.1306,3,N,6.0
NS6,42.0,43.0,32.0,29.0,59.0,59,2145.0,square4,j,0.2485,3,N,6.0
NS6,43.0,47.0,29.0,38.0,61.0,61,2206.0,square4,j,0.0803,3,N,6.0
NS6,44.0,49.0,33.0,36.0,56.0,56,2262.0,square4,j,0.0006,3,N,6.0
NS6,45.0,51.0,29.0,32.0,60.0,51,2313.0,square1,r,0.2606,0,N,6.0
NS6,46.0,52.0,36.0,41.0,64.0,41,2354.0,square3,f,0.1993,2,N,6.0
NS6,47.0,55.0,35.0,46.0,60.0,35,2389.0,square2,i,0.2819,1,N,6.0
NS6,48.0,57.0,34.0,40.0,64.0,64,2453.0,square4,j,0.6441,3,N,6.0
NS6,49.0,54.0,37.0,42.0,59.0,59,2512.0,square4,j,0.0791,3,N,6.0
NS6,50.0,58.0,40.0,35.0,51.0,51,2563.0,square4,j,0.1746,3,N,6.0
NS6,51.0,64.0,35.0,36.0,53.0,53,2616.0,square4,j,0.2964,3,N,6.0
NS6,52.0,60.0,37.0,30.0,52.0,52,2668.0,square4,j,0.0208,3,N,6.0
NS6,53.0,63.0,40.0,30.0,54.0,54,2722.0,square4,j,0.2421,3,N,6.0
NS6,54.0,60.0,37.0,30.0,53.0,53,2775.0,square4,j,0.1354,3,N,6.0
NS6,55.0,57.0,40.0,29.0,50.0,50,2825.0,square4,j,0.1287,3,N,6.0
NS6,56.0,58.0,30.0,30.0,46.0,46,2871.0,square4,j,0.1251,3,N,6.0
NS6,57.0,64.0,34.0,31.0,45.0,45,2916.0,square4,j,0.1271,3,N,6.0
NS6,58.0,66.0,31.0,34.0,48.0,66,2982.0,square1,r,0.2525,0,N,6.0
NS6,59.0,68.0,31.0,35.0,44.0,68,3050.0,square1,r,0.1083,0,N,6.0
NS6,60.0,65.0,28.0,27.0,49.0,65,3115.0,square1,r,0.1311,0,N,6.0
NS6,61.0,67.0,29.0,25.0,47.0,67,3182.0,square1,r,0.0451,0,N,6.0
NS6,62.0,67.0,31.0,27.0,41.0,67,3249.0,square1,r,0.08,0,N,6.0
NS6,63.0,69.0,32.0,24.0,45.0,69,3318.0,square1,r,0.1831,0,N,6.0
NS6,64.0,72.0,41.0,30.0,50.0,72,3390.0,square1,r,0.3033,0,N,6.0
NS6,65.0,75.0,35.0,33.0,50.0,75,3465.0,square1,r,0.0945,0,N,6.0
NS6,66.0,71.0,37.0,26.0,49.0,71,3536.0,square1,r,0.1386,0,N,6.0
NS6,67.0,74.0,34.0,21.0,49.0,74,3610.0,square1,r,0.0121,0,N,6.0
NS6,68.0,81.0,37.0,27.0,50.0,81,3691.0,square1,r,0.1925,0,N,6.0
NS6,69.0,80.0,31.0,25.0,49.0,80,3771.0,square1,r,0.0339,0,N,6.0
NS6,70.0,83.0,33.0,31.0,46.0,83,3854.0,square1,r,0.0882,0,N,6.0
NS6,71.0,75.0,33.0,34.0,53.0,75,3929.0,square1,r,0.0131,0,N,6.0
NS6,72.0,73.0,39.0,32.0,55.0,73,4002.0,square1,r,0.067,0,N,6.0
NS6,73.0,74.0,40.0,33.0,53.0,74,4076.0,square1,r,0.0752,0,N,6.0
NS6,74.0,73.0,46.0,32.0,50.0,73,4149.0,square1,r,0.2546,0,N,6.0
NS6,75.0,71.0,40.0,32.0,49.0,71,4220.0,square1,r,0.0589,0,N,6.0
NS6,76.0,65.0,43.0,31.0,56.0,65,4285.0,square1,r,0.0425,0,N,6.0
NS6,77.0,66.0,41.0,33.0,56.0,41,4326.0,square2,i,0.2613,1,N,6.0
NS6,78.0,71.0,40.0,38.0,64.0,71,4397.0,square1,r,0.1322,0,N,6.0
NS6,79.0,69.0,36.0,35.0,62.0,35,4432.0,square3,f,0.2542,2,N,6.0
NS6,80.0,69.0,34.0,37.0,69.0,69,4501.0,square1,r,0.044,0,N,6.0
NS6,81.0,70.0,37.0,37.0,71.0,71,4572.0,square4,j,0.4088,3,N,6.0
NS6,82.0,68.0,38.0,39.0,66.0,68,4640.0,square1,r,0.7102,0,N,6.0
NS6,83.0,69.0,42.0,41.0,73.0,73,4713.0,square4,j,0.1033,3,N,6.0
NS6,84.0,62.0,42.0,42.0,70.0,70,4783.0,square4,j,0.0015,3,N,6.0
NS6,85.0,57.0,45.0,42.0,77.0,77,4860.0,square4,j,0.0038,3,N,6.0
NS6,86.0,58.0,47.0,44.0,70.0,70,4930.0,square4,j,0.0276,3,N,6.0
NS6,87.0,62.0,44.0,52.0,73.0,73,5003.0,square4,j,0.0211,3,N,6.0
NS6,88.0,62.0,45.0,47.0,72.0,72,5075.0,square4,j,0.0457,3,N,6.0
NS6,89.0,59.0,50.0,47.0,73.0,73,5148.0,square4,j,0.1253,3,N,6.0
NS6,90.0,55.0,45.0,44.0,68.0,68,5216.0,square4,j,0.0672,3,N,6.0
NS6,91.0,55.0,51.0,47.0,67.0,67,5283.0,square4,j,0.0014,3,N,6.0
NS6,92.0,62.0,52.0,35.0,69.0,69,5352.0,square4,j,0.1192,3,N,6.0
NS6,93.0,59.0,47.0,32.0,68.0,68,5420.0,square4,j,0.0009,3,N,6.0
NS6,94.0,67.0,53.0,44.0,66.0,66,5486.0,square4,j,0.0593,3,N,6.0
NS6,95.0,71.0,44.0,47.0,66.0,66,5552.0,square4,j,0.1976,3,N,6.0
NS6,96.0,68.0,53.0,47.0,66.0,66,5618.0,square4,j,0.3772,3,N,6.0
NS6,97.0,65.0,49.0,44.0,64.0,64,5682.0,square4,j,0.0503,3,N,6.0
NS6,98.0,66.0,54.0,55.0,57.0,57,5739.0,square4,j,0.4458,3,N,6.0
NS6,99.0,69.0,57.0,51.0,56.0,69,5808.0,square1,r,0.3543,0,N,6.0
NS11,0.0,78.0,37.0,30.0,78.0,30,30.0,square3,r,1.9495,2,N,11.0
NS11,1.0,85.0,34.0,30.0,76.0,76,106.0,square4,f,0.284,3,N,11.0
NS11,2.0,79.0,33.0,36.0,77.0,79,185.0,square1,i,0.2681,0,N,11.0
NS11,3.0,82.0,33.0,28.0,72.0,33,218.0,square2,j,0.2341,1,N,11.0
NS11,4.0,82.0,34.0,33.0,76.0,82,300.0,square1,i,0.2504,0,N,11.0
NS11,5.0,78.0,38.0,32.0,83.0,78,378.0,square1,i,0.1325,0,N,11.0
NS11,6.0,78.0,37.0,34.0,77.0,78,456.0,square1,i,0.0081,0,N,11.0
NS11,7.0,80.0,30.0,33.0,74.0,80,536.0,square1,i,0.1652,0,N,11.0
NS11,8.0,79.0,32.0,30.0,73.0,79,615.0,square1,i,0.001,0,N,11.0
NS11,9.0,81.0,41.0,34.0,61.0,81,696.0,square1,i,0.1504,0,N,11.0
NS11,10.0,76.0,38.0,25.0,64.0,76,772.0,square1,i,0.0009,0,N,11.0
NS11,11.0,79.0,34.0,27.0,65.0,79,851.0,square1,i,0.0073,0,N,11.0
NS11,12.0,81.0,32.0,25.0,68.0,81,932.0,square1,i,0.0407,0,N,11.0
NS11,13.0,84.0,36.0,24.0,64.0,84,1016.0,square1,i,0.093,0,N,11.0
NS11,14.0,80.0,30.0,24.0,61.0,61,1077.0,square4,f,0.0121,3,N,11.0
NS11,15.0,86.0,33.0,22.0,66.0,86,1163.0,square1,i,0.1098,0,N,11.0
NS11,16.0,85.0,32.0,20.0,64.0,85,1248.0,square1,i,0.0008,0,N,11.0
NS11,17.0,83.0,32.0,22.0,71.0,83,1331.0,square1,i,0.1848,0,N,11.0
NS11,18.0,80.0,31.0,19.0,66.0,80,1411.0,square1,i,0.0839,0,N,11.0
NS11,19.0,75.0,40.0,23.0,69.0,75,1486.0,square1,i,0.0263,0,N,11.0
NS11,20.0,73.0,37.0,14.0,67.0,73,1559.0,square1,i,0.0248,0,N,11.0
NS11,21.0,81.0,34.0,23.0,70.0,81,1640.0,square1,i,0.0838,0,N,11.0
NS11,22.0,77.0,39.0,16.0,73.0,77,1717.0,square1,i,0.1107,0,N,11.0
NS11,23.0,78.0,30.0,23.0,74.0,78,1795.0,square1,i,0.0012,0,N,11.0
NS11,24.0,80.0,32.0,26.0,68.0,80,1875.0,square1,i,0.0551,0,N,11.0
NS11,25.0,81.0,29.0,29.0,73.0,81,1956.0,square1,i,0.0013,0,N,11.0
NS11,26.0,77.0,31.0,26.0,69.0,77,2033.0,square1,i,0.0962,0,N,11.0
NS11,27.0,69.0,47.0,29.0,64.0,69,2102.0,square1,i,0.0013,0,N,11.0
NS11,28.0,69.0,39.0,28.0,71.0,69,2171.0,square1,i,0.179,0,N,11.0
NS11,29.0,71.0,41.0,24.0,66.0,71,2242.0,square1,i,0.1177,0,N,11.0
NS11,30.0,70.0,40.0,21.0,68.0,68,2310.0,square4,f,0.4091,3,N,11.0
NS11,31.0,72.0,44.0,21.0,68.0,72,2382.0,square1,i,0.2353,0,N,11.0
NS11,32.0,72.0,41.0,19.0,75.0,72,2454.0,square1,i,0.1027,0,N,11.0
NS11,33.0,66.0,48.0,21.0,72.0,21,2475.0,square3,r,0.2297,2,N,11.0
NS11,34.0,67.0,48.0,24.0,72.0,48,2523.0,square2,j,0.5169,1,N,11.0
NS11,35.0,58.0,52.0,14.0,73.0,58,2581.0,square1,i,0.0175,0,N,11.0
NS11,36.0,61.0,52.0,23.0,70.0,61,2642.0,square1,i,0.1497,0,N,11.0
NS11,37.0,50.0,55.0,29.0,67.0,50,2692.0,square1,i,0.052,0,N,11.0
NS11,38.0,51.0,54.0,20.0,64.0,64,2756.0,square4,f,0.4,3,N,11.0
NS11,39.0,54.0,49.0,26.0,63.0,63,2819.0,square4,f,0.0726,3,N,11.0
NS11,40.0,50.0,47.0,24.0,70.0,70,2889.0,square4,f,0.1507,3,N,11.0
NS11,41.0,54.0,46.0,23.0,63.0,63,2952.0,square4,f,0.217,3,N,11.0
NS11,42.0,54.0,47.0,25.0,61.0,61,3013.0,square4,f,0.1512,3,N,11.0
NS11,43.0,46.0,49.0,33.0,72.0,72,3085.0,square4,f,0.1617,3,N,11.0
NS11,44.0,54.0,50.0,38.0,72.0,72,3157.0,square4,f,0.183,3,N,11.0
NS11,45.0,56.0,53.0,39.0,81.0,81,3238.0,square4,f,0.0342,3,N,11.0
NS11,46.0,57.0,55.0,33.0,77.0,77,3315.0,square4,f,0.0999,3,N,11.0
NS11,47.0,56.0,51.0,32.0,76.0,76,3391.0,square4,f,0.138,3,N,11.0
NS11,48.0,58.0,49.0,29.0,85.0,85,3476.0,square4,f,0.133,3,N,11.0
NS11,49.0,58.0,53.0,27.0,83.0,83,3559.0,square4,f,0.0008,3,N,11.0
NS11,50.0,62.0,49.0,24.0,80.0,80,3639.0,square4,f,0.0176,3,N,11.0
NS11,51.0,57.0,55.0,23.0,77.0,77,3716.0,square4,f,0.0197,3,N,11.0
NS11,52.0,56.0,55.0,20.0,77.0,77,3793.0,square4,f,0.0435,3,N,11.0
NS11,53.0,59.0,56.0,20.0,78.0,78,3871.0,square4,f,0.1174,3,N,11.0
NS11,54.0,58.0,57.0,27.0,74.0,74,3945.0,square4,f,0.1783,3,N,11.0
NS11,55.0,60.0,55.0,24.0,79.0,79,4024.0,square4,f,0.2334,3,N,11.0
NS11,56.0,60.0,52.0,22.0,77.0,77,4101.0,square4,f,0.0683,3,N,11.0
NS11,57.0,58.0,55.0,22.0,72.0,72,4173.0,square4,f,0.1665,3,N,11.0
NS11,58.0,63.0,52.0,22.0,75.0,75,4248.0,square4,f,0.0372,3,N,11.0
NS11,59.0,62.0,56.0,17.0,70.0,70,4318.0,square4,f,0.094,3,N,11.0
NS11,60.0,61.0,55.0,22.0,70.0,70,4388.0,square4,f,0.1859,3,N,11.0
NS11,61.0,57.0,52.0,21.0,76.0,57,4445.0,square1,i,0.0011,0,N,11.0
NS11,62.0,57.0,48.0,28.0,75.0,28,4473.0,square3,r,0.218,2,N,11.0
NS11,63.0,57.0,58.0,30.0,68.0,58,4531.0,square2,j,0.1335,1,N,11.0
NS11,64.0,61.0,61.0,27.0,74.0,74,4605.0,square4,f,0.0008,3,N,11.0
NS11,65.0,67.0,63.0,40.0,71.0,71,4676.0,square4,f,0.1449,3,N,11.0
NS11,66.0,69.0,55.0,38.0,73.0,73,4749.0,square4,f,0.192,3,N,11.0
NS11,67.0,72.0,57.0,36.0,65.0,65,4814.0,square4,f,0.1172,3,N,11.0
NS11,68.0,71.0,61.0,36.0,64.0,64,4878.0,square4,f,0.0044,3,N,11.0
NS11,69.0,74.0,66.0,37.0,58.0,58,4936.0,square4,f,0.0337,3,N,11.0
NS11,70.0,69.0,60.0,40.0,66.0,66,5002.0,square4,f,0.0805,3,N,11.0
NS11,71.0,71.0,58.0,40.0,64.0,64,5066.0,square4,f,0.1367,3,N,11.0
NS11,72.0,72.0,58.0,46.0,67.0,67,5133.0,square4,f,0.2195,3,N,11.0
NS11,73.0,72.0,56.0,47.0,65.0,65,5198.0,square4,f,1.2836,3,N,11.0
NS11,74.0,66.0,54.0,47.0,63.0,66,5264.0,square1,i,0.1092,0,N,11.0
NS11,75.0,75.0,53.0,43.0,58.0,75,5339.0,square1,i,0.0254,0,N,11.0
NS11,76.0,75.0,48.0,40.0,59.0,75,5414.0,square1,i,0.1171,0,N,11.0
NS11,77.0,65.0,48.0,36.0,58.0,65,5479.0,square1,i,0.0504,0,N,11.0
NS11,78.0,70.0,45.0,37.0,59.0,70,5549.0,square1,i,0.0665,0,N,11.0
NS11,79.0,70.0,41.0,36.0,59.0,70,5619.0,square1,i,0.0176,0,N,11.0
NS11,80.0,73.0,43.0,39.0,59.0,73,5692.0,square1,i,0.034,0,N,11.0
NS11,81.0,72.0,39.0,38.0,60.0,72,5764.0,square1,i,0.097,0,N,11.0
NS11,82.0,72.0,39.0,44.0,65.0,72,5836.0,square1,i,0.0906,0,N,11.0
NS11,83.0,68.0,38.0,40.0,61.0,68,5904.0,square1,i,0.0576,0,N,11.0
NS11,84.0,69.0,36.0,36.0,64.0,69,5973.0,square1,i,0.1044,0,N,11.0
NS11,85.0,70.0,34.0,40.0,69.0,70,6043.0,square1,i,0.0722,0,N,11.0
NS11,86.0,70.0,32.0,36.0,71.0,70,6113.0,square1,i,0.1011,0,N,11.0
NS11,87.0,69.0,31.0,37.0,70.0,69,6182.0,square1,i,0.07,0,N,11.0
NS11,88.0,69.0,34.0,41.0,67.0,69,6251.0,square1,i,0.1684,0,N,11.0
NS11,89.0,67.0,39.0,44.0,67.0,67,6318.0,square1,i,0.0691,0,N,11.0
NS11,90.0,64.0,33.0,36.0,69.0,69,6387.0,square4,f,0.0335,3,N,11.0
NS11,91.0,60.0,33.0,38.0,67.0,60,6447.0,square1,i,0.0105,0,N,11.0
NS11,92.0,60.0,33.0,37.0,68.0,68,6515.0,square4,f,0.1169,3,N,11.0
NS11,93.0,54.0,36.0,38.0,73.0,73,6588.0,square4,f,0.0052,3,N,11.0
NS11,94.0,58.0,35.0,39.0,68.0,68,6656.0,square4,f,0.1334,3,N,11.0
NS11,95.0,50.0,38.0,32.0,77.0,77,6733.0,square4,f,0.1667,3,N,11.0
NS11,96.0,53.0,42.0,30.0,71.0,71,6804.0,square4,f,0.0137,3,N,11.0
NS11,97.0,54.0,38.0,32.0,75.0,75,6879.0,square4,f,0.0146,3,N,11.0
NS11,98.0,52.0,48.0,32.0,72.0,72,6951.0,square4,f,0.0523,3,N,11.0
NS11,99.0,55.0,45.0,33.0,73.0,73,7024.0,square4,f,0.0012,3,N,11.0
NS9,0.0,40.0,33.0,41.0,64.0,64,64.0,square4,r,1.0074,3,N,9.0
NS9,1.0,40.0,19.0,39.0,64.0,40,104.0,square1,f,0.0544,0,N,9.0
NS9,2.0,41.0,16.0,44.0,59.0,44,148.0,square3,j,0.0011,2,N,9.0
NS9,3.0,41.0,19.0,48.0,58.0,19,167.0,square2,i,0.1168,1,N,9.0
NS9,4.0,46.0,18.0,45.0,54.0,54,221.0,square4,r,0.0013,3,N,9.0
NS9,5.0,40.0,17.0,53.0,54.0,54,275.0,square4,r,0.0065,3,N,9.0
NS9,6.0,40.0,19.0,47.0,46.0,46,321.0,square4,r,0.051,3,N,9.0
NS9,7.0,44.0,21.0,51.0,49.0,49,370.0,square4,r,0.3456,3,N,9.0
NS9,8.0,41.0,26.0,44.0,55.0,55,425.0,square4,r,0.0672,3,N,9.0
NS9,9.0,36.0,15.0,44.0,54.0,54,479.0,square4,r,0.046,3,N,9.0
NS9,10.0,32.0,19.0,48.0,49.0,49,528.0,square4,r,0.1942,3,N,9.0
NS9,11.0,32.0,18.0,50.0,57.0,57,585.0,square4,r,0.1529,3,N,9.0
NS9,12.0,32.0,18.0,57.0,52.0,52,637.0,square4,r,0.214,3,N,9.0
NS9,13.0,32.0,8.0,58.0,56.0,32,669.0,square1,f,0.3167,0,N,9.0
NS9,14.0,28.0,9.0,61.0,55.0,9,678.0,square2,i,0.1625,1,N,9.0
NS9,15.0,31.0,11.0,64.0,48.0,64,742.0,square3,j,0.0008,2,N,9.0
NS9,16.0,34.0,13.0,68.0,47.0,68,810.0,square3,j,0.1202,2,N,9.0
NS9,17.0,37.0,11.0,71.0,54.0,71,881.0,square3,j,0.0338,2,N,9.0
NS9,18.0,35.0,10.0,71.0,50.0,71,952.0,square3,j,0.2459,2,N,9.0
NS9,19.0,32.0,21.0,77.0,49.0,77,1029.0,square3,j,0.1508,2,N,9.0
NS9,20.0,41.0,22.0,74.0,48.0,74,1103.0,square3,j,0.1401,2,N,9.0
NS9,21.0,40.0,21.0,75.0,50.0,75,1178.0,square3,j,0.0808,2,N,9.0
NS9,22.0,42.0,23.0,72.0,54.0,72,1250.0,square3,j,0.0511,2,N,9.0
NS9,23.0,43.0,22.0,75.0,45.0,75,1325.0,square3,j,0.0333,2,N,9.0
NS9,24.0,41.0,18.0,70.0,49.0,70,1395.0,square3,j,0.0503,2,N,9.0
NS9,25.0,38.0,21.0,75.0,53.0,75,1470.0,square3,j,0.1301,2,N,9.0
NS9,26.0,40.0,20.0,73.0,54.0,73,1543.0,square3,j,0.3339,2,N,9.0
NS9,27.0,46.0,21.0,74.0,56.0,74,1617.0,square3,j,0.045,2,N,9.0
NS9,28.0,51.0,25.0,72.0,58.0,72,1689.0,square3,j,0.0663,2,N,9.0
NS9,29.0,43.0,29.0,71.0,56.0,71,1760.0,square3,j,0.1336,2,N,9.0
NS9,30.0,38.0,26.0,71.0,52.0,71,1831.0,square3,j,0.0678,2,N,9.0
NS9,31.0,43.0,23.0,73.0,53.0,73,1904.0,square3,j,0.2006,2,N,9.0
NS9,32.0,43.0,24.0,76.0,52.0,52,1956.0,square4,r,0.0008,3,N,9.0
NS9,33.0,41.0,18.0,72.0,49.0,41,1997.0,square1,f,0.0832,0,N,9.0
NS9,34.0,36.0,26.0,68.0,55.0,68,2065.0,square3,j,0.1669,2,N,9.0
NS9,35.0,34.0,34.0,68.0,52.0,34,2099.0,square2,i,0.0667,1,N,9.0
NS9,36.0,34.0,43.0,70.0,49.0,70,2169.0,square3,j,0.0835,2,N,9.0
NS9,37.0,32.0,41.0,61.0,47.0,61,2230.0,square3,j,0.0008,2,N,9.0
NS9,38.0,28.0,41.0,65.0,47.0,65,2295.0,square3,j,0.0507,2,N,9.0
NS9,39.0,28.0,43.0,61.0,48.0,61,2356.0,square3,j,0.0333,2,N,9.0
NS9,40.0,26.0,46.0,65.0,39.0,39,2395.0,square4,r,0.1111,3,N,9.0
NS9,41.0,21.0,38.0,62.0,41.0,62,2457.0,square3,j,0.1007,2,N,9.0
NS9,42.0,18.0,37.0,59.0,42.0,18,2475.0,square1,f,0.0671,0,N,9.0
NS9,43.0,18.0,44.0,57.0,39.0,44,2519.0,square2,i,0.0013,1,N,9.0
NS9,44.0,19.0,43.0,58.0,36.0,58,2577.0,square3,j,0.1207,2,N,9.0
NS9,45.0,23.0,42.0,53.0,39.0,39,2616.0,square4,r,0.0663,3,N,9.0
NS9,46.0,22.0,48.0,58.0,43.0,58,2674.0,square3,j,0.0957,2,N,9.0
NS9,47.0,20.0,47.0,51.0,44.0,51,2725.0,square3,j,0.0033,2,N,9.0
NS9,48.0,21.0,43.0,57.0,40.0,57,2782.0,square3,j,0.0829,2,N,9.0
NS9,49.0,25.0,38.0,59.0,46.0,59,2841.0,square3,j,0.1171,2,N,9.0
NS9,50.0,27.0,41.0,49.0,52.0,49,2890.0,square3,j,0.1376,2,N,9.0
NS9,51.0,20.0,42.0,52.0,54.0,20,2910.0,square1,f,0.2417,0,N,9.0
NS9,52.0,18.0,41.0,51.0,48.0,41,2951.0,square2,i,0.101,1,N,9.0
NS9,53.0,17.0,43.0,52.0,50.0,52,3003.0,square3,j,0.1701,2,N,9.0
NS9,54.0,27.0,37.0,55.0,56.0,55,3058.0,square3,j,0.0499,2,N,9.0
NS9,55.0,30.0,38.0,59.0,50.0,59,3117.0,square3,j,0.101,2,N,9.0
NS9,56.0,32.0,49.0,54.0,59.0,54,3171.0,square3,j,0.1184,2,N,9.0
NS9,57.0,34.0,50.0,50.0,58.0,50,3221.0,square3,j,0.1293,2,N,9.0
NS9,58.0,28.0,49.0,54.0,51.0,54,3275.0,square3,j,0.1021,2,N,9.0
NS9,59.0,26.0,47.0,46.0,49.0,46,3321.0,square3,j,0.1171,2,N,9.0
NS9,60.0,30.0,47.0,50.0,51.0,51,3372.0,square4,r,0.013,3,N,9.0
NS9,61.0,29.0,43.0,51.0,50.0,50,3422.0,square4,r,0.1462,3,N,9.0
NS9,62.0,32.0,42.0,52.0,54.0,54,3476.0,square4,r,0.034,3,N,9.0
NS9,63.0,35.0,45.0,57.0,46.0,46,3522.0,square4,r,0.0011,3,N,9.0
NS9,64.0,37.0,41.0,53.0,44.0,37,3559.0,square1,f,0.1176,0,N,9.0
NS9,65.0,34.0,41.0,50.0,49.0,41,3600.0,square2,i,0.1395,1,N,9.0
NS9,66.0,38.0,43.0,46.0,53.0,46,3646.0,square3,j,0.0505,2,N,9.0
NS9,67.0,36.0,35.0,51.0,54.0,54,3700.0,square4,r,0.2011,3,N,9.0
NS9,68.0,43.0,38.0,48.0,57.0,57,3757.0,square4,r,0.0052,3,N,9.0
NS9,69.0,42.0,42.0,48.0,49.0,49,3806.0,square4,r,0.1184,3,N,9.0
NS9,70.0,45.0,40.0,50.0,51.0,51,3857.0,square4,r,0.0012,3,N,9.0
NS9,71.0,49.0,42.0,48.0,52.0,52,3909.0,square4,r,0.1172,3,N,9.0
NS9,72.0,39.0,44.0,47.0,58.0,58,3967.0,square4,r,0.1673,3,N,9.0
NS9,73.0,40.0,45.0,45.0,62.0,62,4029.0,square4,r,0.1173,3,N,9.0
NS9,74.0,46.0,48.0,47.0,56.0,56,4085.0,square4,r,0.1007,3,N,9.0
NS9,75.0,35.0,39.0,53.0,65.0,65,4150.0,square4,r,0.167,3,N,9.0
NS9,76.0,40.0,45.0,56.0,67.0,67,4217.0,square4,r,0.1179,3,N,9.0
NS9,77.0,38.0,46.0,54.0,69.0,69,4286.0,square4,r,0.0168,3,N,9.0
NS9,78.0,37.0,42.0,53.0,69.0,69,4355.0,square4,r,0.106,3,N,9.0
NS9,79.0,40.0,44.0,53.0,70.0,70,4425.0,square4,r,0.0437,3,N,9.0
NS9,80.0,37.0,50.0,55.0,70.0,70,4495.0,square4,r,0.0507,3,N,9.0
NS9,81.0,33.0,54.0,54.0,63.0,63,4558.0,square4,r,0.2271,3,N,9.0
NS9,82.0,35.0,55.0,52.0,74.0,74,4632.0,square4,r,0.2008,3,N,9.0
NS9,83.0,34.0,48.0,56.0,75.0,75,4707.0,square4,r,0.1339,3,N,9.0
NS9,84.0,39.0,51.0,62.0,78.0,78,4785.0,square4,r,0.1139,3,N,9.0
NS9,85.0,38.0,57.0,55.0,77.0,77,4862.0,square4,r,0.1577,3,N,9.0
NS9,86.0,34.0,53.0,57.0,68.0,68,4930.0,square4,r,0.0672,3,N,9.0
NS9,87.0,35.0,48.0,55.0,69.0,69,4999.0,square4,r,0.1713,3,N,9.0
NS9,88.0,41.0,48.0,50.0,69.0,69,5068.0,square4,r,0.2276,3,N,9.0
NS9,89.0,38.0,54.0,55.0,70.0,70,5138.0,square4,r,0.1082,3,N,9.0
NS9,90.0,43.0,55.0,49.0,71.0,71,5209.0,square4,r,0.0673,3,N,9.0
NS9,91.0,41.0,46.0,54.0,78.0,78,5287.0,square4,r,0.1171,3,N,9.0
NS9,92.0,40.0,42.0,41.0,72.0,72,5359.0,square4,r,0.054,3,N,9.0
NS9,93.0,39.0,43.0,47.0,70.0,70,5429.0,square4,r,0.1196,3,N,9.0
NS9,94.0,36.0,47.0,43.0,80.0,80,5509.0,square4,r,0.1169,3,N,9.0
NS9,95.0,37.0,46.0,43.0,75.0,75,5584.0,square4,r,0.0266,3,N,9.0
NS9,96.0,39.0,47.0,47.0,75.0,75,5659.0,square4,r,0.2285,3,N,9.0
NS9,97.0,35.0,41.0,49.0,80.0,80,5739.0,square4,r,0.2497,3,N,9.0
NS9,98.0,33.0,45.0,56.0,74.0,74,5813.0,square4,r,0.1668,3,N,9.0
NS9,99.0,34.0,42.0,58.0,74.0,99999,5813.0,invalid,,,-1,N,9.0
V3,0.0,62.0,45.0,70.0,53.0,45,45.0,square2,r,0.6995,1,V,3.0
V3,1.0,63.0,47.0,76.0,60.0,60,105.0,square4,f,0.2339,3,V,3.0
V3,2.0,65.0,54.0,73.0,57.0,65,170.0,square1,j,0.2662,0,V,3.0
V3,3.0,68.0,51.0,71.0,51.0,71,241.0,square3,i,0.1337,2,V,3.0
V3,4.0,61.0,49.0,75.0,53.0,75,316.0,square3,i,0.0008,2,V,3.0
V3,5.0,65.0,47.0,74.0,50.0,74,390.0,square3,i,0.0048,2,V,3.0
V3,6.0,61.0,51.0,72.0,57.0,72,462.0,square3,i,0.0337,2,V,3.0
V3,7.0,67.0,49.0,75.0,55.0,75,537.0,square3,i,0.1016,2,V,3.0
V3,8.0,64.0,48.0,76.0,56.0,76,613.0,square3,i,0.0344,2,V,3.0
V3,9.0,67.0,49.0,71.0,56.0,71,684.0,square3,i,0.0166,2,V,3.0
V3,10.0,65.0,50.0,71.0,56.0,71,755.0,square3,i,0.1842,2,V,3.0
V3,11.0,63.0,43.0,78.0,58.0,78,833.0,square3,i,0.1163,2,V,3.0
V3,12.0,66.0,53.0,73.0,54.0,73,906.0,square3,i,0.1341,2,V,3.0
V3,13.0,64.0,46.0,78.0,51.0,78,984.0,square3,i,0.0184,2,V,3.0
V3,14.0,67.0,51.0,71.0,58.0,71,1055.0,square3,i,0.1832,2,V,3.0
V3,15.0,61.0,50.0,73.0,54.0,61,1116.0,square1,j,0.0333,0,V,3.0
V3,16.0,64.0,52.0,74.0,54.0,54,1170.0,square4,f,0.1055,3,V,3.0
V3,17.0,61.0,48.0,74.0,55.0,48,1218.0,square2,r,0.006,1,V,3.0
V3,18.0,65.0,50.0,70.0,59.0,70,1288.0,square3,i,0.0821,2,V,3.0
V3,19.0,64.0,52.0,76.0,56.0,76,1364.0,square3,i,0.0859,2,V,3.0
V3,20.0,64.0,50.0,69.0,58.0,69,1433.0,square3,i,0.0468,2,V,3.0
V3,21.0,66.0,50.0,72.0,56.0,72,1505.0,square3,i,0.0009,2,V,3.0
V3,22.0,43.0,48.0,40.0,62.0,40,1545.0,square3,i,0.1801,2,V,3.0
V3,23.0,41.0,51.0,35.0,59.0,59,1604.0,square4,f,0.2951,3,V,3.0
V3,24.0,51.0,51.0,37.0,60.0,51,1655.0,square2,r,0.1635,1,V,3.0
V3,25.0,45.0,53.0,36.0,57.0,45,1700.0,square1,j,0.0885,0,V,3.0
V3,26.0,44.0,51.0,38.0,59.0,59,1759.0,square4,f,0.0412,3,V,3.0
V3,27.0,43.0,51.0,34.0,66.0,51,1810.0,square2,r,0.0284,1,V,3.0
V3,28.0,47.0,51.0,40.0,67.0,67,1877.0,square4,f,0.0803,3,V,3.0
V3,29.0,42.0,55.0,35.0,65.0,65,1942.0,square4,f,0.1743,3,V,3.0
V3,30.0,49.0,54.0,36.0,62.0,62,2004.0,square4,f,0.1106,3,V,3.0
V3,31.0,50.0,53.0,42.0,66.0,66,2070.0,square4,f,0.1185,3,V,3.0
V3,32.0,47.0,53.0,34.0,58.0,58,2128.0,square4,f,0.0162,3,V,3.0
V3,33.0,45.0,56.0,34.0,62.0,62,2190.0,square4,f,0.1544,3,V,3.0
V3,34.0,48.0,54.0,38.0,64.0,64,2254.0,square4,f,0.138,3,V,3.0
V3,35.0,39.0,55.0,42.0,65.0,65,2319.0,square4,f,0.231,3,V,3.0
V3,36.0,46.0,57.0,41.0,63.0,63,2382.0,square4,f,0.0931,3,V,3.0
V3,37.0,43.0,54.0,41.0,65.0,65,2447.0,square4,f,0.0267,3,V,3.0
V3,38.0,47.0,52.0,37.0,63.0,63,2510.0,square4,f,0.1635,3,V,3.0
V3,39.0,47.0,53.0,38.0,55.0,55,2565.0,square4,f,0.0652,3,V,3.0
V3,40.0,41.0,54.0,39.0,64.0,64,2629.0,square4,f,0.0197,3,V,3.0
V3,41.0,48.0,52.0,38.0,64.0,48,2677.0,square1,j,0.1528,0,V,3.0
V3,42.0,45.0,50.0,34.0,63.0,34,2711.0,square3,i,0.3685,2,V,3.0
V3,43.0,44.0,50.0,34.0,62.0,50,2761.0,square2,r,0.1295,1,V,3.0
V3,44.0,47.0,55.0,39.0,65.0,65,2826.0,square4,f,0.0642,3,V,3.0
V3,45.0,45.0,55.0,31.0,63.0,63,2889.0,square4,f,0.0998,3,V,3.0
V3,46.0,42.0,52.0,38.0,64.0,64,2953.0,square4,f,0.0061,3,V,3.0
V3,47.0,44.0,53.0,37.0,55.0,55,3008.0,square4,f,0.0391,3,V,3.0
V3,48.0,44.0,49.0,37.0,58.0,58,3066.0,square4,f,0.1878,3,V,3.0
V3,49.0,48.0,58.0,35.0,54.0,54,3120.0,square4,f,0.0149,3,V,3.0
V3,50.0,42.0,28.0,30.0,52.0,42,3162.0,square1,j,0.0878,0,V,3.0
V3,51.0,46.0,29.0,32.0,51.0,51,3213.0,square4,f,0.1966,3,V,3.0
V3,52.0,37.0,20.0,36.0,50.0,36,3249.0,square3,i,0.0528,2,V,3.0
V3,53.0,44.0,22.0,34.0,55.0,22,3271.0,square2,r,0.1981,1,V,3.0
V3,54.0,37.0,27.0,26.0,50.0,50,3321.0,square4,f,0.1925,3,V,3.0
V3,55.0,41.0,21.0,39.0,53.0,53,3374.0,square4,f,0.2238,3,V,3.0
V3,56.0,40.0,20.0,38.0,51.0,51,3425.0,square4,f,0.0135,3,V,3.0
V3,57.0,44.0,28.0,31.0,57.0,57,3482.0,square4,f,0.0616,3,V,3.0
V3,58.0,46.0,20.0,28.0,49.0,49,3531.0,square4,f,0.2502,3,V,3.0
V3,59.0,44.0,24.0,30.0,55.0,55,3586.0,square4,f,0.1896,3,V,3.0
V3,60.0,42.0,29.0,29.0,51.0,51,3637.0,square4,f,0.1871,3,V,3.0
V3,61.0,41.0,21.0,30.0,46.0,46,3683.0,square4,f,0.2755,3,V,3.0
V3,62.0,41.0,27.0,31.0,49.0,49,3732.0,square4,f,0.3011,3,V,3.0
V3,63.0,42.0,27.0,34.0,51.0,42,3774.0,square1,j,0.0958,0,V,3.0
V3,64.0,41.0,24.0,30.0,47.0,24,3798.0,square2,r,0.113,1,V,3.0
V3,65.0,36.0,18.0,34.0,48.0,34,3832.0,square3,i,0.0395,2,V,3.0
V3,66.0,39.0,28.0,35.0,45.0,45,3877.0,square4,f,0.0957,3,V,3.0
V3,67.0,42.0,21.0,32.0,46.0,46,3923.0,square4,f,0.0622,3,V,3.0
V3,68.0,40.0,24.0,35.0,53.0,53,3976.0,square4,f,0.0324,3,V,3.0
V3,69.0,48.0,23.0,34.0,50.0,50,4026.0,square4,f,0.1468,3,V,3.0
V3,70.0,40.0,27.0,31.0,49.0,49,4075.0,square4,f,0.0544,3,V,3.0
V3,71.0,41.0,23.0,28.0,51.0,41,4116.0,square1,j,0.1577,0,V,3.0
V3,72.0,42.0,25.0,33.0,55.0,55,4171.0,square4,f,0.001,3,V,3.0
V3,73.0,41.0,24.0,35.0,55.0,55,4226.0,square4,f,0.1633,3,V,3.0
V3,74.0,38.0,26.0,28.0,53.0,53,4279.0,square4,f,0.0354,3,V,3.0
V3,75.0,54.0,39.0,69.0,50.0,50,4329.0,square4,f,0.0358,3,V,3.0
V3,76.0,55.0,42.0,64.0,53.0,53,4382.0,square4,f,0.044,3,V,3.0
V3,77.0,59.0,37.0,66.0,44.0,44,4426.0,square4,f,0.3188,3,V,3.0
V3,78.0,58.0,38.0,60.0,46.0,46,4472.0,square4,f,0.2252,3,V,3.0
V3,79.0,54.0,35.0,66.0,49.0,54,4526.0,square1,j,0.13,0,V,3.0
V3,80.0,60.0,36.0,68.0,44.0,60,4586.0,square1,j,0.0012,0,V,3.0
V3,81.0,55.0,38.0,66.0,51.0,55,4641.0,square1,j,0.145,0,V,3.0
V3,82.0,57.0,47.0,64.0,50.0,57,4698.0,square1,j,0.1414,0,V,3.0
V3,83.0,57.0,37.0,63.0,45.0,57,4755.0,square1,j,0.2097,0,V,3.0
V3,84.0,54.0,40.0,65.0,53.0,54,4809.0,square1,j,0.0013,0,V,3.0
V3,85.0,58.0,41.0,63.0,48.0,58,4867.0,square1,j,0.1565,0,V,3.0
V3,86.0,53.0,38.0,57.0,49.0,53,4920.0,square1,j,0.0789,0,V,3.0
V3,87.0,49.0,42.0,60.0,43.0,49,4969.0,square1,j,0.1,0,V,3.0
V3,88.0,56.0,35.0,70.0,46.0,56,5025.0,square1,j,0.0681,0,V,3.0
V3,89.0,58.0,39.0,63.0,52.0,58,5083.0,square1,j,0.0322,0,V,3.0
V3,90.0,59.0,43.0,63.0,45.0,59,5142.0,square1,j,0.0298,0,V,3.0
V3,91.0,54.0,37.0,69.0,49.0,54,5196.0,square1,j,0.1036,0,V,3.0
V3,92.0,56.0,41.0,61.0,47.0,56,5252.0,square1,j,0.001,0,V,3.0
V3,93.0,58.0,35.0,68.0,47.0,58,5310.0,square1,j,0.0182,0,V,3.0
V3,94.0,61.0,37.0,67.0,51.0,61,5371.0,square1,j,0.0837,0,V,3.0
V3,95.0,57.0,32.0,64.0,47.0,57,5428.0,square1,j,0.0708,0,V,3.0
V3,96.0,53.0,38.0,63.0,48.0,53,5481.0,square1,j,0.1127,0,V,3.0
V3,97.0,57.0,44.0,71.0,50.0,57,5538.0,square1,j,0.1301,0,V,3.0
V3,98.0,56.0,39.0,70.0,47.0,56,5594.0,square1,j,0.1076,0,V,3.0
V3,99.0,62.0,40.0,67.0,49.0,62,5656.0,square1,j,0.0013,0,V,3.0
V7,0.0,86.0,61.0,78.0,68.0,86,86.0,square1,i,0.8071,0,V,7.0
V7,1.0,95.0,62.0,79.0,70.0,95,181.0,square1,i,0.0397,0,V,7.0
V7,2.0,89.0,67.0,81.0,77.0,89,270.0,square1,i,0.1297,0,V,7.0
V7,3.0,90.0,56.0,85.0,72.0,90,360.0,square1,i,0.1194,0,V,7.0
V7,4.0,91.0,65.0,77.0,71.0,77,437.0,square3,r,0.3493,2,V,7.0
V7,5.0,91.0,58.0,84.0,72.0,58,495.0,square2,f,0.2802,1,V,7.0
V7,6.0,94.0,65.0,87.0,72.0,72,567.0,square4,j,0.0847,3,V,7.0
V7,7.0,89.0,67.0,79.0,67.0,89,656.0,square1,i,0.1268,0,V,7.0
V7,8.0,91.0,65.0,84.0,68.0,91,747.0,square1,i,0.0882,0,V,7.0
V7,9.0,92.0,60.0,87.0,69.0,92,839.0,square1,i,0.1489,0,V,7.0
V7,10.0,90.0,67.0,81.0,76.0,90,929.0,square1,i,0.1296,0,V,7.0
V7,11.0,86.0,67.0,83.0,73.0,86,1015.0,square1,i,0.0047,0,V,7.0
V7,12.0,90.0,62.0,80.0,72.0,90,1105.0,square1,i,0.0301,0,V,7.0
V7,13.0,84.0,60.0,88.0,71.0,84,1189.0,square1,i,0.3536,0,V,7.0
V7,14.0,95.0,64.0,80.0,70.0,95,1284.0,square1,i,0.0009,0,V,7.0
V7,15.0,86.0,60.0,81.0,70.0,86,1370.0,square1,i,0.1571,0,V,7.0
V7,16.0,85.0,65.0,77.0,69.0,85,1455.0,square1,i,0.2789,0,V,7.0
V7,17.0,91.0,65.0,81.0,70.0,91,1546.0,square1,i,0.5983,0,V,7.0
V7,18.0,95.0,61.0,81.0,76.0,95,1641.0,square1,i,0.7404,0,V,7.0
V7,19.0,90.0,58.0,79.0,72.0,90,1731.0,square1,i,0.1649,0,V,7.0
V7,20.0,94.0,68.0,80.0,79.0,94,1825.0,square1,i,0.8903,0,V,7.0
V7,21.0,92.0,66.0,82.0,70.0,92,1917.0,square1,i,0.1345,0,V,7.0
V7,22.0,92.0,64.0,83.0,72.0,92,2009.0,square1,i,0.2924,0,V,7.0
V7,23.0,91.0,68.0,82.0,73.0,91,2100.0,square1,i,0.5038,0,V,7.0
V7,24.0,87.0,71.0,82.0,72.0,87,2187.0,square1,i,0.3384,0,V,7.0
V7,25.0,91.0,68.0,90.0,74.0,91,2278.0,square1,i,0.3906,0,V,7.0
V7,26.0,89.0,65.0,83.0,72.0,89,2367.0,square1,i,0.0306,0,V,7.0
V7,27.0,91.0,61.0,81.0,73.0,91,2458.0,square1,i,0.1374,0,V,7.0
V7,28.0,90.0,66.0,81.0,72.0,90,2548.0,square1,i,0.0729,0,V,7.0
V7,29.0,89.0,67.0,77.0,71.0,89,2637.0,square1,i,0.0481,0,V,7.0
V7,30.0,95.0,68.0,84.0,71.0,84,2721.0,square3,r,0.1077,2,V,7.0
V7,31.0,95.0,61.0,81.0,70.0,61,2782.0,square2,f,0.1873,1,V,7.0
V7,32.0,89.0,65.0,82.0,75.0,75,2857.0,square4,j,0.037,3,V,7.0
V7,33.0,77.0,50.0,80.0,61.0,77,2934.0,square1,i,0.0027,0,V,7.0
V7,34.0,76.0,54.0,78.0,61.0,78,3012.0,square3,r,0.1761,2,V,7.0
V7,35.0,71.0,51.0,80.0,64.0,80,3092.0,square3,r,0.0391,2,V,7.0
V7,36.0,75.0,51.0,80.0,62.0,80,3172.0,square3,r,0.1544,2,V,7.0
V7,37.0,73.0,58.0,86.0,63.0,86,3258.0,square3,r,0.2629,2,V,7.0
V7,38.0,73.0,50.0,86.0,61.0,86,3344.0,square3,r,0.0836,2,V,7.0
V7,39.0,67.0,53.0,78.0,61.0,53,3397.0,square2,f,0.17,1,V,7.0
V7,40.0,71.0,53.0,84.0,58.0,84,3481.0,square3,r,0.1765,2,V,7.0
V7,41.0,75.0,51.0,83.0,63.0,83,3564.0,square3,r,0.1267,2,V,7.0
V7,42.0,69.0,48.0,87.0,63.0,87,3651.0,square3,r,0.0457,2,V,7.0
V7,43.0,70.0,58.0,81.0,60.0,81,3732.0,square3,r,0.2046,2,V,7.0
V7,44.0,68.0,56.0,76.0,63.0,76,3808.0,square3,r,0.4375,2,V,7.0
V7,45.0,74.0,59.0,76.0,56.0,76,3884.0,square3,r,0.0127,2,V,7.0
V7,46.0,72.0,54.0,77.0,61.0,77,3961.0,square3,r,0.1034,2,V,7.0
V7,47.0,69.0,47.0,81.0,62.0,81,4042.0,square3,r,0.0528,2,V,7.0
V7,48.0,75.0,52.0,81.0,57.0,81,4123.0,square3,r,0.1081,2,V,7.0
V7,49.0,74.0,55.0,78.0,60.0,78,4201.0,square3,r,0.0751,2,V,7.0
V7,50.0,71.0,51.0,80.0,61.0,80,4281.0,square3,r,0.0672,2,V,7.0
V7,51.0,75.0,55.0,85.0,62.0,75,4356.0,square1,i,0.0728,0,V,7.0
V7,52.0,75.0,59.0,76.0,59.0,75,4431.0,square1,i,0.0865,0,V,7.0
V7,53.0,72.0,53.0,84.0,66.0,72,4503.0,square1,i,0.0008,0,V,7.0
V7,54.0,69.0,51.0,81.0,60.0,81,4584.0,square3,r,0.0632,2,V,7.0
V7,55.0,74.0,56.0,75.0,54.0,75,4659.0,square3,r,0.2268,2,V,7.0
V7,56.0,76.0,51.0,83.0,58.0,83,4742.0,square3,r,0.1872,2,V,7.0
V7,57.0,71.0,53.0,80.0,64.0,71,4813.0,square1,i,0.1433,0,V,7.0
V7,58.0,81.0,56.0,79.0,61.0,61,4874.0,square4,j,0.0906,3,V,7.0
V7,59.0,71.0,55.0,83.0,59.0,55,4929.0,square2,f,0.1729,1,V,7.0
V7,60.0,73.0,53.0,83.0,64.0,83,5012.0,square3,r,0.1456,2,V,7.0
V7,61.0,70.0,53.0,77.0,63.0,77,5089.0,square3,r,0.1957,2,V,7.0
V7,62.0,71.0,54.0,76.0,61.0,76,5165.0,square3,r,0.2073,2,V,7.0
V7,63.0,68.0,45.0,79.0,65.0,79,5244.0,square3,r,0.0159,2,V,7.0
V7,64.0,65.0,55.0,79.0,59.0,79,5323.0,square3,r,0.0963,2,V,7.0
V7,65.0,74.0,54.0,81.0,61.0,81,5404.0,square3,r,0.0528,2,V,7.0
V7,66.0,70.0,56.0,81.0,63.0,81,5485.0,square3,r,0.4126,2,V,7.0
V7,67.0,70.0,85.0,64.0,92.0,64,5549.0,square3,r,0.1667,2,V,7.0
V7,68.0,73.0,85.0,68.0,92.0,68,5617.0,square3,r,0.0211,2,V,7.0
V7,69.0,75.0,83.0,70.0,91.0,70,5687.0,square3,r,0.1245,2,V,7.0
V7,70.0,75.0,85.0,69.0,91.0,69,5756.0,square3,r,0.2104,2,V,7.0
V7,71.0,71.0,86.0,65.0,94.0,65,5821.0,square3,r,0.1664,2,V,7.0
V7,72.0,77.0,86.0,65.0,98.0,77,5898.0,square1,i,0.1807,0,V,7.0
V7,73.0,77.0,84.0,63.0,94.0,77,5975.0,square1,i,0.0198,0,V,7.0
V7,74.0,71.0,86.0,64.0,91.0,86,6061.0,square2,f,0.0714,1,V,7.0
V7,75.0,73.0,90.0,60.0,90.0,90,6151.0,square4,j,0.1397,3,V,7.0
V7,76.0,79.0,84.0,68.0,95.0,95,6246.0,square4,j,0.0375,3,V,7.0
V7,77.0,73.0,85.0,66.0,89.0,89,6335.0,square4,j,0.141,3,V,7.0
V7,78.0,75.0,82.0,67.0,91.0,91,6426.0,square4,j,0.1127,3,V,7.0
V7,79.0,72.0,85.0,60.0,90.0,90,6516.0,square4,j,0.0551,3,V,7.0
V7,80.0,73.0,83.0,66.0,97.0,97,6613.0,square4,j,0.0298,3,V,7.0
V7,81.0,73.0,84.0,67.0,92.0,92,6705.0,square4,j,0.07,3,V,7.0
V7,82.0,69.0,84.0,65.0,91.0,91,6796.0,square4,j,0.1307,3,V,7.0
V7,83.0,76.0,83.0,72.0,99.0,99,6895.0,square4,j,0.011,3,V,7.0
V7,84.0,72.0,84.0,70.0,94.0,94,6989.0,square4,j,0.0448,3,V,7.0
V7,85.0,77.0,83.0,67.0,88.0,88,7077.0,square4,j,0.0575,3,V,7.0
V7,86.0,76.0,80.0,67.0,90.0,90,7167.0,square4,j,0.0944,3,V,7.0
V7,87.0,70.0,86.0,67.0,95.0,95,7262.0,square4,j,0.1298,3,V,7.0
V7,88.0,76.0,84.0,67.0,100.0,100,7362.0,square4,j,0.1101,3,V,7.0
V7,89.0,71.0,88.0,60.0,97.0,97,7459.0,square4,j,0.3956,3,V,7.0
V7,90.0,69.0,82.0,71.0,95.0,95,7554.0,square4,j,0.0093,3,V,7.0
V7,91.0,80.0,84.0,65.0,92.0,92,7646.0,square4,j,0.095,3,V,7.0
V7,92.0,77.0,85.0,68.0,85.0,85,7731.0,square4,j,0.0897,3,V,7.0
V7,93.0,72.0,84.0,66.0,91.0,91,7822.0,square4,j,0.082,3,V,7.0
V7,94.0,69.0,83.0,66.0,95.0,95,7917.0,square4,j,0.1214,3,V,7.0
V7,95.0,70.0,86.0,75.0,91.0,91,8008.0,square4,j,0.1195,3,V,7.0
V7,96.0,74.0,85.0,66.0,88.0,88,8096.0,square4,j,0.0468,3,V,7.0
V7,97.0,77.0,82.0,73.0,91.0,91,8187.0,square4,j,0.2635,3,V,7.0
V7,98.0,76.0,91.0,62.0,94.0,94,8281.0,square4,j,0.0154,3,V,7.0
V7,99.0,74.0,84.0,67.0,88.0,88,8369.0,square4,j,0.169,3,V,7.0
V12,0.0,47.0,30.0,38.0,55.0,55,55.0,square4,r,0.9602,3,V,12.0
V12,1.0,46.0,33.0,39.0,57.0,46,101.0,square1,f,0.087,0,V,12.0
V12,2.0,51.0,29.0,42.0,52.0,29,130.0,square2,j,0.0366,1,V,12.0
V12,3.0,52.0,30.0,38.0,62.0,38,168.0,square3,i,0.0334,2,V,12.0
V12,4.0,48.0,30.0,39.0,62.0,62,230.0,square4,r,0.0135,3,V,12.0
V12,5.0,55.0,34.0,43.0,61.0,55,285.0,square1,f,0.1033,0,V,12.0
V12,6.0,45.0,35.0,42.0,56.0,56,341.0,square4,r,0.0193,3,V,12.0
V12,7.0,48.0,29.0,35.0,57.0,29,370.0,square2,j,0.1355,1,V,12.0
V12,8.0,46.0,33.0,38.0,59.0,38,408.0,square3,i,0.1016,2,V,12.0
V12,9.0,44.0,31.0,42.0,56.0,44,452.0,square1,f,0.2335,0,V,12.0
V12,10.0,48.0,34.0,45.0,55.0,55,507.0,square4,r,0.1315,3,V,12.0
V12,11.0,45.0,32.0,41.0,55.0,55,562.0,square4,r,0.0361,3,V,12.0
V12,12.0,52.0,26.0,42.0,57.0,57,619.0,square4,r,0.0133,3,V,12.0
V12,13.0,56.0,31.0,41.0,54.0,54,673.0,square4,r,0.0564,3,V,12.0
V12,14.0,44.0,34.0,40.0,64.0,64,737.0,square4,r,0.2179,3,V,12.0
V12,15.0,48.0,32.0,39.0,61.0,61,798.0,square4,r,0.2293,3,V,12.0
V12,16.0,49.0,33.0,37.0,58.0,58,856.0,square4,r,0.0182,3,V,12.0
V12,17.0,45.0,33.0,43.0,57.0,57,913.0,square4,r,0.0299,3,V,12.0
V12,18.0,45.0,28.0,40.0,58.0,58,971.0,square4,r,0.0892,3,V,12.0
V12,19.0,42.0,33.0,43.0,59.0,59,1030.0,square4,r,0.0172,3,V,12.0
V12,20.0,46.0,30.0,38.0,62.0,62,1092.0,square4,r,0.1453,3,V,12.0
V12,21.0,46.0,35.0,40.0,55.0,55,1147.0,square4,r,0.0131,3,V,12.0
V12,22.0,46.0,34.0,36.0,63.0,63,1210.0,square4,r,0.0012,3,V,12.0
V12,23.0,54.0,34.0,42.0,56.0,56,1266.0,square4,r,0.2159,3,V,12.0
V12,24.0,44.0,30.0,41.0,59.0,59,1325.0,square4,r,0.1219,3,V,12.0
V12,25.0,49.0,33.0,37.0,64.0,64,1389.0,square4,r,1.4316,3,V,12.0
V12,26.0,52.0,34.0,39.0,57.0,57,1446.0,square4,r,0.39,3,V,12.0
V12,27.0,50.0,26.0,37.0,55.0,55,1501.0,square4,r,0.1689,3,V,12.0
V12,28.0,41.0,29.0,46.0,21.0,21,1522.0,square4,r,0.1404,3,V,12.0
V12,29.0,41.0,28.0,51.0,20.0,20,1542.0,square4,r,0.1643,3,V,12.0
V12,30.0,32.0,31.0,46.0,22.0,22,1564.0,square4,r,0.9358,3,V,12.0
V12,31.0,38.0,28.0,45.0,22.0,22,1586.0,square4,r,0.0421,3,V,12.0
V12,32.0,35.0,27.0,44.0,16.0,16,1602.0,square4,r,0.0377,3,V,12.0
V12,33.0,39.0,29.0,49.0,21.0,21,1623.0,square4,r,1.5996,3,V,12.0
V12,34.0,39.0,28.0,49.0,15.0,15,1638.0,square4,r,0.0496,3,V,12.0
V12,35.0,36.0,29.0,50.0,17.0,17,1655.0,square4,r,0.4359,3,V,12.0
V12,36.0,41.0,28.0,48.0,12.0,12,1667.0,square4,r,0.234,3,V,12.0
V12,37.0,34.0,29.0,46.0,25.0,99999,1667.0,invalid,,,-1,V,12.0
V12,38.0,38.0,28.0,51.0,19.0,99999,1667.0,invalid,,,-1,V,12.0
V12,39.0,39.0,31.0,45.0,13.0,13,1680.0,square4,r,0.9179,3,V,12.0
V12,40.0,35.0,28.0,46.0,26.0,35,1715.0,square1,f,0.4289,0,V,12.0
V12,41.0,38.0,27.0,46.0,20.0,46,1761.0,square3,i,0.0824,2,V,12.0
V12,42.0,40.0,26.0,50.0,23.0,26,1787.0,square2,j,0.1808,1,V,12.0
V12,43.0,33.0,30.0,45.0,18.0,45,1832.0,square3,i,0.0907,2,V,12.0
V12,44.0,39.0,31.0,46.0,22.0,46,1878.0,square3,i,0.0785,2,V,12.0
V12,45.0,32.0,26.0,42.0,20.0,42,1920.0,square3,i,0.0322,2,V,12.0
V12,46.0,36.0,29.0,43.0,24.0,43,1963.0,square3,i,0.1047,2,V,12.0
V12,47.0,37.0,30.0,46.0,21.0,46,2009.0,square3,i,0.0741,2,V,12.0
V12,48.0,37.0,27.0,44.0,19.0,44,2053.0,square3,i,0.6889,2,V,12.0
V12,49.0,36.0,33.0,55.0,16.0,55,2108.0,square3,i,0.1476,2,V,12.0
V12,50.0,45.0,28.0,44.0,18.0,44,2152.0,square3,i,0.1249,2,V,12.0
V12,51.0,35.0,32.0,49.0,19.0,99999,2152.0,invalid,,,-1,V,12.0
V12,52.0,36.0,56.0,31.0,52.0,31,2183.0,square3,i,0.1211,2,V,12.0
V12,53.0,36.0,57.0,29.0,45.0,99999,2183.0,invalid,,,-1,V,12.0
V12,54.0,38.0,61.0,28.0,51.0,28,2211.0,square3,i,0.6135,2,V,12.0
V12,55.0,35.0,60.0,29.0,47.0,60,2271.0,square2,j,0.1478,1,V,12.0
V12,56.0,34.0,62.0,29.0,46.0,62,2333.0,square2,j,0.1751,1,V,12.0
V12,57.0,43.0,57.0,32.0,46.0,57,2390.0,square2,j,0.1197,1,V,12.0
V12,58.0,40.0,59.0,32.0,50.0,40,2430.0,square1,f,0.0645,0,V,12.0
V12,59.0,41.0,62.0,33.0,48.0,48,2478.0,square4,r,0.1299,3,V,12.0
V12,60.0,36.0,61.0,32.0,49.0,61,2539.0,square2,j,0.1083,1,V,12.0
V12,61.0,39.0,56.0,32.0,44.0,56,2595.0,square2,j,0.0582,1,V,12.0
V12,62.0,39.0,57.0,30.0,46.0,57,2652.0,square2,j,0.0318,1,V,12.0
V12,63.0,42.0,53.0,29.0,46.0,53,2705.0,square2,j,0.0312,1,V,12.0
V12,64.0,35.0,57.0,32.0,50.0,57,2762.0,square2,j,0.0952,1,V,12.0
V12,65.0,44.0,58.0,32.0,49.0,58,2820.0,square2,j,0.0812,1,V,12.0
V12,66.0,44.0,56.0,29.0,52.0,56,2876.0,square2,j,0.1394,1,V,12.0
V12,67.0,41.0,60.0,30.0,49.0,60,2936.0,square2,j,0.3907,1,V,12.0
V12,68.0,42.0,58.0,32.0,45.0,58,2994.0,square2,j,0.0141,1,V,12.0
V12,69.0,36.0,60.0,33.0,50.0,60,3054.0,square2,j,0.1346,1,V,12.0
V12,70.0,36.0,57.0,27.0,46.0,57,3111.0,square2,j,0.071,1,V,12.0
V12,71.0,41.0,59.0,32.0,48.0,59,3170.0,square2,j,0.1042,1,V,12.0
V12,72.0,34.0,59.0,31.0,49.0,59,3229.0,square2,j,0.0496,1,V,12.0
V12,73.0,71.0,53.0,65.0,49.0,53,3282.0,square2,j,0.3101,1,V,12.0
V12,74.0,69.0,49.0,63.0,45.0,49,3331.0,square2,j,0.0899,1,V,12.0
V12,75.0,72.0,51.0,56.0,46.0,51,3382.0,square2,j,0.0963,1,V,12.0
V12,76.0,72.0,48.0,58.0,43.0,48,3430.0,square2,j,0.1798,1,V,12.0
V12,77.0,74.0,57.0,59.0,44.0,57,3487.0,square2,j,1.0722,1,V,12.0
V12,78.0,69.0,55.0,63.0,50.0,55,3542.0,square2,j,0.0304,1,V,12.0
V12,79.0,73.0,53.0,58.0,43.0,43,3585.0,square4,r,0.0661,3,V,12.0
V12,80.0,71.0,47.0,65.0,40.0,71,3656.0,square1,f,0.1902,0,V,12.0
V12,81.0,66.0,49.0,57.0,40.0,57,3713.0,square3,i,0.1135,2,V,12.0
V12,82.0,71.0,53.0,57.0,48.0,71,3784.0,square1,f,0.1065,0,V,12.0
V12,83.0,70.0,50.0,56.0,49.0,70,3854.0,square1,f,0.0634,0,V,12.0
V12,84.0,69.0,45.0,64.0,43.0,69,3923.0,square1,f,0.1471,0,V,12.0
V12,85.0,64.0,48.0,54.0,42.0,64,3987.0,square1,f,0.0712,0,V,12.0
V12,86.0,71.0,49.0,63.0,44.0,71,4058.0,square1,f,0.0309,0,V,12.0
V12,87.0,72.0,52.0,55.0,42.0,72,4130.0,square1,f,0.0007,0,V,12.0
V12,88.0,64.0,48.0,59.0,44.0,64,4194.0,square1,f,0.2728,0,V,12.0
V12,89.0,69.0,48.0,62.0,45.0,69,4263.0,square1,f,0.0007,0,V,12.0
V12,90.0,68.0,56.0,60.0,42.0,68,4331.0,square1,f,0.1142,0,V,12.0
V12,91.0,69.0,52.0,62.0,45.0,69,4400.0,square1,f,0.0812,0,V,12.0
V12,92.0,65.0,50.0,64.0,47.0,65,4465.0,square1,f,0.1305,0,V,12.0
V12,93.0,68.0,51.0,62.0,43.0,68,4533.0,square1,f,0.025,0,V,12.0
V12,94.0,68.0,52.0,60.0,38.0,68,4601.0,square1,f,0.0007,0,V,12.0
V12,95.0,71.0,52.0,58.0,47.0,71,4672.0,square1,f,0.0009,0,V,12.0
V12,96.0,66.0,49.0,59.0,44.0,66,4738.0,square1,f,0.1,0,V,12.0
V12,97.0,74.0,47.0,54.0,47.0,74,4812.0,square1,f,0.0151,0,V,12.0
V12,98.0,68.0,43.0,64.0,41.0,68,4880.0,square1,f,0.0305,0,V,12.0
V12,99.0,71.0,53.0,62.0,44.0,99999,4880.0,invalid,,,-1,V,12.0
