block,Trial,square1,square2,square3,square4,currPoints,totalPoints,square,choiceKey.keys,choiceKey.rt,armNum,blockType,blockNum
prac,0.0,100.0,0.0,0.0,0.0,0,0.0,square4,,,3,p,0.0
prac,1.0,100.0,0.0,0.0,0.0,0,0.0,square3,,,2,p,0.0
prac,2.0,100.0,0.0,0.0,0.0,0,0.0,square2,,,1,p,0.0
prac,3.0,100.0,0.0,0.0,0.0,100,100.0,square1,,,0,p,0.0
prac,4.0,100.0,0.0,0.0,0.0,0,100.0,square4,,,3,p,0.0
prac,5.0,100.0,0.0,0.0,0.0,0,100.0,square2,,,1,p,0.0
prac,6.0,100.0,0.0,0.0,0.0,0,100.0,square3,,,2,p,0.0
prac,7.0,100.0,0.0,0.0,0.0,100,200.0,square1,,,0,p,0.0
prac,8.0,100.0,0.0,0.0,0.0,0,200.0,square2,,,1,p,0.0
prac,9.0,100.0,0.0,0.0,0.0,100,300.0,square1,,,0,p,0.0
NS12,0.0,80.0,24.0,40.0,79.0,24,24.0,square2,r,0.534,1,N,12.0
NS12,1.0,78.0,28.0,44.0,78.0,78,102.0,square4,j,0.692,3,N,12.0
NS12,2.0,77.0,28.0,37.0,82.0,37,139.0,square3,i,0.331,2,N,12.0
NS12,3.0,76.0,33.0,39.0,82.0,33,172.0,square2,r,0.651,1,N,12.0
NS12,4.0,79.0,37.0,34.0,78.0,78,250.0,square4,j,0.176,3,N,12.0
NS12,5.0,83.0,33.0,28.0,81.0,81,331.0,square4,j,0.011,3,N,12.0
NS12,6.0,77.0,39.0,33.0,80.0,80,411.0,square4,j,0.761,3,N,12.0
NS12,7.0,77.0,40.0,25.0,85.0,77,488.0,square1,f,0.531,0,N,12.0
NS12,8.0,77.0,40.0,29.0,87.0,29,517.0,square3,i,0.686,2,N,12.0
NS12,9.0,70.0,42.0,29.0,88.0,42,559.0,square2,r,0.211,1,N,12.0
NS12,10.0,65.0,47.0,31.0,86.0,65,624.0,square1,f,0.518,0,N,12.0
NS12,11.0,67.0,46.0,26.0,84.0,84,708.0,square4,j,0.395,3,N,12.0
NS12,12.0,67.0,36.0,26.0,84.0,26,734.0,square3,i,0.433,2,N,12.0
NS12,13.0,69.0,33.0,23.0,82.0,69,803.0,square1,f,0.687,0,N,12.0
NS12,14.0,66.0,35.0,20.0,81.0,35,838.0,square2,r,0.963,1,N,12.0
NS12,15.0,66.0,30.0,23.0,78.0,66,904.0,square1,f,1.051,0,N,12.0
NS12,16.0,69.0,28.0,17.0,74.0,17,921.0,square3,i,1.046,2,N,12.0
NS12,17.0,66.0,32.0,20.0,78.0,66,987.0,square1,f,0.881,0,N,12.0
NS12,18.0,60.0,33.0,26.0,76.0,76,1063.0,square4,j,0.865,3,N,12.0
NS12,19.0,63.0,37.0,23.0,76.0,37,1100.0,square2,r,0.981,1,N,12.0
NS12,20.0,59.0,36.0,24.0,78.0,36,1136.0,square2,r,0.495,1,N,12.0
NS12,21.0,59.0,35.0,25.0,79.0,35,1171.0,square2,r,0.48,1,N,12.0
NS12,22.0,61.0,37.0,26.0,88.0,37,1208.0,square2,r,0.427,1,N,12.0
NS12,23.0,61.0,37.0,25.0,83.0,61,1269.0,square1,f,0.928,0,N,12.0
NS12,24.0,61.0,39.0,26.0,85.0,61,1330.0,square1,f,0.319,0,N,12.0
NS12,25.0,63.0,30.0,29.0,77.0,63,1393.0,square1,f,0.294,0,N,12.0
NS12,26.0,58.0,39.0,29.0,83.0,58,1451.0,square1,f,0.655,0,N,12.0
NS12,27.0,60.0,34.0,32.0,85.0,32,1483.0,square3,i,0.964,2,N,12.0
NS12,28.0,63.0,32.0,35.0,77.0,77,1560.0,square4,j,1.344,3,N,12.0
NS12,29.0,61.0,35.0,23.0,79.0,79,1639.0,square4,j,0.332,3,N,12.0
NS12,30.0,57.0,27.0,30.0,69.0,69,1708.0,square4,j,0.267,3,N,12.0
NS12,31.0,64.0,29.0,26.0,69.0,64,1772.0,square1,f,0.028,0,N,12.0
NS12,32.0,65.0,29.0,33.0,69.0,69,1841.0,square4,j,1.164,3,N,12.0
NS12,33.0,68.0,29.0,33.0,73.0,68,1909.0,square1,f,0.829,0,N,12.0
NS12,34.0,69.0,29.0,29.0,67.0,67,1976.0,square4,j,1.146,3,N,12.0
NS12,35.0,66.0,32.0,30.0,61.0,66,2042.0,square1,f,0.183,0,N,12.0
NS12,36.0,64.0,27.0,26.0,58.0,58,2100.0,square4,j,0.036,3,N,12.0
NS12,37.0,65.0,32.0,27.0,67.0,65,2165.0,square1,f,0.629,0,N,12.0
NS12,38.0,63.0,32.0,30.0,64.0,64,2229.0,square4,j,0.178,3,N,12.0
NS12,39.0,65.0,30.0,30.0,70.0,65,2294.0,square1,f,0.0,0,N,12.0
NS12,40.0,71.0,37.0,32.0,69.0,69,2363.0,square4,j,0.585,3,N,12.0
NS12,41.0,66.0,45.0,37.0,69.0,66,2429.0,square1,f,0.713,0,N,12.0
NS12,42.0,75.0,42.0,35.0,65.0,65,2494.0,square4,j,0.547,3,N,12.0
NS12,43.0,82.0,39.0,35.0,57.0,82,2576.0,square1,f,0.294,0,N,12.0
NS12,44.0,81.0,34.0,34.0,61.0,34,2610.0,square3,i,1.195,2,N,12.0
NS12,45.0,74.0,33.0,36.0,59.0,74,2684.0,square1,f,0.701,0,N,12.0
NS12,46.0,77.0,32.0,40.0,57.0,32,2716.0,square2,r,0.695,1,N,12.0
NS12,47.0,79.0,32.0,39.0,60.0,79,2795.0,square1,f,1.111,0,N,12.0
NS12,48.0,80.0,28.0,34.0,62.0,62,2857.0,square4,j,0.796,3,N,12.0
NS12,49.0,76.0,23.0,37.0,64.0,64,2921.0,square4,j,0.029,3,N,12.0
NS12,50.0,75.0,25.0,37.0,65.0,65,2986.0,square4,j,0.59,3,N,12.0
NS12,51.0,74.0,25.0,39.0,70.0,70,3056.0,square4,j,0.413,3,N,12.0
NS12,52.0,79.0,26.0,40.0,73.0,73,3129.0,square4,j,0.378,3,N,12.0
NS12,53.0,75.0,25.0,33.0,69.0,69,3198.0,square4,j,0.329,3,N,12.0
NS12,54.0,79.0,25.0,38.0,68.0,68,3266.0,square4,j,0.363,3,N,12.0
NS12,55.0,81.0,22.0,34.0,68.0,68,3334.0,square4,j,0.322,3,N,12.0
NS12,56.0,72.0,29.0,39.0,69.0,69,3403.0,square4,j,0.262,3,N,12.0
NS12,57.0,72.0,28.0,38.0,73.0,73,3476.0,square4,j,0.281,3,N,12.0
NS12,58.0,69.0,25.0,32.0,71.0,71,3547.0,square4,j,0.378,3,N,12.0
NS12,59.0,75.0,30.0,33.0,69.0,69,3616.0,square4,j,0.3,3,N,12.0
NS12,60.0,68.0,28.0,39.0,68.0,68,3684.0,square4,j,0.277,3,N,12.0
NS12,61.0,69.0,32.0,37.0,60.0,60,3744.0,square4,j,0.318,3,N,12.0
NS12,62.0,63.0,37.0,39.0,55.0,55,3799.0,square4,j,0.247,3,N,12.0
NS12,63.0,63.0,38.0,43.0,54.0,54,3853.0,square4,j,0.178,3,N,12.0
NS12,64.0,60.0,30.0,35.0,55.0,55,3908.0,square4,j,0.228,3,N,12.0
NS12,65.0,60.0,37.0,34.0,55.0,60,3968.0,square1,f,0.382,0,N,12.0
NS12,66.0,61.0,40.0,35.0,51.0,61,4029.0,square1,f,0.314,0,N,12.0
NS12,67.0,65.0,37.0,35.0,53.0,65,4094.0,square1,f,0.136,0,N,12.0
NS12,68.0,62.0,33.0,38.0,50.0,62,4156.0,square1,f,0.171,0,N,12.0
NS12,69.0,56.0,41.0,29.0,54.0,56,4212.0,square1,f,0.051,0,N,12.0
NS12,70.0,56.0,39.0,30.0,57.0,30,4242.0,square3,i,0.07,2,N,12.0
NS12,71.0,61.0,40.0,33.0,64.0,40,4282.0,square2,r,0.011,1,N,12.0
NS12,72.0,51.0,42.0,35.0,67.0,42,4324.0,square2,r,0.225,1,N,12.0
NS12,73.0,56.0,39.0,39.0,67.0,39,4363.0,square2,r,0.197,1,N,12.0
NS12,74.0,50.0,38.0,40.0,63.0,38,4401.0,square2,r,0.003,1,N,12.0
NS12,75.0,52.0,37.0,41.0,67.0,37,4438.0,square2,r,0.131,1,N,12.0
NS12,76.0,47.0,40.0,46.0,67.0,40,4478.0,square2,r,0.18,1,N,12.0
NS12,77.0,45.0,35.0,47.0,67.0,35,4513.0,square2,r,0.43,1,N,12.0
NS12,78.0,44.0,38.0,52.0,66.0,38,4551.0,square2,r,0.001,1,N,12.0
NS12,79.0,41.0,38.0,52.0,64.0,38,4589.0,square2,r,0.16,1,N,12.0
NS12,80.0,36.0,41.0,57.0,58.0,41,4630.0,square2,r,0.02,1,N,12.0
NS12,81.0,36.0,42.0,66.0,63.0,42,4672.0,square2,r,0.135,1,N,12.0
NS12,82.0,35.0,44.0,65.0,62.0,44,4716.0,square2,r,0.175,1,N,12.0
NS12,83.0,37.0,42.0,70.0,65.0,42,4758.0,square2,r,0.127,1,N,12.0
NS12,84.0,35.0,39.0,72.0,58.0,39,4797.0,square2,r,0.179,1,N,12.0
NS12,85.0,30.0,40.0,62.0,55.0,55,4852.0,square4,j,0.048,3,N,12.0
NS12,86.0,36.0,40.0,65.0,59.0,59,4911.0,square4,j,0.103,3,N,12.0
NS12,87.0,31.0,41.0,67.0,57.0,57,4968.0,square4,j,0.077,3,N,12.0
NS12,88.0,30.0,50.0,67.0,52.0,52,5020.0,square4,j,0.227,3,N,12.0
NS12,89.0,28.0,41.0,69.0,54.0,54,5074.0,square4,j,0.151,3,N,12.0
NS12,90.0,29.0,41.0,61.0,57.0,29,5103.0,square1,f,0.126,0,N,12.0
NS12,91.0,30.0,36.0,59.0,54.0,59,5162.0,square3,i,0.244,2,N,12.0
NS12,92.0,28.0,29.0,60.0,54.0,60,5222.0,square3,i,0.066,2,N,12.0
NS12,93.0,30.0,35.0,62.0,52.0,62,5284.0,square3,i,0.037,2,N,12.0
NS12,94.0,30.0,36.0,60.0,56.0,60,5344.0,square3,i,0.08,2,N,12.0
NS12,95.0,29.0,33.0,63.0,60.0,63,5407.0,square3,i,0.112,2,N,12.0
NS12,96.0,29.0,30.0,59.0,59.0,59,5466.0,square3,i,0.087,2,N,12.0
NS12,97.0,31.0,35.0,61.0,61.0,61,5527.0,square3,i,0.049,2,N,12.0
NS12,98.0,31.0,40.0,67.0,58.0,67,5594.0,square3,i,0.128,2,N,12.0
NS12,99.0,33.0,37.0,65.0,67.0,65,5659.0,square3,i,0.017,2,N,12.0
NS8,0.0,61.0,62.0,34.0,32.0,61,61.0,square1,r,0.951,0,N,8.0
NS8,1.0,57.0,56.0,38.0,27.0,38,99.0,square3,f,0.511,2,N,8.0
NS8,2.0,66.0,55.0,42.0,28.0,28,127.0,square4,i,0.054,3,N,8.0
NS8,3.0,67.0,51.0,37.0,28.0,51,178.0,square2,j,0.698,1,N,8.0
NS8,4.0,65.0,53.0,38.0,32.0,65,243.0,square1,r,0.635,0,N,8.0
NS8,5.0,67.0,52.0,43.0,33.0,67,310.0,square1,r,0.359,0,N,8.0
NS8,6.0,56.0,47.0,41.0,36.0,56,366.0,square1,r,0.308,0,N,8.0
NS8,7.0,58.0,46.0,37.0,31.0,46,412.0,square2,j,0.07,1,N,8.0
NS8,8.0,60.0,58.0,36.0,35.0,58,470.0,square2,j,0.003,1,N,8.0
NS8,9.0,60.0,66.0,41.0,39.0,66,536.0,square2,j,0.001,1,N,8.0
NS8,10.0,60.0,60.0,36.0,33.0,60,596.0,square2,j,0.212,1,N,8.0
NS8,11.0,53.0,63.0,32.0,35.0,63,659.0,square2,j,0.101,1,N,8.0
NS8,12.0,51.0,60.0,32.0,29.0,32,691.0,square3,f,0.163,2,N,8.0
NS8,13.0,53.0,65.0,30.0,32.0,30,721.0,square3,f,0.011,2,N,8.0
NS8,14.0,56.0,69.0,25.0,33.0,33,754.0,square4,i,0.218,3,N,8.0
NS8,15.0,57.0,71.0,29.0,35.0,35,789.0,square4,i,0.052,3,N,8.0
NS8,16.0,55.0,64.0,31.0,33.0,33,822.0,square4,i,0.15,3,N,8.0
NS8,17.0,48.0,65.0,29.0,32.0,48,870.0,square1,r,0.181,0,N,8.0
NS8,18.0,44.0,64.0,28.0,34.0,44,914.0,square1,r,0.243,0,N,8.0
NS8,19.0,46.0,60.0,26.0,33.0,46,960.0,square1,r,0.228,0,N,8.0
NS8,20.0,41.0,58.0,29.0,35.0,41,1001.0,square1,r,0.062,0,N,8.0
NS8,21.0,45.0,57.0,29.0,35.0,57,1058.0,square2,j,0.151,1,N,8.0
NS8,22.0,47.0,53.0,32.0,32.0,53,1111.0,square2,j,0.085,1,N,8.0
NS8,23.0,49.0,52.0,33.0,35.0,52,1163.0,square2,j,0.052,1,N,8.0
NS8,24.0,56.0,53.0,30.0,37.0,53,1216.0,square2,j,0.18,1,N,8.0
NS8,25.0,57.0,48.0,28.0,42.0,28,1244.0,square3,f,0.0,2,N,8.0
NS8,26.0,52.0,48.0,33.0,43.0,43,1287.0,square4,i,0.051,3,N,8.0
NS8,27.0,53.0,45.0,28.0,47.0,47,1334.0,square4,i,0.078,3,N,8.0
NS8,28.0,50.0,43.0,27.0,41.0,41,1375.0,square4,i,0.095,3,N,8.0
NS8,29.0,53.0,52.0,29.0,43.0,43,1418.0,square4,i,0.15,3,N,8.0
NS8,30.0,54.0,51.0,30.0,41.0,41,1459.0,square4,i,0.096,3,N,8.0
NS8,31.0,50.0,50.0,31.0,42.0,42,1501.0,square4,i,0.012,3,N,8.0
NS8,32.0,50.0,50.0,35.0,43.0,43,1544.0,square4,i,0.154,3,N,8.0
NS8,33.0,46.0,48.0,39.0,41.0,41,1585.0,square4,i,0.028,3,N,8.0
NS8,34.0,47.0,46.0,41.0,40.0,40,1625.0,square4,i,0.079,3,N,8.0
NS8,35.0,57.0,45.0,36.0,37.0,57,1682.0,square1,r,0.197,0,N,8.0
NS8,36.0,53.0,49.0,41.0,38.0,53,1735.0,square1,r,0.144,0,N,8.0
NS8,37.0,57.0,50.0,41.0,39.0,57,1792.0,square1,r,0.08,0,N,8.0
NS8,38.0,61.0,51.0,39.0,43.0,61,1853.0,square1,r,0.091,0,N,8.0
NS8,39.0,59.0,54.0,41.0,36.0,59,1912.0,square1,r,0.039,0,N,8.0
NS8,40.0,53.0,55.0,47.0,40.0,53,1965.0,square1,r,0.103,0,N,8.0
NS8,41.0,53.0,55.0,43.0,39.0,53,2018.0,square1,r,0.136,0,N,8.0
NS8,42.0,59.0,55.0,45.0,40.0,55,2073.0,square2,j,0.0,1,N,8.0
NS8,43.0,54.0,46.0,51.0,37.0,46,2119.0,square2,j,0.061,1,N,8.0
NS8,44.0,56.0,44.0,50.0,35.0,44,2163.0,square2,j,0.115,1,N,8.0
NS8,45.0,51.0,46.0,41.0,37.0,51,2214.0,square1,r,0.018,0,N,8.0
NS8,46.0,52.0,43.0,44.0,34.0,52,2266.0,square1,r,0.135,0,N,8.0
NS8,47.0,46.0,41.0,36.0,37.0,46,2312.0,square1,r,0.144,0,N,8.0
NS8,48.0,47.0,46.0,39.0,37.0,47,2359.0,square1,r,0.195,0,N,8.0
NS8,49.0,48.0,36.0,38.0,40.0,48,2407.0,square1,r,0.151,0,N,8.0
NS8,50.0,51.0,37.0,36.0,46.0,51,2458.0,square1,r,0.135,0,N,8.0
NS8,51.0,53.0,38.0,40.0,43.0,53,2511.0,square1,r,0.011,0,N,8.0
NS8,52.0,47.0,32.0,37.0,44.0,47,2558.0,square1,r,0.179,0,N,8.0
NS8,53.0,52.0,31.0,38.0,46.0,52,2610.0,square1,r,0.039,0,N,8.0
NS8,54.0,44.0,34.0,40.0,45.0,44,2654.0,square1,r,0.001,0,N,8.0
NS8,55.0,46.0,26.0,37.0,41.0,26,2680.0,square2,j,0.054,1,N,8.0
NS8,56.0,42.0,29.0,36.0,40.0,42,2722.0,square1,r,0.147,0,N,8.0
NS8,57.0,39.0,21.0,39.0,40.0,39,2761.0,square3,f,0.032,2,N,8.0
NS8,58.0,42.0,18.0,39.0,40.0,39,2800.0,square3,f,0.202,2,N,8.0
NS8,59.0,46.0,16.0,41.0,39.0,41,2841.0,square3,f,0.017,2,N,8.0
NS8,60.0,45.0,20.0,40.0,39.0,39,2880.0,square4,i,0.054,3,N,8.0
NS8,61.0,45.0,26.0,42.0,39.0,39,2919.0,square4,i,0.074,3,N,8.0
NS8,62.0,46.0,21.0,45.0,37.0,46,2965.0,square1,r,0.104,0,N,8.0
NS8,63.0,50.0,23.0,40.0,38.0,50,3015.0,square1,r,0.151,0,N,8.0
NS8,64.0,46.0,24.0,41.0,33.0,46,3061.0,square1,r,0.0,0,N,8.0
NS8,65.0,48.0,28.0,42.0,32.0,48,3109.0,square1,r,0.203,0,N,8.0
NS8,66.0,47.0,20.0,40.0,35.0,47,3156.0,square1,r,0.046,0,N,8.0
NS8,67.0,49.0,25.0,46.0,34.0,49,3205.0,square1,r,0.013,0,N,8.0
NS8,68.0,47.0,24.0,45.0,33.0,24,3229.0,square2,j,0.112,1,N,8.0
NS8,69.0,45.0,21.0,47.0,35.0,45,3274.0,square1,r,0.085,0,N,8.0
NS8,70.0,44.0,21.0,47.0,37.0,44,3318.0,square1,r,0.149,0,N,8.0
NS8,71.0,44.0,15.0,41.0,38.0,41,3359.0,square3,f,0.161,2,N,8.0
NS8,72.0,47.0,19.0,49.0,40.0,49,3408.0,square3,f,0.138,2,N,8.0
NS8,73.0,39.0,21.0,53.0,38.0,53,3461.0,square3,f,0.184,2,N,8.0
NS8,74.0,42.0,19.0,53.0,35.0,53,3514.0,square3,f,0.017,2,N,8.0
NS8,75.0,37.0,18.0,43.0,35.0,43,3557.0,square3,f,0.003,2,N,8.0
NS8,76.0,35.0,14.0,42.0,38.0,42,3599.0,square3,f,0.0,2,N,8.0
NS8,77.0,38.0,19.0,47.0,44.0,47,3646.0,square3,f,0.195,2,N,8.0
NS8,78.0,38.0,18.0,50.0,46.0,50,3696.0,square3,f,0.194,2,N,8.0
NS8,79.0,33.0,22.0,54.0,44.0,54,3750.0,square3,f,0.029,2,N,8.0
NS8,80.0,38.0,21.0,56.0,52.0,56,3806.0,square3,f,0.019,2,N,8.0
NS8,81.0,37.0,22.0,56.0,43.0,56,3862.0,square3,f,0.011,2,N,8.0
NS8,82.0,30.0,26.0,60.0,42.0,60,3922.0,square3,f,0.014,2,N,8.0
NS8,83.0,38.0,22.0,54.0,46.0,54,3976.0,square3,f,0.048,2,N,8.0
NS8,84.0,33.0,18.0,52.0,46.0,52,4028.0,square3,f,0.001,2,N,8.0
NS8,85.0,42.0,12.0,57.0,48.0,57,4085.0,square3,f,0.029,2,N,8.0
NS8,86.0,45.0,19.0,58.0,42.0,58,4143.0,square3,f,0.011,2,N,8.0
NS8,87.0,46.0,10.0,65.0,44.0,65,4208.0,square3,f,0.086,2,N,8.0
NS8,88.0,45.0,11.0,59.0,45.0,59,4267.0,square3,f,0.245,2,N,8.0
NS8,89.0,42.0,11.0,60.0,47.0,60,4327.0,square3,f,0.198,2,N,8.0
NS8,90.0,40.0,7.0,64.0,49.0,64,4391.0,square3,f,0.004,2,N,8.0
NS8,91.0,42.0,11.0,64.0,48.0,64,4455.0,square3,f,0.104,2,N,8.0
NS8,92.0,43.0,13.0,60.0,43.0,60,4515.0,square3,f,0.096,2,N,8.0
NS8,93.0,44.0,12.0,64.0,45.0,64,4579.0,square3,f,0.077,2,N,8.0
NS8,94.0,45.0,16.0,65.0,49.0,65,4644.0,square3,f,0.115,2,N,8.0
NS8,95.0,45.0,24.0,66.0,42.0,42,4686.0,square4,i,0.146,3,N,8.0
NS8,96.0,53.0,27.0,67.0,44.0,53,4739.0,square1,r,0.129,0,N,8.0
NS8,97.0,50.0,29.0,68.0,43.0,50,4789.0,square1,r,0.111,0,N,8.0
NS8,98.0,52.0,29.0,66.0,37.0,52,4841.0,square1,r,0.134,0,N,8.0
NS8,99.0,53.0,32.0,65.0,37.0,32,4873.0,square2,j,0.177,1,N,8.0
NS1,0.0,60.0,65.0,21.0,53.0,65,65.0,square2,r,0.639,1,N,1.0
NS1,1.0,56.0,62.0,31.0,51.0,62,127.0,square2,r,0.07,1,N,1.0
NS1,2.0,58.0,62.0,24.0,57.0,62,189.0,square2,r,0.115,1,N,1.0
NS1,3.0,56.0,58.0,33.0,58.0,56,245.0,square1,i,0.063,0,N,1.0
NS1,4.0,60.0,58.0,32.0,58.0,60,305.0,square1,i,0.055,0,N,1.0
NS1,5.0,56.0,59.0,31.0,54.0,56,361.0,square1,i,0.014,0,N,1.0
NS1,6.0,58.0,57.0,37.0,56.0,58,419.0,square1,i,0.03,0,N,1.0
NS1,7.0,57.0,53.0,37.0,57.0,57,476.0,square4,f,0.098,3,N,1.0
NS1,8.0,58.0,57.0,37.0,54.0,54,530.0,square4,f,0.043,3,N,1.0
NS1,9.0,53.0,50.0,36.0,55.0,55,585.0,square4,f,0.097,3,N,1.0
NS1,10.0,58.0,47.0,32.0,53.0,53,638.0,square4,f,0.131,3,N,1.0
NS1,11.0,55.0,44.0,34.0,53.0,34,672.0,square3,j,0.063,2,N,1.0
NS1,12.0,56.0,44.0,30.0,45.0,30,702.0,square3,j,0.058,2,N,1.0
NS1,13.0,60.0,47.0,34.0,48.0,34,736.0,square3,j,0.093,2,N,1.0
NS1,14.0,54.0,48.0,37.0,54.0,37,773.0,square3,j,0.118,2,N,1.0
NS1,15.0,53.0,44.0,35.0,51.0,35,808.0,square3,j,0.101,2,N,1.0
NS1,16.0,50.0,50.0,35.0,43.0,35,843.0,square3,j,0.151,2,N,1.0
NS1,17.0,53.0,46.0,35.0,44.0,35,878.0,square3,j,0.045,2,N,1.0
NS1,18.0,54.0,51.0,42.0,48.0,54,932.0,square1,i,0.099,0,N,1.0
NS1,19.0,62.0,51.0,44.0,53.0,62,994.0,square1,i,0.134,0,N,1.0
NS1,20.0,63.0,47.0,42.0,47.0,63,1057.0,square1,i,0.127,0,N,1.0
NS1,21.0,67.0,51.0,41.0,46.0,67,1124.0,square1,i,0.0,0,N,1.0
NS1,22.0,75.0,44.0,45.0,43.0,75,1199.0,square1,i,0.045,0,N,1.0
NS1,23.0,64.0,42.0,41.0,47.0,64,1263.0,square1,i,0.087,0,N,1.0
NS1,24.0,68.0,41.0,39.0,49.0,68,1331.0,square1,i,0.058,0,N,1.0
NS1,25.0,71.0,43.0,33.0,42.0,71,1402.0,square1,i,0.027,0,N,1.0
NS1,26.0,70.0,41.0,26.0,45.0,70,1472.0,square1,i,0.102,0,N,1.0
NS1,27.0,72.0,42.0,34.0,48.0,72,1544.0,square1,i,0.014,0,N,1.0
NS1,28.0,71.0,41.0,33.0,45.0,71,1615.0,square1,i,0.011,0,N,1.0
NS1,29.0,77.0,42.0,31.0,48.0,77,1692.0,square1,i,0.014,0,N,1.0
NS1,30.0,73.0,41.0,33.0,51.0,73,1765.0,square1,i,0.035,0,N,1.0
NS1,31.0,71.0,44.0,35.0,48.0,71,1836.0,square1,i,0.07,0,N,1.0
NS1,32.0,81.0,47.0,33.0,50.0,81,1917.0,square1,i,0.011,0,N,1.0
NS1,33.0,75.0,50.0,27.0,42.0,75,1992.0,square1,i,0.004,0,N,1.0
NS1,34.0,71.0,49.0,27.0,44.0,71,2063.0,square1,i,0.13,0,N,1.0
NS1,35.0,69.0,47.0,23.0,47.0,69,2132.0,square1,i,0.072,0,N,1.0
NS1,36.0,71.0,50.0,32.0,45.0,71,2203.0,square1,i,0.013,0,N,1.0
NS1,37.0,66.0,48.0,33.0,52.0,66,2269.0,square1,i,0.092,0,N,1.0
NS1,38.0,64.0,50.0,34.0,51.0,64,2333.0,square1,i,0.034,0,N,1.0
NS1,39.0,65.0,49.0,25.0,47.0,65,2398.0,square1,i,0.017,0,N,1.0
NS1,40.0,66.0,46.0,23.0,50.0,66,2464.0,square1,i,0.08,0,N,1.0
NS1,41.0,68.0,45.0,22.0,50.0,68,2532.0,square1,i,0.078,0,N,1.0
NS1,42.0,74.0,41.0,28.0,50.0,74,2606.0,square1,i,0.094,0,N,1.0
NS1,43.0,69.0,42.0,27.0,52.0,69,2675.0,square1,i,0.067,0,N,1.0
NS1,44.0,71.0,38.0,32.0,49.0,71,2746.0,square1,i,0.045,0,N,1.0
NS1,45.0,68.0,38.0,30.0,55.0,68,2814.0,square1,i,0.027,0,N,1.0
NS1,46.0,66.0,39.0,30.0,56.0,66,2880.0,square1,i,0.013,0,N,1.0
NS1,47.0,62.0,35.0,31.0,50.0,62,2942.0,square1,i,0.063,0,N,1.0
NS1,48.0,68.0,31.0,32.0,49.0,31,2973.0,square2,r,0.062,1,N,1.0
NS1,49.0,66.0,33.0,35.0,46.0,33,3006.0,square2,r,0.112,1,N,1.0
NS1,50.0,64.0,30.0,32.0,46.0,46,3052.0,square4,f,0.211,3,N,1.0
NS1,51.0,66.0,35.0,39.0,43.0,39,3091.0,square3,j,0.119,2,N,1.0
NS1,52.0,67.0,33.0,37.0,49.0,67,3158.0,square1,i,0.049,0,N,1.0
NS1,53.0,70.0,32.0,35.0,47.0,70,3228.0,square1,i,0.039,0,N,1.0
NS1,54.0,62.0,40.0,28.0,43.0,62,3290.0,square1,i,0.0,0,N,1.0
NS1,55.0,66.0,39.0,26.0,43.0,66,3356.0,square1,i,0.0,0,N,1.0
NS1,56.0,64.0,38.0,26.0,44.0,64,3420.0,square1,i,0.079,0,N,1.0
NS1,57.0,63.0,41.0,24.0,48.0,63,3483.0,square1,i,0.03,0,N,1.0
NS1,58.0,67.0,49.0,24.0,48.0,67,3550.0,square1,i,0.101,0,N,1.0
NS1,59.0,57.0,51.0,27.0,43.0,57,3607.0,square1,i,0.12,0,N,1.0
NS1,60.0,56.0,51.0,31.0,42.0,56,3663.0,square1,i,0.093,0,N,1.0
NS1,61.0,55.0,50.0,25.0,49.0,55,3718.0,square1,i,0.069,0,N,1.0
NS1,62.0,55.0,51.0,27.0,50.0,55,3773.0,square1,i,0.18,0,N,1.0
NS1,63.0,53.0,51.0,27.0,50.0,53,3826.0,square1,i,0.122,0,N,1.0
NS1,64.0,53.0,56.0,27.0,50.0,53,3879.0,square1,i,0.101,0,N,1.0
NS1,65.0,49.0,56.0,26.0,49.0,49,3928.0,square1,i,0.115,0,N,1.0
NS1,66.0,47.0,61.0,29.0,50.0,61,3989.0,square2,r,0.039,1,N,1.0
NS1,67.0,47.0,56.0,27.0,50.0,56,4045.0,square2,r,0.101,1,N,1.0
NS1,68.0,47.0,64.0,29.0,48.0,64,4109.0,square2,r,0.083,1,N,1.0
NS1,69.0,54.0,67.0,24.0,53.0,67,4176.0,square2,r,0.132,1,N,1.0
NS1,70.0,44.0,70.0,21.0,48.0,70,4246.0,square2,r,0.15,1,N,1.0
NS1,71.0,45.0,67.0,26.0,52.0,67,4313.0,square2,r,0.147,1,N,1.0
NS1,72.0,44.0,64.0,22.0,49.0,22,4335.0,square3,j,0.084,2,N,1.0
NS1,73.0,43.0,60.0,23.0,51.0,51,4386.0,square4,f,0.221,3,N,1.0
NS1,74.0,47.0,59.0,26.0,57.0,59,4445.0,square2,r,0.062,1,N,1.0
NS1,75.0,44.0,56.0,27.0,51.0,56,4501.0,square2,r,0.0,1,N,1.0
NS1,76.0,34.0,55.0,21.0,52.0,55,4556.0,square2,r,0.145,1,N,1.0
NS1,77.0,39.0,64.0,17.0,55.0,64,4620.0,square2,r,0.001,1,N,1.0
NS1,78.0,38.0,64.0,25.0,52.0,64,4684.0,square2,r,0.231,1,N,1.0
NS1,79.0,40.0,65.0,24.0,54.0,65,4749.0,square2,r,0.046,1,N,1.0
NS1,80.0,44.0,66.0,21.0,53.0,66,4815.0,square2,r,0.119,1,N,1.0
NS1,81.0,50.0,60.0,27.0,54.0,60,4875.0,square2,r,0.096,1,N,1.0
NS1,82.0,43.0,62.0,20.0,57.0,62,4937.0,square2,r,0.203,1,N,1.0
NS1,83.0,44.0,55.0,24.0,59.0,55,4992.0,square2,r,0.078,1,N,1.0
NS1,84.0,41.0,51.0,28.0,61.0,51,5043.0,square2,r,0.103,1,N,1.0
NS1,85.0,49.0,49.0,29.0,70.0,49,5092.0,square2,r,0.001,1,N,1.0
NS1,86.0,47.0,44.0,26.0,66.0,66,5158.0,square4,f,0.052,3,N,1.0
NS1,87.0,48.0,48.0,23.0,68.0,68,5226.0,square4,f,0.086,3,N,1.0
NS1,88.0,46.0,51.0,20.0,70.0,70,5296.0,square4,f,0.096,3,N,1.0
NS1,89.0,45.0,50.0,17.0,75.0,75,5371.0,square4,f,0.101,3,N,1.0
NS1,90.0,50.0,48.0,18.0,74.0,74,5445.0,square4,f,0.069,3,N,1.0
NS1,91.0,46.0,53.0,17.0,67.0,67,5512.0,square4,f,0.099,3,N,1.0
NS1,92.0,38.0,56.0,22.0,65.0,65,5577.0,square4,f,0.179,3,N,1.0
NS1,93.0,38.0,53.0,22.0,66.0,66,5643.0,square4,f,0.198,3,N,1.0
NS1,94.0,42.0,49.0,24.0,72.0,72,5715.0,square4,f,0.097,3,N,1.0
NS1,95.0,44.0,48.0,25.0,70.0,44,5759.0,square1,i,0.162,0,N,1.0
NS1,96.0,35.0,50.0,21.0,67.0,67,5826.0,square4,f,0.116,3,N,1.0
NS1,97.0,43.0,55.0,16.0,72.0,72,5898.0,square4,f,0.044,3,N,1.0
NS1,98.0,46.0,50.0,21.0,73.0,73,5971.0,square4,f,0.063,3,N,1.0
NS1,99.0,43.0,46.0,27.0,71.0,99999,5971.0,invalid,,,-1,N,1.0
V3,0.0,62.0,45.0,70.0,53.0,62,62.0,square1,r,0.419,0,V,3.0
V3,1.0,63.0,47.0,76.0,60.0,63,125.0,square1,r,0.142,0,V,3.0
V3,2.0,65.0,54.0,73.0,57.0,57,182.0,square4,i,0.119,3,V,3.0
V3,3.0,68.0,51.0,71.0,51.0,71,253.0,square3,f,0.167,2,V,3.0
V3,4.0,61.0,49.0,75.0,53.0,75,328.0,square3,f,0.016,2,V,3.0
V3,5.0,65.0,47.0,74.0,50.0,74,402.0,square3,f,0.011,2,V,3.0
V3,6.0,61.0,51.0,72.0,57.0,72,474.0,square3,f,0.094,2,V,3.0
V3,7.0,67.0,49.0,75.0,55.0,49,523.0,square2,j,0.095,1,V,3.0
V3,8.0,64.0,48.0,76.0,56.0,76,599.0,square3,f,0.146,2,V,3.0
V3,9.0,67.0,49.0,71.0,56.0,71,670.0,square3,f,0.076,2,V,3.0
V3,10.0,65.0,50.0,71.0,56.0,71,741.0,square3,f,0.071,2,V,3.0
V3,11.0,63.0,43.0,78.0,58.0,78,819.0,square3,f,0.129,2,V,3.0
V3,12.0,66.0,53.0,73.0,54.0,73,892.0,square3,f,0.001,2,V,3.0
V3,13.0,64.0,46.0,78.0,51.0,78,970.0,square3,f,0.168,2,V,3.0
V3,14.0,67.0,51.0,71.0,58.0,71,1041.0,square3,f,0.028,2,V,3.0
V3,15.0,61.0,50.0,73.0,54.0,73,1114.0,square3,f,0.195,2,V,3.0
V3,16.0,64.0,52.0,74.0,54.0,74,1188.0,square3,f,0.18,2,V,3.0
V3,17.0,61.0,48.0,74.0,55.0,74,1262.0,square3,f,0.147,2,V,3.0
V3,18.0,65.0,50.0,70.0,59.0,70,1332.0,square3,f,0.068,2,V,3.0
V3,19.0,64.0,52.0,76.0,56.0,76,1408.0,square3,f,0.012,2,V,3.0
V3,20.0,64.0,50.0,69.0,58.0,69,1477.0,square3,f,0.211,2,V,3.0
V3,21.0,66.0,50.0,72.0,56.0,56,1533.0,square4,i,0.136,3,V,3.0
V3,22.0,43.0,48.0,40.0,62.0,43,1576.0,square1,r,0.06,0,V,3.0
V3,23.0,41.0,51.0,35.0,59.0,35,1611.0,square3,f,0.112,2,V,3.0
V3,24.0,51.0,51.0,37.0,60.0,60,1671.0,square4,i,0.112,3,V,3.0
V3,25.0,45.0,53.0,36.0,57.0,53,1724.0,square2,j,0.047,1,V,3.0
V3,26.0,44.0,51.0,38.0,59.0,59,1783.0,square4,i,0.014,3,V,3.0
V3,27.0,43.0,51.0,34.0,66.0,66,1849.0,square4,i,0.121,3,V,3.0
V3,28.0,47.0,51.0,40.0,67.0,67,1916.0,square4,i,0.028,3,V,3.0
V3,29.0,42.0,55.0,35.0,65.0,65,1981.0,square4,i,0.094,3,V,3.0
V3,30.0,49.0,54.0,36.0,62.0,62,2043.0,square4,i,0.029,3,V,3.0
V3,31.0,50.0,53.0,42.0,66.0,66,2109.0,square4,i,0.063,3,V,3.0
V3,32.0,47.0,53.0,34.0,58.0,58,2167.0,square4,i,0.044,3,V,3.0
V3,33.0,45.0,56.0,34.0,62.0,62,2229.0,square4,i,0.148,3,V,3.0
V3,34.0,48.0,54.0,38.0,64.0,64,2293.0,square4,i,0.114,3,V,3.0
V3,35.0,39.0,55.0,42.0,65.0,65,2358.0,square4,i,0.134,3,V,3.0
V3,36.0,46.0,57.0,41.0,63.0,63,2421.0,square4,i,0.149,3,V,3.0
V3,37.0,43.0,54.0,41.0,65.0,65,2486.0,square4,i,0.118,3,V,3.0
V3,38.0,47.0,52.0,37.0,63.0,37,2523.0,square3,f,0.114,2,V,3.0
V3,39.0,47.0,53.0,38.0,55.0,53,2576.0,square2,j,0.052,1,V,3.0
V3,40.0,41.0,54.0,39.0,64.0,41,2617.0,square1,r,0.118,0,V,3.0
V3,41.0,48.0,52.0,38.0,64.0,64,2681.0,square4,i,0.046,3,V,3.0
V3,42.0,45.0,50.0,34.0,63.0,63,2744.0,square4,i,0.112,3,V,3.0
V3,43.0,44.0,50.0,34.0,62.0,62,2806.0,square4,i,0.144,3,V,3.0
V3,44.0,47.0,55.0,39.0,65.0,65,2871.0,square4,i,0.001,3,V,3.0
V3,45.0,45.0,55.0,31.0,63.0,63,2934.0,square4,i,0.014,3,V,3.0
V3,46.0,42.0,52.0,38.0,64.0,64,2998.0,square4,i,0.019,3,V,3.0
V3,47.0,44.0,53.0,37.0,55.0,55,3053.0,square4,i,0.012,3,V,3.0
V3,48.0,44.0,49.0,37.0,58.0,37,3090.0,square3,f,0.049,2,V,3.0
V3,49.0,48.0,58.0,35.0,54.0,58,3148.0,square2,j,0.046,1,V,3.0
V3,50.0,42.0,28.0,30.0,52.0,42,3190.0,square1,r,0.146,0,V,3.0
V3,51.0,46.0,29.0,32.0,51.0,29,3219.0,square2,j,0.103,1,V,3.0
V3,52.0,37.0,20.0,36.0,50.0,50,3269.0,square4,i,0.118,3,V,3.0
V3,53.0,44.0,22.0,34.0,55.0,34,3303.0,square3,f,0.06,2,V,3.0
V3,54.0,37.0,27.0,26.0,50.0,37,3340.0,square1,r,0.093,0,V,3.0
V3,55.0,41.0,21.0,39.0,53.0,53,3393.0,square4,i,0.032,3,V,3.0
V3,56.0,40.0,20.0,38.0,51.0,51,3444.0,square4,i,0.116,3,V,3.0
V3,57.0,44.0,28.0,31.0,57.0,57,3501.0,square4,i,0.03,3,V,3.0
V3,58.0,46.0,20.0,28.0,49.0,49,3550.0,square4,i,0.027,3,V,3.0
V3,59.0,44.0,24.0,30.0,55.0,55,3605.0,square4,i,0.029,3,V,3.0
V3,60.0,42.0,29.0,29.0,51.0,51,3656.0,square4,i,0.163,3,V,3.0
V3,61.0,41.0,21.0,30.0,46.0,21,3677.0,square2,j,0.048,1,V,3.0
V3,62.0,41.0,27.0,31.0,49.0,31,3708.0,square3,f,0.027,2,V,3.0
V3,63.0,42.0,27.0,34.0,51.0,42,3750.0,square1,r,0.06,0,V,3.0
V3,64.0,41.0,24.0,30.0,47.0,47,3797.0,square4,i,0.001,3,V,3.0
V3,65.0,36.0,18.0,34.0,48.0,48,3845.0,square4,i,0.003,3,V,3.0
V3,66.0,39.0,28.0,35.0,45.0,45,3890.0,square4,i,0.165,3,V,3.0
V3,67.0,42.0,21.0,32.0,46.0,46,3936.0,square4,i,0.031,3,V,3.0
V3,68.0,40.0,24.0,35.0,53.0,53,3989.0,square4,i,0.145,3,V,3.0
V3,69.0,48.0,23.0,34.0,50.0,48,4037.0,square1,r,0.114,0,V,3.0
V3,70.0,40.0,27.0,31.0,49.0,49,4086.0,square4,i,0.05,3,V,3.0
V3,71.0,41.0,23.0,28.0,51.0,41,4127.0,square1,r,0.061,0,V,3.0
V3,72.0,42.0,25.0,33.0,55.0,42,4169.0,square1,r,0.151,0,V,3.0
V3,73.0,41.0,24.0,35.0,55.0,41,4210.0,square1,r,0.182,0,V,3.0
V3,74.0,38.0,26.0,28.0,53.0,38,4248.0,square1,r,0.179,0,V,3.0
V3,75.0,54.0,39.0,69.0,50.0,69,4317.0,square3,f,0.161,2,V,3.0
V3,76.0,55.0,42.0,64.0,53.0,64,4381.0,square3,f,0.211,2,V,3.0
V3,77.0,59.0,37.0,66.0,44.0,66,4447.0,square3,f,0.133,2,V,3.0
V3,78.0,58.0,38.0,60.0,46.0,60,4507.0,square3,f,0.048,2,V,3.0
V3,79.0,54.0,35.0,66.0,49.0,66,4573.0,square3,f,0.079,2,V,3.0
V3,80.0,60.0,36.0,68.0,44.0,68,4641.0,square3,f,0.197,2,V,3.0
V3,81.0,55.0,38.0,66.0,51.0,38,4679.0,square2,j,0.179,1,V,3.0
V3,82.0,57.0,47.0,64.0,50.0,64,4743.0,square3,f,0.026,2,V,3.0
V3,83.0,57.0,37.0,63.0,45.0,63,4806.0,square3,f,0.228,2,V,3.0
V3,84.0,54.0,40.0,65.0,53.0,53,4859.0,square4,i,0.015,3,V,3.0
V3,85.0,58.0,41.0,63.0,48.0,63,4922.0,square3,f,0.147,2,V,3.0
V3,86.0,53.0,38.0,57.0,49.0,57,4979.0,square3,f,0.028,2,V,3.0
V3,87.0,49.0,42.0,60.0,43.0,60,5039.0,square3,f,0.001,2,V,3.0
V3,88.0,56.0,35.0,70.0,46.0,70,5109.0,square3,f,0.219,2,V,3.0
V3,89.0,58.0,39.0,63.0,52.0,63,5172.0,square3,f,0.0,2,V,3.0
V3,90.0,59.0,43.0,63.0,45.0,63,5235.0,square3,f,0.414,2,V,3.0
V3,91.0,54.0,37.0,69.0,49.0,69,5304.0,square3,f,0.361,2,V,3.0
V3,92.0,56.0,41.0,61.0,47.0,61,5365.0,square3,f,0.529,2,V,3.0
V3,93.0,58.0,35.0,68.0,47.0,68,5433.0,square3,f,0.045,2,V,3.0
V3,94.0,61.0,37.0,67.0,51.0,67,5500.0,square3,f,0.052,2,V,3.0
V3,95.0,57.0,32.0,64.0,47.0,64,5564.0,square3,f,0.265,2,V,3.0
V3,96.0,53.0,38.0,63.0,48.0,63,5627.0,square3,f,0.079,2,V,3.0
V3,97.0,57.0,44.0,71.0,50.0,71,5698.0,square3,f,0.096,2,V,3.0
V3,98.0,56.0,39.0,70.0,47.0,70,5768.0,square3,f,0.001,2,V,3.0
V3,99.0,62.0,40.0,67.0,49.0,67,5835.0,square3,f,0.094,2,V,3.0
V9,0.0,20.0,29.0,37.0,45.0,29,29.0,square2,r,0.385,1,V,9.0
V9,1.0,21.0,32.0,39.0,45.0,21,50.0,square1,i,0.13,0,V,9.0
V9,2.0,16.0,27.0,41.0,48.0,48,98.0,square4,f,0.121,3,V,9.0
V9,3.0,20.0,30.0,42.0,50.0,42,140.0,square3,j,0.145,2,V,9.0
V9,4.0,22.0,34.0,37.0,47.0,47,187.0,square4,f,0.104,3,V,9.0
V9,5.0,17.0,32.0,38.0,49.0,49,236.0,square4,f,0.053,3,V,9.0
V9,6.0,17.0,25.0,39.0,47.0,47,283.0,square4,f,0.081,3,V,9.0
V9,7.0,22.0,28.0,33.0,48.0,48,331.0,square4,f,0.118,3,V,9.0
V9,8.0,20.0,24.0,34.0,41.0,41,372.0,square4,f,0.198,3,V,9.0
V9,9.0,20.0,33.0,30.0,51.0,30,402.0,square3,j,0.143,2,V,9.0
V9,10.0,21.0,35.0,38.0,50.0,21,423.0,square1,i,0.112,0,V,9.0
V9,11.0,19.0,29.0,44.0,45.0,29,452.0,square2,r,0.001,1,V,9.0
V9,12.0,27.0,24.0,38.0,54.0,54,506.0,square4,f,0.053,3,V,9.0
V9,13.0,15.0,26.0,37.0,50.0,50,556.0,square4,f,0.117,3,V,9.0
V9,14.0,24.0,26.0,39.0,42.0,42,598.0,square4,f,0.127,3,V,9.0
V9,15.0,26.0,27.0,43.0,49.0,49,647.0,square4,f,0.082,3,V,9.0
V9,16.0,19.0,30.0,42.0,49.0,49,696.0,square4,f,0.149,3,V,9.0
V9,17.0,21.0,30.0,34.0,49.0,49,745.0,square4,f,0.145,3,V,9.0
V9,18.0,25.0,33.0,41.0,51.0,51,796.0,square4,f,0.132,3,V,9.0
V9,19.0,17.0,31.0,41.0,45.0,45,841.0,square4,f,0.013,3,V,9.0
V9,20.0,19.0,31.0,34.0,49.0,49,890.0,square4,f,0.101,3,V,9.0
V9,21.0,23.0,29.0,37.0,48.0,48,938.0,square4,f,0.028,3,V,9.0
V9,22.0,15.0,32.0,36.0,48.0,36,974.0,square3,j,0.003,2,V,9.0
V9,23.0,25.0,33.0,39.0,47.0,25,999.0,square1,i,0.127,0,V,9.0
V9,24.0,21.0,30.0,38.0,52.0,30,1029.0,square2,r,0.026,1,V,9.0
V9,25.0,25.0,29.0,42.0,48.0,48,1077.0,square4,f,0.132,3,V,9.0
V9,26.0,22.0,29.0,39.0,47.0,47,1124.0,square4,f,0.136,3,V,9.0
V9,27.0,17.0,31.0,45.0,41.0,41,1165.0,square4,f,0.148,3,V,9.0
V9,28.0,29.0,28.0,43.0,43.0,43,1208.0,square4,f,0.142,3,V,9.0
V9,29.0,20.0,31.0,43.0,49.0,49,1257.0,square4,f,0.001,3,V,9.0
V9,30.0,23.0,33.0,39.0,48.0,48,1305.0,square4,f,0.16,3,V,9.0
V9,31.0,20.0,27.0,38.0,53.0,53,1358.0,square4,f,0.17,3,V,9.0
V9,32.0,23.0,29.0,37.0,49.0,49,1407.0,square4,f,0.153,3,V,9.0
V9,33.0,24.0,33.0,37.0,49.0,49,1456.0,square4,f,0.031,3,V,9.0
V9,34.0,43.0,58.0,48.0,30.0,30,1486.0,square4,f,0.001,3,V,9.0
V9,35.0,48.0,59.0,45.0,34.0,34,1520.0,square4,f,0.214,3,V,9.0
V9,36.0,39.0,56.0,54.0,32.0,32,1552.0,square4,f,0.194,3,V,9.0
V9,37.0,40.0,57.0,50.0,35.0,50,1602.0,square3,j,0.063,2,V,9.0
V9,38.0,49.0,62.0,51.0,33.0,49,1651.0,square1,i,0.147,0,V,9.0
V9,39.0,45.0,61.0,48.0,34.0,61,1712.0,square2,r,0.001,1,V,9.0
V9,40.0,40.0,65.0,51.0,29.0,65,1777.0,square2,r,0.162,1,V,9.0
V9,41.0,44.0,57.0,50.0,38.0,57,1834.0,square2,r,0.048,1,V,9.0
V9,42.0,40.0,57.0,49.0,33.0,57,1891.0,square2,r,0.129,1,V,9.0
V9,43.0,42.0,64.0,54.0,35.0,64,1955.0,square2,r,0.001,1,V,9.0
V9,44.0,44.0,55.0,49.0,39.0,55,2010.0,square2,r,0.083,1,V,9.0
V9,45.0,37.0,66.0,51.0,35.0,66,2076.0,square2,r,0.065,1,V,9.0
V9,46.0,40.0,59.0,51.0,32.0,59,2135.0,square2,r,0.013,1,V,9.0
V9,47.0,38.0,62.0,57.0,31.0,62,2197.0,square2,r,0.001,1,V,9.0
V9,48.0,43.0,61.0,54.0,34.0,61,2258.0,square2,r,0.15,1,V,9.0
V9,49.0,43.0,61.0,49.0,40.0,61,2319.0,square2,r,0.111,1,V,9.0
V9,50.0,37.0,58.0,51.0,32.0,58,2377.0,square2,r,0.012,1,V,9.0
V9,51.0,44.0,63.0,48.0,39.0,63,2440.0,square2,r,0.228,1,V,9.0
V9,52.0,35.0,65.0,48.0,30.0,65,2505.0,square2,r,0.036,1,V,9.0
V9,53.0,43.0,59.0,48.0,39.0,59,2564.0,square2,r,0.153,1,V,9.0
V9,54.0,43.0,59.0,52.0,30.0,59,2623.0,square2,r,0.169,1,V,9.0
V9,55.0,41.0,58.0,51.0,34.0,58,2681.0,square2,r,0.201,1,V,9.0
V9,56.0,44.0,63.0,50.0,33.0,44,2725.0,square1,i,0.0,0,V,9.0
V9,57.0,42.0,60.0,49.0,32.0,49,2774.0,square3,j,0.098,2,V,9.0
V9,58.0,44.0,62.0,57.0,30.0,30,2804.0,square4,f,0.085,3,V,9.0
V9,59.0,45.0,61.0,45.0,31.0,61,2865.0,square2,r,0.192,1,V,9.0
V9,60.0,43.0,63.0,53.0,33.0,63,2928.0,square2,r,0.025,1,V,9.0
V9,61.0,39.0,56.0,55.0,31.0,56,2984.0,square2,r,0.097,1,V,9.0
V9,62.0,39.0,61.0,50.0,34.0,61,3045.0,square2,r,0.001,1,V,9.0
V9,63.0,44.0,57.0,48.0,36.0,57,3102.0,square2,r,0.161,1,V,9.0
V9,64.0,40.0,60.0,58.0,35.0,60,3162.0,square2,r,0.114,1,V,9.0
V9,65.0,42.0,60.0,54.0,38.0,60,3222.0,square2,r,0.027,1,V,9.0
V9,66.0,41.0,60.0,54.0,37.0,60,3282.0,square2,r,0.069,1,V,9.0
V9,67.0,43.0,61.0,54.0,40.0,54,3336.0,square3,j,0.115,2,V,9.0
V9,68.0,45.0,40.0,26.0,18.0,26,3362.0,square3,j,0.117,2,V,9.0
V9,69.0,50.0,41.0,29.0,20.0,41,3403.0,square2,r,0.093,1,V,9.0
V9,70.0,43.0,36.0,27.0,15.0,36,3439.0,square2,r,0.167,1,V,9.0
V9,71.0,44.0,40.0,28.0,18.0,44,3483.0,square1,i,0.094,0,V,9.0
V9,72.0,42.0,38.0,27.0,18.0,42,3525.0,square1,i,0.016,0,V,9.0
V9,73.0,46.0,33.0,25.0,19.0,46,3571.0,square1,i,0.162,0,V,9.0
V9,74.0,47.0,40.0,28.0,20.0,20,3591.0,square4,f,0.063,3,V,9.0
V9,75.0,39.0,39.0,27.0,25.0,39,3630.0,square1,i,0.044,0,V,9.0
V9,76.0,50.0,31.0,29.0,23.0,50,3680.0,square1,i,0.079,0,V,9.0
V9,77.0,44.0,37.0,28.0,13.0,44,3724.0,square1,i,0.133,0,V,9.0
V9,78.0,43.0,36.0,23.0,17.0,43,3767.0,square1,i,0.028,0,V,9.0
V9,79.0,42.0,36.0,28.0,24.0,42,3809.0,square1,i,0.064,0,V,9.0
V9,80.0,47.0,35.0,30.0,14.0,47,3856.0,square1,i,0.029,0,V,9.0
V9,81.0,46.0,33.0,29.0,18.0,33,3889.0,square2,r,0.33,1,V,9.0
V9,82.0,46.0,35.0,28.0,18.0,35,3924.0,square2,r,0.036,1,V,9.0
V9,83.0,47.0,41.0,32.0,15.0,15,3939.0,square4,f,0.053,3,V,9.0
V9,84.0,45.0,38.0,31.0,18.0,18,3957.0,square4,f,0.045,3,V,9.0
V9,85.0,42.0,35.0,30.0,21.0,30,3987.0,square3,j,0.067,2,V,9.0
V9,86.0,49.0,39.0,23.0,18.0,23,4010.0,square3,j,0.07,2,V,9.0
V9,87.0,49.0,39.0,27.0,16.0,49,4059.0,square1,i,0.029,0,V,9.0
V9,88.0,45.0,38.0,25.0,14.0,45,4104.0,square1,i,0.082,0,V,9.0
V9,89.0,45.0,32.0,28.0,19.0,45,4149.0,square1,i,0.179,0,V,9.0
V9,90.0,44.0,35.0,29.0,20.0,44,4193.0,square1,i,0.012,0,V,9.0
V9,91.0,42.0,38.0,32.0,16.0,42,4235.0,square1,i,0.03,0,V,9.0
V9,92.0,45.0,36.0,23.0,20.0,45,4280.0,square1,i,0.288,0,V,9.0
V9,93.0,45.0,35.0,26.0,18.0,35,4315.0,square2,r,0.163,1,V,9.0
V9,94.0,44.0,37.0,27.0,13.0,44,4359.0,square1,i,0.146,0,V,9.0
V9,95.0,46.0,36.0,25.0,20.0,20,4379.0,square4,f,0.012,3,V,9.0
V9,96.0,43.0,39.0,27.0,16.0,43,4422.0,square1,i,0.008,0,V,9.0
V9,97.0,48.0,39.0,30.0,16.0,30,4452.0,square3,j,0.599,2,V,9.0
V9,98.0,49.0,40.0,26.0,20.0,49,4501.0,square1,i,0.001,0,V,9.0
V9,99.0,49.0,41.0,27.0,18.0,49,4550.0,square1,i,0.036,0,V,9.0
V7,0.0,86.0,61.0,78.0,68.0,86,86.0,square1,r,0.565,0,V,7.0
V7,1.0,95.0,62.0,79.0,70.0,79,165.0,square3,i,0.08,2,V,7.0
V7,2.0,89.0,67.0,81.0,77.0,89,254.0,square1,r,0.01,0,V,7.0
V7,3.0,90.0,56.0,85.0,72.0,90,344.0,square1,r,0.12,0,V,7.0
V7,4.0,91.0,65.0,77.0,71.0,65,409.0,square2,f,0.114,1,V,7.0
V7,5.0,91.0,58.0,84.0,72.0,72,481.0,square4,j,0.094,3,V,7.0
V7,6.0,94.0,65.0,87.0,72.0,87,568.0,square3,i,0.077,2,V,7.0
V7,7.0,89.0,67.0,79.0,67.0,89,657.0,square1,r,0.051,0,V,7.0
V7,8.0,91.0,65.0,84.0,68.0,91,748.0,square1,r,0.046,0,V,7.0
V7,9.0,92.0,60.0,87.0,69.0,92,840.0,square1,r,0.078,0,V,7.0
V7,10.0,90.0,67.0,81.0,76.0,90,930.0,square1,r,0.177,0,V,7.0
V7,11.0,86.0,67.0,83.0,73.0,86,1016.0,square1,r,0.128,0,V,7.0
V7,12.0,90.0,62.0,80.0,72.0,80,1096.0,square3,i,0.017,2,V,7.0
V7,13.0,84.0,60.0,88.0,71.0,88,1184.0,square3,i,0.001,2,V,7.0
V7,14.0,95.0,64.0,80.0,70.0,80,1264.0,square3,i,0.114,2,V,7.0
V7,15.0,86.0,60.0,81.0,70.0,81,1345.0,square3,i,0.045,2,V,7.0
V7,16.0,85.0,65.0,77.0,69.0,77,1422.0,square3,i,0.015,2,V,7.0
V7,17.0,91.0,65.0,81.0,70.0,91,1513.0,square1,r,0.164,0,V,7.0
V7,18.0,95.0,61.0,81.0,76.0,95,1608.0,square1,r,0.078,0,V,7.0
V7,19.0,90.0,58.0,79.0,72.0,90,1698.0,square1,r,0.096,0,V,7.0
V7,20.0,94.0,68.0,80.0,79.0,94,1792.0,square1,r,0.163,0,V,7.0
V7,21.0,92.0,66.0,82.0,70.0,92,1884.0,square1,r,0.212,0,V,7.0
V7,22.0,92.0,64.0,83.0,72.0,92,1976.0,square1,r,0.159,0,V,7.0
V7,23.0,91.0,68.0,82.0,73.0,91,2067.0,square1,r,0.012,0,V,7.0
V7,24.0,87.0,71.0,82.0,72.0,87,2154.0,square1,r,0.194,0,V,7.0
V7,25.0,91.0,68.0,90.0,74.0,91,2245.0,square1,r,0.227,0,V,7.0
V7,26.0,89.0,65.0,83.0,72.0,89,2334.0,square1,r,0.004,0,V,7.0
V7,27.0,91.0,61.0,81.0,73.0,91,2425.0,square1,r,0.012,0,V,7.0
V7,28.0,90.0,66.0,81.0,72.0,90,2515.0,square1,r,0.033,0,V,7.0
V7,29.0,89.0,67.0,77.0,71.0,89,2604.0,square1,r,0.012,0,V,7.0
V7,30.0,95.0,68.0,84.0,71.0,95,2699.0,square1,r,0.001,0,V,7.0
V7,31.0,95.0,61.0,81.0,70.0,81,2780.0,square3,i,0.046,2,V,7.0
V7,32.0,89.0,65.0,82.0,75.0,65,2845.0,square2,f,0.064,1,V,7.0
V7,33.0,77.0,50.0,80.0,61.0,61,2906.0,square4,j,0.0,3,V,7.0
V7,34.0,76.0,54.0,78.0,61.0,76,2982.0,square1,r,0.143,0,V,7.0
V7,35.0,71.0,51.0,80.0,64.0,71,3053.0,square1,r,0.159,0,V,7.0
V7,36.0,75.0,51.0,80.0,62.0,80,3133.0,square3,i,0.063,2,V,7.0
V7,37.0,73.0,58.0,86.0,63.0,86,3219.0,square3,i,0.128,2,V,7.0
V7,38.0,73.0,50.0,86.0,61.0,86,3305.0,square3,i,0.119,2,V,7.0
V7,39.0,67.0,53.0,78.0,61.0,78,3383.0,square3,i,0.097,2,V,7.0
V7,40.0,71.0,53.0,84.0,58.0,84,3467.0,square3,i,0.001,2,V,7.0
V7,41.0,75.0,51.0,83.0,63.0,83,3550.0,square3,i,0.001,2,V,7.0
V7,42.0,69.0,48.0,87.0,63.0,87,3637.0,square3,i,0.153,2,V,7.0
V7,43.0,70.0,58.0,81.0,60.0,81,3718.0,square3,i,0.03,2,V,7.0
V7,44.0,68.0,56.0,76.0,63.0,68,3786.0,square1,r,0.027,0,V,7.0
V7,45.0,74.0,59.0,76.0,56.0,76,3862.0,square3,i,0.015,2,V,7.0
V7,46.0,72.0,54.0,77.0,61.0,54,3916.0,square2,f,0.068,1,V,7.0
V7,47.0,69.0,47.0,81.0,62.0,62,3978.0,square4,j,0.267,3,V,7.0
V7,48.0,75.0,52.0,81.0,57.0,81,4059.0,square3,i,0.013,2,V,7.0
V7,49.0,74.0,55.0,78.0,60.0,78,4137.0,square3,i,0.114,2,V,7.0
V7,50.0,71.0,51.0,80.0,61.0,80,4217.0,square3,i,0.165,2,V,7.0
V7,51.0,75.0,55.0,85.0,62.0,85,4302.0,square3,i,0.079,2,V,7.0
V7,52.0,75.0,59.0,76.0,59.0,76,4378.0,square3,i,0.067,2,V,7.0
V7,53.0,72.0,53.0,84.0,66.0,84,4462.0,square3,i,0.086,2,V,7.0
V7,54.0,69.0,51.0,81.0,60.0,81,4543.0,square3,i,0.227,2,V,7.0
V7,55.0,74.0,56.0,75.0,54.0,75,4618.0,square3,i,0.078,2,V,7.0
V7,56.0,76.0,51.0,83.0,58.0,83,4701.0,square3,i,0.061,2,V,7.0
V7,57.0,71.0,53.0,80.0,64.0,80,4781.0,square3,i,0.044,2,V,7.0
V7,58.0,81.0,56.0,79.0,61.0,79,4860.0,square3,i,0.044,2,V,7.0
V7,59.0,71.0,55.0,83.0,59.0,83,4943.0,square3,i,0.068,2,V,7.0
V7,60.0,73.0,53.0,83.0,64.0,73,5016.0,square1,r,0.075,0,V,7.0
V7,61.0,70.0,53.0,77.0,63.0,70,5086.0,square1,r,0.014,0,V,7.0
V7,62.0,71.0,54.0,76.0,61.0,61,5147.0,square4,j,0.149,3,V,7.0
V7,63.0,68.0,45.0,79.0,65.0,65,5212.0,square4,j,0.028,3,V,7.0
V7,64.0,65.0,55.0,79.0,59.0,55,5267.0,square2,f,0.014,1,V,7.0
V7,65.0,74.0,54.0,81.0,61.0,81,5348.0,square3,i,0.034,2,V,7.0
V7,66.0,70.0,56.0,81.0,63.0,81,5429.0,square3,i,0.127,2,V,7.0
V7,67.0,70.0,85.0,64.0,92.0,64,5493.0,square3,i,0.043,2,V,7.0
V7,68.0,73.0,85.0,68.0,92.0,68,5561.0,square3,i,0.014,2,V,7.0
V7,69.0,75.0,83.0,70.0,91.0,75,5636.0,square1,r,0.028,0,V,7.0
V7,70.0,75.0,85.0,69.0,91.0,75,5711.0,square1,r,0.062,0,V,7.0
V7,71.0,71.0,86.0,65.0,94.0,71,5782.0,square1,r,0.062,0,V,7.0
V7,72.0,77.0,86.0,65.0,98.0,77,5859.0,square1,r,0.067,0,V,7.0
V7,73.0,77.0,84.0,63.0,94.0,77,5936.0,square1,r,0.111,0,V,7.0
V7,74.0,71.0,86.0,64.0,91.0,71,6007.0,square1,r,0.159,0,V,7.0
V7,75.0,73.0,90.0,60.0,90.0,73,6080.0,square1,r,0.118,0,V,7.0
V7,76.0,79.0,84.0,68.0,95.0,79,6159.0,square1,r,0.246,0,V,7.0
V7,77.0,73.0,85.0,66.0,89.0,73,6232.0,square1,r,0.086,0,V,7.0
V7,78.0,75.0,82.0,67.0,91.0,75,6307.0,square1,r,0.029,0,V,7.0
V7,79.0,72.0,85.0,60.0,90.0,90,6397.0,square4,j,0.091,3,V,7.0
V7,80.0,73.0,83.0,66.0,97.0,97,6494.0,square4,j,0.0,3,V,7.0
V7,81.0,73.0,84.0,67.0,92.0,92,6586.0,square4,j,0.026,3,V,7.0
V7,82.0,69.0,84.0,65.0,91.0,91,6677.0,square4,j,0.081,3,V,7.0
V7,83.0,76.0,83.0,72.0,99.0,99,6776.0,square4,j,0.135,3,V,7.0
V7,84.0,72.0,84.0,70.0,94.0,94,6870.0,square4,j,0.092,3,V,7.0
V7,85.0,77.0,83.0,67.0,88.0,88,6958.0,square4,j,0.096,3,V,7.0
V7,86.0,76.0,80.0,67.0,90.0,90,7048.0,square4,j,0.078,3,V,7.0
V7,87.0,70.0,86.0,67.0,95.0,67,7115.0,square3,i,0.001,2,V,7.0
V7,88.0,76.0,84.0,67.0,100.0,84,7199.0,square2,f,0.097,1,V,7.0
V7,89.0,71.0,88.0,60.0,97.0,97,7296.0,square4,j,0.012,3,V,7.0
V7,90.0,69.0,82.0,71.0,95.0,95,7391.0,square4,j,0.043,3,V,7.0
V7,91.0,80.0,84.0,65.0,92.0,92,7483.0,square4,j,0.112,3,V,7.0
V7,92.0,77.0,85.0,68.0,85.0,85,7568.0,square4,j,0.003,3,V,7.0
V7,93.0,72.0,84.0,66.0,91.0,91,7659.0,square4,j,0.159,3,V,7.0
V7,94.0,69.0,83.0,66.0,95.0,95,7754.0,square4,j,0.12,3,V,7.0
V7,95.0,70.0,86.0,75.0,91.0,91,7845.0,square4,j,0.015,3,V,7.0
V7,96.0,74.0,85.0,66.0,88.0,88,7933.0,square4,j,0.038,3,V,7.0
V7,97.0,77.0,82.0,73.0,91.0,91,8024.0,square4,j,0.012,3,V,7.0
V7,98.0,76.0,91.0,62.0,94.0,94,8118.0,square4,j,0.027,3,V,7.0
V7,99.0,74.0,84.0,67.0,88.0,88,8206.0,square4,j,0.026,3,V,7.0
