block,Trial,square1,square2,square3,square4,currPoints,totalPoints,square,choiceKey.keys,choiceKey.rt,armNum,blockType,blockNum
prac,0.0,100.0,0.0,0.0,0.0,99999,0.0,invalid,,,-1,p,0.0
prac,1.0,100.0,0.0,0.0,0.0,0,0.0,square2,,,1,p,0.0
prac,2.0,100.0,0.0,0.0,0.0,0,0.0,square4,,,3,p,0.0
prac,3.0,100.0,0.0,0.0,0.0,100,100.0,square1,,,0,p,0.0
prac,4.0,100.0,0.0,0.0,0.0,0,100.0,square3,,,2,p,0.0
prac,5.0,100.0,0.0,0.0,0.0,100,200.0,square1,,,0,p,0.0
prac,6.0,100.0,0.0,0.0,0.0,100,300.0,square1,,,0,p,0.0
prac,7.0,100.0,0.0,0.0,0.0,100,400.0,square1,,,0,p,0.0
prac,8.0,100.0,0.0,0.0,0.0,100,500.0,square1,,,0,p,0.0
prac,9.0,100.0,0.0,0.0,0.0,100,600.0,square1,,,0,p,0.0
NS9,0.0,40.0,33.0,41.0,64.0,41,41.0,square3,r,0.9256,2,N,9.0
NS9,1.0,40.0,19.0,39.0,64.0,19,60.0,square2,i,0.42,1,N,9.0
NS9,2.0,41.0,16.0,44.0,59.0,41,101.0,square1,f,0.2968,0,N,9.0
NS9,3.0,41.0,19.0,48.0,58.0,58,159.0,square4,j,0.2668,3,N,9.0
NS9,4.0,46.0,18.0,45.0,54.0,54,213.0,square4,j,0.2769,3,N,9.0
NS9,5.0,40.0,17.0,53.0,54.0,54,267.0,square4,j,0.2179,3,N,9.0
NS9,6.0,40.0,19.0,47.0,46.0,46,313.0,square4,j,0.2192,3,N,9.0
NS9,7.0,44.0,21.0,51.0,49.0,49,362.0,square4,j,0.2567,3,N,9.0
NS9,8.0,41.0,26.0,44.0,55.0,55,417.0,square4,j,0.2433,3,N,9.0
NS9,9.0,36.0,15.0,44.0,54.0,54,471.0,square4,j,0.1669,3,N,9.0
NS9,10.0,32.0,19.0,48.0,49.0,49,520.0,square4,j,0.1292,3,N,9.0
NS9,11.0,32.0,18.0,50.0,57.0,57,577.0,square4,j,0.2218,3,N,9.0
NS9,12.0,32.0,18.0,57.0,52.0,52,629.0,square4,j,0.1428,3,N,9.0
NS9,13.0,32.0,8.0,58.0,56.0,56,685.0,square4,j,0.2425,3,N,9.0
NS9,14.0,28.0,9.0,61.0,55.0,55,740.0,square4,j,0.2433,3,N,9.0
NS9,15.0,31.0,11.0,64.0,48.0,48,788.0,square4,j,0.1493,3,N,9.0
NS9,16.0,34.0,13.0,68.0,47.0,47,835.0,square4,j,0.1367,3,N,9.0
NS9,17.0,37.0,11.0,71.0,54.0,54,889.0,square4,j,0.0929,3,N,9.0
NS9,18.0,35.0,10.0,71.0,50.0,50,939.0,square4,j,0.1372,3,N,9.0
NS9,19.0,32.0,21.0,77.0,49.0,49,988.0,square4,j,0.226,3,N,9.0
NS9,20.0,41.0,22.0,74.0,48.0,48,1036.0,square4,j,0.1646,3,N,9.0
NS9,21.0,40.0,21.0,75.0,50.0,40,1076.0,square1,f,0.0845,0,N,9.0
NS9,22.0,42.0,23.0,72.0,54.0,72,1148.0,square3,r,0.2244,2,N,9.0
NS9,23.0,43.0,22.0,75.0,45.0,22,1170.0,square2,i,0.1646,1,N,9.0
NS9,24.0,41.0,18.0,70.0,49.0,49,1219.0,square4,j,0.2779,3,N,9.0
NS9,25.0,38.0,21.0,75.0,53.0,75,1294.0,square3,r,0.1296,2,N,9.0
NS9,26.0,40.0,20.0,73.0,54.0,73,1367.0,square3,r,0.2097,2,N,9.0
NS9,27.0,46.0,21.0,74.0,56.0,74,1441.0,square3,r,0.2104,2,N,9.0
NS9,28.0,51.0,25.0,72.0,58.0,72,1513.0,square3,r,0.2342,2,N,9.0
NS9,29.0,43.0,29.0,71.0,56.0,71,1584.0,square3,r,0.2291,2,N,9.0
NS9,30.0,38.0,26.0,71.0,52.0,71,1655.0,square3,r,0.2186,2,N,9.0
NS9,31.0,43.0,23.0,73.0,53.0,23,1678.0,square2,i,0.1487,1,N,9.0
NS9,32.0,43.0,24.0,76.0,52.0,52,1730.0,square4,j,0.0241,3,N,9.0
NS9,33.0,41.0,18.0,72.0,49.0,41,1771.0,square1,f,0.0688,0,N,9.0
NS9,34.0,36.0,26.0,68.0,55.0,68,1839.0,square3,r,0.0263,2,N,9.0
NS9,35.0,34.0,34.0,68.0,52.0,68,1907.0,square3,r,0.2643,2,N,9.0
NS9,36.0,34.0,43.0,70.0,49.0,70,1977.0,square3,r,0.193,2,N,9.0
NS9,37.0,32.0,41.0,61.0,47.0,61,2038.0,square3,r,0.6697,2,N,9.0
NS9,38.0,28.0,41.0,65.0,47.0,65,2103.0,square3,r,0.259,2,N,9.0
NS9,39.0,28.0,43.0,61.0,48.0,61,2164.0,square3,r,0.1202,2,N,9.0
NS9,40.0,26.0,46.0,65.0,39.0,65,2229.0,square3,r,0.2192,2,N,9.0
NS9,41.0,21.0,38.0,62.0,41.0,62,2291.0,square3,r,0.2301,2,N,9.0
NS9,42.0,18.0,37.0,59.0,42.0,59,2350.0,square3,r,0.1865,2,N,9.0
NS9,43.0,18.0,44.0,57.0,39.0,57,2407.0,square3,r,0.1992,2,N,9.0
NS9,44.0,19.0,43.0,58.0,36.0,36,2443.0,square4,j,0.3318,3,N,9.0
NS9,45.0,23.0,42.0,53.0,39.0,42,2485.0,square2,i,0.195,1,N,9.0
NS9,46.0,22.0,48.0,58.0,43.0,22,2507.0,square1,f,0.2297,0,N,9.0
NS9,47.0,20.0,47.0,51.0,44.0,51,2558.0,square3,r,0.1491,2,N,9.0
NS9,48.0,21.0,43.0,57.0,40.0,57,2615.0,square3,r,0.2264,2,N,9.0
NS9,49.0,25.0,38.0,59.0,46.0,59,2674.0,square3,r,0.2267,2,N,9.0
NS9,50.0,27.0,41.0,49.0,52.0,49,2723.0,square3,r,0.1639,2,N,9.0
NS9,51.0,20.0,42.0,52.0,54.0,52,2775.0,square3,r,0.0983,2,N,9.0
NS9,52.0,18.0,41.0,51.0,48.0,51,2826.0,square3,r,0.1623,2,N,9.0
NS9,53.0,17.0,43.0,52.0,50.0,50,2876.0,square4,j,0.2723,3,N,9.0
NS9,54.0,27.0,37.0,55.0,56.0,27,2903.0,square1,f,0.0798,0,N,9.0
NS9,55.0,30.0,38.0,59.0,50.0,38,2941.0,square2,i,0.229,1,N,9.0
NS9,56.0,32.0,49.0,54.0,59.0,54,2995.0,square3,r,0.2617,2,N,9.0
NS9,57.0,34.0,50.0,50.0,58.0,50,3045.0,square3,r,0.2445,2,N,9.0
NS9,58.0,28.0,49.0,54.0,51.0,54,3099.0,square3,r,0.2659,2,N,9.0
NS9,59.0,26.0,47.0,46.0,49.0,46,3145.0,square3,r,0.0719,2,N,9.0
NS9,60.0,30.0,47.0,50.0,51.0,50,3195.0,square3,r,0.1941,2,N,9.0
NS9,61.0,29.0,43.0,51.0,50.0,51,3246.0,square3,r,0.168,2,N,9.0
NS9,62.0,32.0,42.0,52.0,54.0,52,3298.0,square3,r,0.0728,2,N,9.0
NS9,63.0,35.0,45.0,57.0,46.0,57,3355.0,square3,r,0.2169,2,N,9.0
NS9,64.0,37.0,41.0,53.0,44.0,53,3408.0,square3,r,0.1862,2,N,9.0
NS9,65.0,34.0,41.0,50.0,49.0,50,3458.0,square3,r,0.2287,2,N,9.0
NS9,66.0,38.0,43.0,46.0,53.0,46,3504.0,square3,r,0.1992,2,N,9.0
NS9,67.0,36.0,35.0,51.0,54.0,36,3540.0,square1,f,0.1311,0,N,9.0
NS9,68.0,43.0,38.0,48.0,57.0,57,3597.0,square4,j,0.1799,3,N,9.0
NS9,69.0,42.0,42.0,48.0,49.0,42,3639.0,square2,i,0.214,1,N,9.0
NS9,70.0,45.0,40.0,50.0,51.0,51,3690.0,square4,j,0.2146,3,N,9.0
NS9,71.0,49.0,42.0,48.0,52.0,52,3742.0,square4,j,0.1277,3,N,9.0
NS9,72.0,39.0,44.0,47.0,58.0,58,3800.0,square4,j,0.1068,3,N,9.0
NS9,73.0,40.0,45.0,45.0,62.0,62,3862.0,square4,j,0.1775,3,N,9.0
NS9,74.0,46.0,48.0,47.0,56.0,56,3918.0,square4,j,0.2778,3,N,9.0
NS9,75.0,35.0,39.0,53.0,65.0,65,3983.0,square4,j,0.2286,3,N,9.0
NS9,76.0,40.0,45.0,56.0,67.0,67,4050.0,square4,j,0.2637,3,N,9.0
NS9,77.0,38.0,46.0,54.0,69.0,69,4119.0,square4,j,0.1502,3,N,9.0
NS9,78.0,37.0,42.0,53.0,69.0,69,4188.0,square4,j,0.1593,3,N,9.0
NS9,79.0,40.0,44.0,53.0,70.0,70,4258.0,square4,j,0.1307,3,N,9.0
NS9,80.0,37.0,50.0,55.0,70.0,70,4328.0,square4,j,0.258,3,N,9.0
NS9,81.0,33.0,54.0,54.0,63.0,63,4391.0,square4,j,0.2196,3,N,9.0
NS9,82.0,35.0,55.0,52.0,74.0,74,4465.0,square4,j,0.2133,3,N,9.0
NS9,83.0,34.0,48.0,56.0,75.0,75,4540.0,square4,j,0.2619,3,N,9.0
NS9,84.0,39.0,51.0,62.0,78.0,78,4618.0,square4,j,0.1517,3,N,9.0
NS9,85.0,38.0,57.0,55.0,77.0,77,4695.0,square4,j,0.2354,3,N,9.0
NS9,86.0,34.0,53.0,57.0,68.0,68,4763.0,square4,j,0.2622,3,N,9.0
NS9,87.0,35.0,48.0,55.0,69.0,48,4811.0,square2,i,0.1442,1,N,9.0
NS9,88.0,41.0,48.0,50.0,69.0,41,4852.0,square1,f,1.5445,0,N,9.0
NS9,89.0,38.0,54.0,55.0,70.0,55,4907.0,square3,r,0.1339,2,N,9.0
NS9,90.0,43.0,55.0,49.0,71.0,71,4978.0,square4,j,0.2375,3,N,9.0
NS9,91.0,41.0,46.0,54.0,78.0,78,5056.0,square4,j,0.2342,3,N,9.0
NS9,92.0,40.0,42.0,41.0,72.0,72,5128.0,square4,j,0.2138,3,N,9.0
NS9,93.0,39.0,43.0,47.0,70.0,70,5198.0,square4,j,0.1845,3,N,9.0
NS9,94.0,36.0,47.0,43.0,80.0,80,5278.0,square4,j,0.1607,3,N,9.0
NS9,95.0,37.0,46.0,43.0,75.0,75,5353.0,square4,j,0.0625,3,N,9.0
NS9,96.0,39.0,47.0,47.0,75.0,75,5428.0,square4,j,0.1445,3,N,9.0
NS9,97.0,35.0,41.0,49.0,80.0,80,5508.0,square4,j,0.1766,3,N,9.0
NS9,98.0,33.0,45.0,56.0,74.0,74,5582.0,square4,j,0.0531,3,N,9.0
NS9,99.0,34.0,42.0,58.0,74.0,74,5656.0,square4,j,0.2786,3,N,9.0
NS3,0.0,52.0,26.0,68.0,52.0,52,52.0,square4,r,0.9368,3,N,3.0
NS3,1.0,57.0,23.0,69.0,48.0,69,121.0,square3,f,0.528,2,N,3.0
NS3,2.0,59.0,26.0,70.0,52.0,26,147.0,square2,j,0.2616,1,N,3.0
NS3,3.0,57.0,24.0,70.0,52.0,57,204.0,square1,i,0.2175,0,N,3.0
NS3,4.0,59.0,30.0,74.0,49.0,49,253.0,square4,r,0.2648,3,N,3.0
NS3,5.0,55.0,24.0,67.0,51.0,67,320.0,square3,f,0.2222,2,N,3.0
NS3,6.0,54.0,27.0,73.0,55.0,73,393.0,square3,f,0.264,2,N,3.0
NS3,7.0,55.0,28.0,66.0,43.0,66,459.0,square3,f,0.2265,2,N,3.0
NS3,8.0,57.0,30.0,65.0,45.0,65,524.0,square3,f,0.2265,2,N,3.0
NS3,9.0,53.0,33.0,54.0,37.0,53,577.0,square1,i,0.2035,0,N,3.0
NS3,10.0,46.0,27.0,54.0,43.0,54,631.0,square3,f,0.1123,2,N,3.0
NS3,11.0,48.0,31.0,58.0,51.0,58,689.0,square3,f,0.26,2,N,3.0
NS3,12.0,50.0,27.0,54.0,53.0,54,743.0,square3,f,0.1536,2,N,3.0
NS3,13.0,49.0,28.0,62.0,50.0,62,805.0,square3,f,0.1952,2,N,3.0
NS3,14.0,53.0,28.0,62.0,52.0,62,867.0,square3,f,0.1164,2,N,3.0
NS3,15.0,52.0,25.0,57.0,57.0,57,924.0,square3,f,0.0758,2,N,3.0
NS3,16.0,48.0,29.0,56.0,56.0,56,980.0,square3,f,0.1645,2,N,3.0
NS3,17.0,39.0,21.0,58.0,56.0,58,1038.0,square3,f,0.1475,2,N,3.0
NS3,18.0,40.0,23.0,58.0,60.0,58,1096.0,square3,f,0.1693,2,N,3.0
NS3,19.0,40.0,26.0,63.0,58.0,63,1159.0,square3,f,0.229,2,N,3.0
NS3,20.0,46.0,24.0,60.0,56.0,60,1219.0,square3,f,0.1776,2,N,3.0
NS3,21.0,42.0,27.0,61.0,55.0,61,1280.0,square3,f,0.1787,2,N,3.0
NS3,22.0,45.0,26.0,62.0,56.0,62,1342.0,square3,f,0.2181,2,N,3.0
NS3,23.0,39.0,21.0,64.0,60.0,64,1406.0,square3,f,0.0973,2,N,3.0
NS3,24.0,44.0,21.0,59.0,64.0,64,1470.0,square4,r,0.114,3,N,3.0
NS3,25.0,44.0,22.0,58.0,65.0,22,1492.0,square2,j,0.0801,1,N,3.0
NS3,26.0,42.0,26.0,60.0,62.0,42,1534.0,square1,i,0.195,0,N,3.0
NS3,27.0,38.0,18.0,55.0,67.0,55,1589.0,square3,f,0.2393,2,N,3.0
NS3,28.0,41.0,23.0,56.0,60.0,60,1649.0,square4,r,0.1365,3,N,3.0
NS3,29.0,38.0,16.0,52.0,66.0,66,1715.0,square4,r,0.2639,3,N,3.0
NS3,30.0,36.0,13.0,61.0,64.0,64,1779.0,square4,r,0.2107,3,N,3.0
NS3,31.0,42.0,13.0,54.0,63.0,63,1842.0,square4,r,0.2455,3,N,3.0
NS3,32.0,38.0,18.0,50.0,62.0,62,1904.0,square4,r,0.1908,3,N,3.0
NS3,33.0,29.0,20.0,51.0,64.0,64,1968.0,square4,r,0.2188,3,N,3.0
NS3,34.0,32.0,21.0,45.0,63.0,63,2031.0,square4,r,0.1103,3,N,3.0
NS3,35.0,30.0,17.0,46.0,65.0,65,2096.0,square4,r,0.1668,3,N,3.0
NS3,36.0,35.0,16.0,47.0,69.0,69,2165.0,square4,r,0.233,3,N,3.0
NS3,37.0,34.0,18.0,45.0,68.0,68,2233.0,square4,r,0.149,3,N,3.0
NS3,38.0,40.0,14.0,50.0,74.0,74,2307.0,square4,r,0.2222,3,N,3.0
NS3,39.0,39.0,15.0,49.0,73.0,73,2380.0,square4,r,0.1375,3,N,3.0
NS3,40.0,42.0,15.0,51.0,74.0,74,2454.0,square4,r,0.1085,3,N,3.0
NS3,41.0,38.0,17.0,43.0,74.0,74,2528.0,square4,r,0.1469,3,N,3.0
NS3,42.0,36.0,16.0,46.0,74.0,74,2602.0,square4,r,0.1935,3,N,3.0
NS3,43.0,41.0,21.0,44.0,76.0,76,2678.0,square4,r,0.034,3,N,3.0
NS3,44.0,41.0,26.0,35.0,70.0,70,2748.0,square4,r,0.087,3,N,3.0
NS3,45.0,39.0,27.0,33.0,75.0,75,2823.0,square4,r,0.2036,3,N,3.0
NS3,46.0,45.0,25.0,38.0,77.0,77,2900.0,square4,r,0.182,3,N,3.0
NS3,47.0,41.0,20.0,34.0,76.0,76,2976.0,square4,r,0.0662,3,N,3.0
NS3,48.0,37.0,25.0,34.0,77.0,77,3053.0,square4,r,0.1187,3,N,3.0
NS3,49.0,41.0,18.0,40.0,78.0,40,3093.0,square3,f,0.1143,2,N,3.0
NS3,50.0,42.0,17.0,41.0,83.0,17,3110.0,square2,j,0.0343,1,N,3.0
NS3,51.0,53.0,18.0,39.0,83.0,53,3163.0,square1,i,0.4732,0,N,3.0
NS3,52.0,55.0,19.0,34.0,82.0,82,3245.0,square4,r,0.1226,3,N,3.0
NS3,53.0,52.0,17.0,39.0,77.0,77,3322.0,square4,r,0.2429,3,N,3.0
NS3,54.0,55.0,21.0,46.0,77.0,77,3399.0,square4,r,0.16,3,N,3.0
NS3,55.0,48.0,21.0,49.0,75.0,75,3474.0,square4,r,0.05,3,N,3.0
NS3,56.0,50.0,25.0,51.0,74.0,74,3548.0,square4,r,0.1339,3,N,3.0
NS3,57.0,54.0,23.0,46.0,66.0,66,3614.0,square4,r,0.06,3,N,3.0
NS3,58.0,60.0,25.0,50.0,72.0,72,3686.0,square4,r,0.1971,3,N,3.0
NS3,59.0,54.0,23.0,46.0,72.0,72,3758.0,square4,r,0.15,3,N,3.0
NS3,60.0,51.0,26.0,50.0,72.0,72,3830.0,square4,r,0.1986,3,N,3.0
NS3,61.0,57.0,27.0,54.0,71.0,71,3901.0,square4,r,0.2524,3,N,3.0
NS3,62.0,51.0,27.0,54.0,64.0,64,3965.0,square4,r,0.1303,3,N,3.0
NS3,63.0,54.0,25.0,42.0,62.0,62,4027.0,square4,r,0.0833,3,N,3.0
NS3,64.0,54.0,25.0,47.0,62.0,62,4089.0,square4,r,0.1445,3,N,3.0
NS3,65.0,48.0,26.0,45.0,60.0,60,4149.0,square4,r,0.1634,3,N,3.0
NS3,66.0,49.0,22.0,47.0,60.0,60,4209.0,square4,r,0.0989,3,N,3.0
NS3,67.0,49.0,26.0,45.0,65.0,65,4274.0,square4,r,0.0537,3,N,3.0
NS3,68.0,54.0,26.0,47.0,67.0,67,4341.0,square4,r,0.1337,3,N,3.0
NS3,69.0,48.0,22.0,45.0,56.0,45,4386.0,square3,f,0.0161,2,N,3.0
NS3,70.0,55.0,26.0,48.0,61.0,26,4412.0,square2,j,0.1209,1,N,3.0
NS3,71.0,55.0,29.0,43.0,60.0,55,4467.0,square1,i,0.0926,0,N,3.0
NS3,72.0,56.0,30.0,43.0,51.0,51,4518.0,square4,r,0.1681,3,N,3.0
NS3,73.0,55.0,27.0,47.0,56.0,27,4545.0,square2,j,0.1618,1,N,3.0
NS3,74.0,63.0,26.0,44.0,55.0,63,4608.0,square1,i,0.4738,0,N,3.0
NS3,75.0,61.0,34.0,45.0,62.0,61,4669.0,square1,i,0.2945,0,N,3.0
NS3,76.0,55.0,28.0,45.0,62.0,55,4724.0,square1,i,0.1311,0,N,3.0
NS3,77.0,58.0,31.0,53.0,66.0,58,4782.0,square1,i,0.5902,0,N,3.0
NS3,78.0,55.0,29.0,51.0,60.0,55,4837.0,square1,i,0.2316,0,N,3.0
NS3,79.0,51.0,29.0,52.0,68.0,68,4905.0,square4,r,0.1135,3,N,3.0
NS3,80.0,55.0,31.0,48.0,59.0,59,4964.0,square4,r,0.2075,3,N,3.0
NS3,81.0,56.0,38.0,56.0,64.0,64,5028.0,square4,r,0.143,3,N,3.0
NS3,82.0,54.0,27.0,54.0,55.0,55,5083.0,square4,r,0.0264,3,N,3.0
NS3,83.0,62.0,30.0,49.0,58.0,62,5145.0,square1,i,0.2803,0,N,3.0
NS3,84.0,64.0,24.0,47.0,62.0,47,5192.0,square3,f,0.2283,2,N,3.0
NS3,85.0,65.0,23.0,54.0,63.0,65,5257.0,square1,i,0.0732,0,N,3.0
NS3,86.0,68.0,25.0,56.0,65.0,68,5325.0,square1,i,0.2568,0,N,3.0
NS3,87.0,65.0,22.0,55.0,60.0,65,5390.0,square1,i,0.2316,0,N,3.0
NS3,88.0,64.0,20.0,58.0,65.0,64,5454.0,square1,i,0.1765,0,N,3.0
NS3,89.0,68.0,13.0,62.0,64.0,68,5522.0,square1,i,0.1135,0,N,3.0
NS3,90.0,72.0,13.0,52.0,64.0,72,5594.0,square1,i,0.1418,0,N,3.0
NS3,91.0,67.0,20.0,52.0,69.0,67,5661.0,square1,i,0.1907,0,N,3.0
NS3,92.0,72.0,21.0,58.0,64.0,21,5682.0,square2,j,0.1764,1,N,3.0
NS3,93.0,73.0,16.0,54.0,67.0,67,5749.0,square4,r,0.1335,3,N,3.0
NS3,94.0,69.0,17.0,51.0,64.0,51,5800.0,square3,f,0.0997,2,N,3.0
NS3,95.0,62.0,19.0,60.0,62.0,62,5862.0,square1,i,0.0298,0,N,3.0
NS3,96.0,67.0,15.0,56.0,67.0,67,5929.0,square4,r,0.0781,3,N,3.0
NS3,97.0,61.0,17.0,58.0,62.0,62,5991.0,square4,r,0.1393,3,N,3.0
NS3,98.0,59.0,13.0,58.0,58.0,58,6049.0,square4,r,0.1427,3,N,3.0
NS3,99.0,62.0,15.0,51.0,60.0,62,6111.0,square1,i,0.2527,0,N,3.0
NS4,0.0,55.0,53.0,59.0,44.0,99999,0.0,invalid,,,-1,N,4.0
NS4,1.0,49.0,56.0,64.0,41.0,49,49.0,square1,r,1.3704,0,N,4.0
NS4,2.0,50.0,54.0,71.0,48.0,48,97.0,square4,f,0.2311,3,N,4.0
NS4,3.0,53.0,58.0,67.0,50.0,67,164.0,square3,j,0.1692,2,N,4.0
NS4,4.0,49.0,51.0,70.0,55.0,51,215.0,square2,i,0.1675,1,N,4.0
NS4,5.0,55.0,59.0,73.0,58.0,55,270.0,square1,r,0.1063,0,N,4.0
NS4,6.0,56.0,54.0,71.0,57.0,57,327.0,square4,f,0.1323,3,N,4.0
NS4,7.0,60.0,54.0,75.0,52.0,75,402.0,square3,j,0.1995,2,N,4.0
NS4,8.0,58.0,53.0,74.0,52.0,74,476.0,square3,j,0.2288,2,N,4.0
NS4,9.0,46.0,48.0,78.0,51.0,78,554.0,square3,j,0.194,2,N,4.0
NS4,10.0,55.0,48.0,78.0,51.0,78,632.0,square3,j,0.0543,2,N,4.0
NS4,11.0,55.0,44.0,79.0,49.0,79,711.0,square3,j,0.0008,2,N,4.0
NS4,12.0,50.0,40.0,79.0,50.0,79,790.0,square3,j,0.0976,2,N,4.0
NS4,13.0,45.0,39.0,79.0,53.0,79,869.0,square3,j,0.4964,2,N,4.0
NS4,14.0,44.0,38.0,77.0,56.0,77,946.0,square3,j,0.2835,2,N,4.0
NS4,15.0,45.0,32.0,68.0,52.0,68,1014.0,square3,j,0.3673,2,N,4.0
NS4,16.0,49.0,32.0,74.0,53.0,74,1088.0,square3,j,0.3134,2,N,4.0
NS4,17.0,45.0,32.0,69.0,51.0,69,1157.0,square3,j,0.2705,2,N,4.0
NS4,18.0,50.0,34.0,69.0,47.0,69,1226.0,square3,j,0.2764,2,N,4.0
NS4,19.0,50.0,36.0,65.0,53.0,65,1291.0,square3,j,0.2924,2,N,4.0
NS4,20.0,45.0,36.0,62.0,53.0,62,1353.0,square3,j,0.1702,2,N,4.0
NS4,21.0,49.0,35.0,62.0,55.0,62,1415.0,square3,j,0.1957,2,N,4.0
NS4,22.0,53.0,32.0,61.0,60.0,61,1476.0,square3,j,0.1586,2,N,4.0
NS4,23.0,52.0,33.0,58.0,54.0,58,1534.0,square3,j,0.2693,2,N,4.0
NS4,24.0,48.0,32.0,52.0,60.0,32,1566.0,square2,i,0.2763,1,N,4.0
NS4,25.0,47.0,30.0,53.0,57.0,47,1613.0,square1,r,0.2189,0,N,4.0
NS4,26.0,50.0,30.0,60.0,55.0,55,1668.0,square4,f,0.2033,3,N,4.0
NS4,27.0,50.0,28.0,62.0,47.0,62,1730.0,square3,j,0.2269,2,N,4.0
NS4,28.0,54.0,28.0,58.0,49.0,58,1788.0,square3,j,0.2779,2,N,4.0
NS4,29.0,44.0,29.0,50.0,49.0,50,1838.0,square3,j,0.1618,2,N,4.0
NS4,30.0,43.0,26.0,55.0,57.0,57,1895.0,square4,f,0.463,3,N,4.0
NS4,31.0,43.0,25.0,60.0,54.0,54,1949.0,square4,f,0.2107,3,N,4.0
NS4,32.0,34.0,27.0,58.0,56.0,56,2005.0,square4,f,0.2607,3,N,4.0
NS4,33.0,34.0,20.0,60.0,62.0,62,2067.0,square4,f,0.1125,3,N,4.0
NS4,34.0,38.0,28.0,58.0,57.0,57,2124.0,square4,f,0.1479,3,N,4.0
NS4,35.0,40.0,24.0,63.0,59.0,59,2183.0,square4,f,0.1786,3,N,4.0
NS4,36.0,36.0,30.0,56.0,63.0,56,2239.0,square3,j,0.3464,2,N,4.0
NS4,37.0,40.0,29.0,54.0,63.0,40,2279.0,square1,r,0.1456,0,N,4.0
NS4,38.0,40.0,33.0,53.0,69.0,33,2312.0,square2,i,0.2458,1,N,4.0
NS4,39.0,36.0,30.0,57.0,67.0,67,2379.0,square4,f,0.2395,3,N,4.0
NS4,40.0,33.0,33.0,58.0,68.0,68,2447.0,square4,f,0.2926,3,N,4.0
NS4,41.0,34.0,28.0,58.0,72.0,72,2519.0,square4,f,0.1035,3,N,4.0
NS4,42.0,35.0,30.0,60.0,70.0,70,2589.0,square4,f,0.0727,3,N,4.0
NS4,43.0,35.0,34.0,57.0,63.0,63,2652.0,square4,f,0.594,3,N,4.0
NS4,44.0,30.0,32.0,59.0,69.0,69,2721.0,square4,f,0.1954,3,N,4.0
NS4,45.0,29.0,31.0,60.0,66.0,66,2787.0,square4,f,0.1247,3,N,4.0
NS4,46.0,35.0,34.0,66.0,66.0,66,2853.0,square4,f,0.2864,3,N,4.0
NS4,47.0,35.0,28.0,63.0,62.0,62,2915.0,square4,f,0.2587,3,N,4.0
NS4,48.0,37.0,37.0,61.0,55.0,55,2970.0,square4,f,0.096,3,N,4.0
NS4,49.0,40.0,34.0,59.0,54.0,54,3024.0,square4,f,0.1506,3,N,4.0
NS4,50.0,39.0,38.0,68.0,51.0,51,3075.0,square4,f,0.0944,3,N,4.0
NS4,51.0,46.0,28.0,69.0,48.0,69,3144.0,square3,j,0.1196,2,N,4.0
NS4,52.0,40.0,34.0,62.0,49.0,62,3206.0,square3,j,0.2124,2,N,4.0
NS4,53.0,39.0,34.0,63.0,48.0,63,3269.0,square3,j,0.1407,2,N,4.0
NS4,54.0,44.0,31.0,58.0,47.0,58,3327.0,square3,j,0.0411,2,N,4.0
NS4,55.0,42.0,30.0,68.0,46.0,68,3395.0,square3,j,0.0579,2,N,4.0
NS4,56.0,36.0,25.0,69.0,44.0,69,3464.0,square3,j,0.0661,2,N,4.0
NS4,57.0,35.0,29.0,71.0,46.0,71,3535.0,square3,j,0.0948,2,N,4.0
NS4,58.0,43.0,28.0,68.0,47.0,68,3603.0,square3,j,0.0921,2,N,4.0
NS4,59.0,43.0,27.0,67.0,43.0,67,3670.0,square3,j,0.0164,2,N,4.0
NS4,60.0,40.0,25.0,72.0,46.0,72,3742.0,square3,j,0.0411,2,N,4.0
NS4,61.0,39.0,32.0,63.0,43.0,63,3805.0,square3,j,0.0429,2,N,4.0
NS4,62.0,39.0,29.0,61.0,39.0,61,3866.0,square3,j,0.0336,2,N,4.0
NS4,63.0,41.0,28.0,59.0,40.0,59,3925.0,square3,j,0.7645,2,N,4.0
NS4,64.0,41.0,31.0,57.0,51.0,41,3966.0,square1,r,0.4454,0,N,4.0
NS4,65.0,46.0,36.0,59.0,58.0,36,4002.0,square2,i,0.2669,1,N,4.0
NS4,66.0,45.0,36.0,53.0,46.0,46,4048.0,square4,f,0.1878,3,N,4.0
NS4,67.0,40.0,34.0,49.0,46.0,49,4097.0,square3,j,0.2087,2,N,4.0
NS4,68.0,43.0,37.0,48.0,48.0,48,4145.0,square4,f,0.185,3,N,4.0
NS4,69.0,42.0,36.0,44.0,56.0,42,4187.0,square1,r,0.0008,0,N,4.0
NS4,70.0,40.0,38.0,47.0,58.0,47,4234.0,square3,j,0.593,2,N,4.0
NS4,71.0,36.0,34.0,42.0,63.0,34,4268.0,square2,i,0.1019,1,N,4.0
NS4,72.0,38.0,36.0,36.0,66.0,66,4334.0,square4,f,0.2137,3,N,4.0
NS4,73.0,36.0,40.0,40.0,66.0,66,4400.0,square4,f,0.3085,3,N,4.0
NS4,74.0,31.0,38.0,46.0,67.0,67,4467.0,square4,f,0.2546,3,N,4.0
NS4,75.0,40.0,33.0,42.0,64.0,64,4531.0,square4,f,0.2112,3,N,4.0
NS4,76.0,38.0,35.0,42.0,64.0,64,4595.0,square4,f,0.1582,3,N,4.0
NS4,77.0,40.0,35.0,39.0,66.0,66,4661.0,square4,f,0.1603,3,N,4.0
NS4,78.0,40.0,33.0,38.0,68.0,68,4729.0,square4,f,0.1785,3,N,4.0
NS4,79.0,40.0,38.0,31.0,70.0,70,4799.0,square4,f,0.1527,3,N,4.0
NS4,80.0,37.0,35.0,33.0,73.0,73,4872.0,square4,f,0.1615,3,N,4.0
NS4,81.0,34.0,35.0,30.0,70.0,70,4942.0,square4,f,0.1951,3,N,4.0
NS4,82.0,35.0,37.0,31.0,66.0,66,5008.0,square4,f,0.1815,3,N,4.0
NS4,83.0,42.0,32.0,28.0,67.0,67,5075.0,square4,f,0.2515,3,N,4.0
NS4,84.0,38.0,35.0,30.0,68.0,68,5143.0,square4,f,0.1015,3,N,4.0
NS4,85.0,43.0,35.0,32.0,64.0,64,5207.0,square4,f,0.1769,3,N,4.0
NS4,86.0,49.0,35.0,32.0,70.0,70,5277.0,square4,f,0.1163,3,N,4.0
NS4,87.0,48.0,34.0,32.0,69.0,69,5346.0,square4,f,0.208,3,N,4.0
NS4,88.0,50.0,35.0,30.0,64.0,64,5410.0,square4,f,0.1276,3,N,4.0
NS4,89.0,48.0,34.0,32.0,68.0,68,5478.0,square4,f,0.1234,3,N,4.0
NS4,90.0,53.0,29.0,27.0,68.0,53,5531.0,square1,r,0.2437,0,N,4.0
NS4,91.0,54.0,27.0,34.0,68.0,34,5565.0,square3,j,0.1947,2,N,4.0
NS4,92.0,52.0,20.0,35.0,69.0,20,5585.0,square2,i,0.251,1,N,4.0
NS4,93.0,42.0,15.0,33.0,68.0,68,5653.0,square4,f,0.1442,3,N,4.0
NS4,94.0,40.0,24.0,37.0,72.0,72,5725.0,square4,f,0.2198,3,N,4.0
NS4,95.0,43.0,25.0,43.0,69.0,69,5794.0,square4,f,0.0869,3,N,4.0
NS4,96.0,41.0,29.0,43.0,74.0,74,5868.0,square4,f,0.0059,3,N,4.0
NS4,97.0,46.0,32.0,42.0,78.0,78,5946.0,square4,f,0.0607,3,N,4.0
NS4,98.0,48.0,26.0,46.0,75.0,75,6021.0,square4,f,0.0026,3,N,4.0
NS4,99.0,46.0,27.0,45.0,71.0,71,6092.0,square4,f,0.1406,3,N,4.0
V2,0.0,33.0,24.0,43.0,18.0,18,18.0,square4,r,0.5718,3,V,2.0
V2,1.0,33.0,29.0,42.0,21.0,29,47.0,square2,f,0.4185,1,V,2.0
V2,2.0,37.0,26.0,45.0,22.0,37,84.0,square1,j,0.2473,0,V,2.0
V2,3.0,39.0,26.0,41.0,20.0,41,125.0,square3,i,0.2451,2,V,2.0
V2,4.0,29.0,32.0,45.0,19.0,45,170.0,square3,i,0.2431,2,V,2.0
V2,5.0,33.0,28.0,44.0,17.0,44,214.0,square3,i,0.2208,2,V,2.0
V2,6.0,32.0,24.0,49.0,20.0,49,263.0,square3,i,0.3214,2,V,2.0
V2,7.0,32.0,21.0,42.0,13.0,42,305.0,square3,i,0.2951,2,V,2.0
V2,8.0,35.0,23.0,45.0,19.0,45,350.0,square3,i,0.1682,2,V,2.0
V2,9.0,33.0,28.0,46.0,17.0,33,383.0,square1,j,0.2629,0,V,2.0
V2,10.0,39.0,27.0,45.0,21.0,21,404.0,square4,r,0.1356,3,V,2.0
V2,11.0,30.0,23.0,44.0,22.0,23,427.0,square2,f,0.151,1,V,2.0
V2,12.0,31.0,26.0,43.0,16.0,43,470.0,square3,i,0.1383,2,V,2.0
V2,13.0,35.0,26.0,43.0,22.0,43,513.0,square3,i,0.2111,2,V,2.0
V2,14.0,35.0,29.0,46.0,19.0,46,559.0,square3,i,0.1122,2,V,2.0
V2,15.0,36.0,22.0,44.0,20.0,44,603.0,square3,i,0.1377,2,V,2.0
V2,16.0,33.0,27.0,45.0,19.0,45,648.0,square3,i,0.3313,2,V,2.0
V2,17.0,35.0,25.0,41.0,15.0,41,689.0,square3,i,0.1977,2,V,2.0
V2,18.0,37.0,27.0,51.0,21.0,51,740.0,square3,i,0.219,2,V,2.0
V2,19.0,33.0,25.0,43.0,18.0,43,783.0,square3,i,0.2429,2,V,2.0
V2,20.0,39.0,25.0,43.0,20.0,39,822.0,square1,j,0.4432,0,V,2.0
V2,21.0,27.0,32.0,43.0,24.0,24,846.0,square4,r,0.1195,3,V,2.0
V2,22.0,35.0,27.0,50.0,13.0,27,873.0,square2,f,0.0613,1,V,2.0
V2,23.0,36.0,25.0,39.0,17.0,39,912.0,square3,i,0.0485,2,V,2.0
V2,24.0,32.0,45.0,39.0,59.0,32,944.0,square1,j,0.1269,0,V,2.0
V2,25.0,26.0,43.0,37.0,55.0,37,981.0,square3,i,0.1008,2,V,2.0
V2,26.0,23.0,45.0,39.0,58.0,39,1020.0,square3,i,0.1806,2,V,2.0
V2,27.0,30.0,44.0,40.0,56.0,40,1060.0,square3,i,0.1893,2,V,2.0
V2,28.0,34.0,48.0,41.0,54.0,41,1101.0,square3,i,0.1803,2,V,2.0
V2,29.0,29.0,42.0,35.0,54.0,35,1136.0,square3,i,0.1937,2,V,2.0
V2,30.0,22.0,39.0,39.0,55.0,39,1175.0,square3,i,0.0856,2,V,2.0
V2,31.0,32.0,48.0,35.0,50.0,35,1210.0,square3,i,0.242,2,V,2.0
V2,32.0,27.0,47.0,40.0,58.0,58,1268.0,square4,r,0.1284,3,V,2.0
V2,33.0,28.0,46.0,31.0,54.0,46,1314.0,square2,f,0.1481,1,V,2.0
V2,34.0,28.0,44.0,41.0,49.0,28,1342.0,square1,j,0.0511,0,V,2.0
V2,35.0,31.0,44.0,33.0,59.0,59,1401.0,square4,r,0.1441,3,V,2.0
V2,36.0,29.0,48.0,30.0,55.0,55,1456.0,square4,r,0.2319,3,V,2.0
V2,37.0,25.0,45.0,32.0,51.0,51,1507.0,square4,r,0.1937,3,V,2.0
V2,38.0,29.0,48.0,33.0,54.0,54,1561.0,square4,r,0.043,3,V,2.0
V2,39.0,29.0,44.0,33.0,54.0,54,1615.0,square4,r,0.153,3,V,2.0
V2,40.0,33.0,42.0,37.0,61.0,61,1676.0,square4,r,0.1956,3,V,2.0
V2,41.0,28.0,45.0,41.0,57.0,57,1733.0,square4,r,0.1785,3,V,2.0
V2,42.0,33.0,46.0,36.0,54.0,54,1787.0,square4,r,0.0871,3,V,2.0
V2,43.0,31.0,42.0,40.0,57.0,57,1844.0,square4,r,0.1215,3,V,2.0
V2,44.0,27.0,45.0,38.0,56.0,56,1900.0,square4,r,0.1044,3,V,2.0
V2,45.0,27.0,44.0,32.0,51.0,51,1951.0,square4,r,0.1208,3,V,2.0
V2,46.0,28.0,44.0,39.0,57.0,57,2008.0,square4,r,0.178,3,V,2.0
V2,47.0,30.0,45.0,36.0,56.0,56,2064.0,square4,r,0.1526,3,V,2.0
V2,48.0,31.0,47.0,41.0,59.0,59,2123.0,square4,r,0.1624,3,V,2.0
V2,49.0,32.0,45.0,33.0,57.0,57,2180.0,square4,r,0.1035,3,V,2.0
V2,50.0,24.0,38.0,36.0,52.0,52,2232.0,square4,r,0.2286,3,V,2.0
V2,51.0,29.0,48.0,34.0,54.0,54,2286.0,square4,r,0.0607,3,V,2.0
V2,52.0,30.0,50.0,38.0,56.0,56,2342.0,square4,r,0.0932,3,V,2.0
V2,53.0,27.0,47.0,33.0,55.0,47,2389.0,square2,f,0.0012,1,V,2.0
V2,54.0,34.0,21.0,45.0,25.0,34,2423.0,square1,j,0.4165,0,V,2.0
V2,55.0,36.0,19.0,39.0,24.0,39,2462.0,square3,i,0.0478,2,V,2.0
V2,56.0,29.0,19.0,45.0,18.0,18,2480.0,square4,r,0.1646,3,V,2.0
V2,57.0,29.0,20.0,39.0,20.0,20,2500.0,square2,f,0.0817,1,V,2.0
V2,58.0,40.0,18.0,42.0,21.0,40,2540.0,square1,j,0.1775,0,V,2.0
V2,59.0,31.0,17.0,44.0,23.0,44,2584.0,square3,i,0.1119,2,V,2.0
V2,60.0,31.0,19.0,42.0,20.0,42,2626.0,square3,i,0.1451,2,V,2.0
V2,61.0,34.0,16.0,41.0,25.0,41,2667.0,square3,i,0.2164,2,V,2.0
V2,62.0,28.0,12.0,41.0,22.0,41,2708.0,square3,i,0.1135,2,V,2.0
V2,63.0,32.0,14.0,45.0,26.0,45,2753.0,square3,i,0.001,2,V,2.0
V2,64.0,36.0,21.0,41.0,25.0,41,2794.0,square3,i,0.1656,2,V,2.0
V2,65.0,32.0,13.0,39.0,24.0,32,2826.0,square1,j,0.398,0,V,2.0
V2,66.0,35.0,15.0,42.0,20.0,42,2868.0,square3,i,0.0145,2,V,2.0
V2,67.0,30.0,23.0,47.0,27.0,47,2915.0,square3,i,0.2421,2,V,2.0
V2,68.0,31.0,17.0,43.0,24.0,43,2958.0,square3,i,0.2751,2,V,2.0
V2,69.0,33.0,20.0,41.0,20.0,41,2999.0,square3,i,0.051,2,V,2.0
V2,70.0,37.0,17.0,43.0,21.0,43,3042.0,square3,i,0.2331,2,V,2.0
V2,71.0,45.0,31.0,36.0,58.0,36,3078.0,square3,i,0.0679,2,V,2.0
V2,72.0,47.0,31.0,31.0,54.0,31,3109.0,square3,i,0.2558,2,V,2.0
V2,73.0,50.0,30.0,33.0,55.0,55,3164.0,square4,r,0.0753,3,V,2.0
V2,74.0,45.0,31.0,36.0,51.0,31,3195.0,square2,f,0.2221,1,V,2.0
V2,75.0,47.0,28.0,38.0,54.0,47,3242.0,square1,j,0.1102,0,V,2.0
V2,76.0,52.0,33.0,35.0,60.0,60,3302.0,square4,r,0.1989,3,V,2.0
V2,77.0,41.0,29.0,37.0,53.0,53,3355.0,square4,r,0.1513,3,V,2.0
V2,78.0,51.0,24.0,34.0,56.0,56,3411.0,square4,r,0.1614,3,V,2.0
V2,79.0,41.0,34.0,36.0,52.0,52,3463.0,square4,r,0.042,3,V,2.0
V2,80.0,48.0,31.0,37.0,51.0,51,3514.0,square4,r,0.4324,3,V,2.0
V2,81.0,43.0,32.0,40.0,53.0,53,3567.0,square4,r,0.2619,3,V,2.0
V2,82.0,48.0,25.0,37.0,58.0,58,3625.0,square4,r,0.1438,3,V,2.0
V2,83.0,45.0,32.0,36.0,61.0,61,3686.0,square4,r,0.1323,3,V,2.0
V2,84.0,47.0,29.0,39.0,60.0,60,3746.0,square4,r,0.0626,3,V,2.0
V2,85.0,49.0,30.0,39.0,54.0,54,3800.0,square4,r,0.2305,3,V,2.0
V2,86.0,46.0,28.0,33.0,51.0,51,3851.0,square4,r,0.1931,3,V,2.0
V2,87.0,45.0,24.0,37.0,55.0,55,3906.0,square4,r,0.0613,3,V,2.0
V2,88.0,48.0,29.0,42.0,54.0,54,3960.0,square4,r,0.0772,3,V,2.0
V2,89.0,43.0,31.0,38.0,52.0,52,4012.0,square4,r,0.1649,3,V,2.0
V2,90.0,51.0,33.0,36.0,56.0,56,4068.0,square4,r,0.0947,3,V,2.0
V2,91.0,49.0,32.0,37.0,59.0,59,4127.0,square4,r,0.1371,3,V,2.0
V2,92.0,47.0,29.0,37.0,56.0,56,4183.0,square4,r,0.0971,3,V,2.0
V2,93.0,45.0,27.0,35.0,56.0,56,4239.0,square4,r,0.0865,3,V,2.0
V2,94.0,45.0,31.0,31.0,49.0,45,4284.0,square1,j,0.531,0,V,2.0
V2,95.0,47.0,33.0,36.0,52.0,33,4317.0,square2,f,0.0797,1,V,2.0
V2,96.0,44.0,28.0,37.0,59.0,37,4354.0,square3,i,0.139,2,V,2.0
V2,97.0,48.0,28.0,33.0,55.0,55,4409.0,square4,r,0.2116,3,V,2.0
V2,98.0,49.0,29.0,39.0,60.0,60,4469.0,square4,r,0.2125,3,V,2.0
V2,99.0,44.0,30.0,36.0,50.0,50,4519.0,square4,r,0.1321,3,V,2.0
V4,0.0,63.0,38.0,47.0,55.0,99999,0.0,invalid,,,-1,V,4.0
V4,1.0,66.0,42.0,43.0,59.0,43,43.0,square3,r,1.156,2,V,4.0
V4,2.0,66.0,39.0,57.0,59.0,66,109.0,square1,f,0.092,0,V,4.0
V4,3.0,66.0,37.0,51.0,59.0,59,168.0,square4,j,0.113,3,V,4.0
V4,4.0,69.0,37.0,50.0,55.0,37,205.0,square2,i,0.0526,1,V,4.0
V4,5.0,64.0,44.0,46.0,62.0,64,269.0,square1,f,0.0968,0,V,4.0
V4,6.0,75.0,43.0,49.0,57.0,75,344.0,square1,f,0.1523,0,V,4.0
V4,7.0,62.0,41.0,52.0,59.0,62,406.0,square1,f,0.1129,0,V,4.0
V4,8.0,65.0,41.0,44.0,60.0,65,471.0,square1,f,0.0791,0,V,4.0
V4,9.0,68.0,35.0,44.0,64.0,68,539.0,square1,f,0.0841,0,V,4.0
V4,10.0,67.0,44.0,48.0,61.0,67,606.0,square1,f,0.0653,0,V,4.0
V4,11.0,61.0,40.0,48.0,56.0,61,667.0,square1,f,0.1671,0,V,4.0
V4,12.0,68.0,41.0,49.0,55.0,68,735.0,square1,f,0.1321,0,V,4.0
V4,13.0,63.0,42.0,47.0,60.0,63,798.0,square1,f,0.5268,0,V,4.0
V4,14.0,63.0,40.0,51.0,55.0,63,861.0,square1,f,0.1302,0,V,4.0
V4,15.0,62.0,41.0,52.0,62.0,62,923.0,square1,f,0.1478,0,V,4.0
V4,16.0,69.0,37.0,47.0,60.0,69,992.0,square1,f,0.3449,0,V,4.0
V4,17.0,66.0,40.0,48.0,56.0,66,1058.0,square1,f,0.1746,0,V,4.0
V4,18.0,67.0,43.0,47.0,59.0,67,1125.0,square1,f,0.1453,0,V,4.0
V4,19.0,64.0,42.0,51.0,59.0,64,1189.0,square1,f,0.1089,0,V,4.0
V4,20.0,67.0,40.0,47.0,58.0,47,1236.0,square3,r,0.1111,2,V,4.0
V4,21.0,60.0,41.0,50.0,59.0,41,1277.0,square2,i,0.0273,1,V,4.0
V4,22.0,66.0,43.0,54.0,55.0,55,1332.0,square4,j,0.1327,3,V,4.0
V4,23.0,67.0,37.0,50.0,62.0,67,1399.0,square1,f,0.1187,0,V,4.0
V4,24.0,67.0,37.0,49.0,60.0,67,1466.0,square1,f,0.1162,0,V,4.0
V4,25.0,67.0,39.0,55.0,52.0,67,1533.0,square1,f,0.1083,0,V,4.0
V4,26.0,64.0,39.0,51.0,63.0,64,1597.0,square1,f,0.0473,0,V,4.0
V4,27.0,68.0,36.0,55.0,60.0,68,1665.0,square1,f,0.5796,0,V,4.0
V4,28.0,67.0,40.0,46.0,54.0,67,1732.0,square1,f,0.1384,0,V,4.0
V4,29.0,67.0,41.0,50.0,57.0,67,1799.0,square1,f,0.0677,0,V,4.0
V4,30.0,66.0,39.0,49.0,53.0,66,1865.0,square1,f,0.2156,0,V,4.0
V4,31.0,70.0,38.0,48.0,58.0,70,1935.0,square1,f,0.0936,0,V,4.0
V4,32.0,63.0,40.0,53.0,61.0,63,1998.0,square1,f,0.1775,0,V,4.0
V4,33.0,66.0,41.0,51.0,56.0,66,2064.0,square1,f,0.1679,0,V,4.0
V4,34.0,64.0,39.0,46.0,57.0,64,2128.0,square1,f,0.0935,0,V,4.0
V4,35.0,69.0,36.0,50.0,58.0,69,2197.0,square1,f,0.1076,0,V,4.0
V4,36.0,60.0,43.0,53.0,54.0,60,2257.0,square1,f,0.1305,0,V,4.0
V4,37.0,52.0,78.0,68.0,66.0,52,2309.0,square1,f,0.1438,0,V,4.0
V4,38.0,44.0,81.0,68.0,62.0,68,2377.0,square3,r,0.0276,2,V,4.0
V4,39.0,59.0,71.0,70.0,63.0,71,2448.0,square2,i,0.1495,1,V,4.0
V4,40.0,53.0,77.0,73.0,59.0,59,2507.0,square4,j,0.1444,3,V,4.0
V4,41.0,53.0,76.0,74.0,66.0,76,2583.0,square2,i,0.1247,1,V,4.0
V4,42.0,51.0,79.0,73.0,59.0,79,2662.0,square2,i,0.2419,1,V,4.0
V4,43.0,48.0,76.0,68.0,65.0,76,2738.0,square2,i,0.0321,1,V,4.0
V4,44.0,57.0,83.0,78.0,63.0,83,2821.0,square2,i,0.1518,1,V,4.0
V4,45.0,54.0,74.0,69.0,61.0,74,2895.0,square2,i,0.1125,1,V,4.0
V4,46.0,53.0,85.0,66.0,62.0,85,2980.0,square2,i,0.5465,1,V,4.0
V4,47.0,56.0,83.0,68.0,57.0,83,3063.0,square2,i,0.08,1,V,4.0
V4,48.0,49.0,74.0,73.0,59.0,74,3137.0,square2,i,0.1188,1,V,4.0
V4,49.0,54.0,74.0,70.0,60.0,74,3211.0,square2,i,0.0836,1,V,4.0
V4,50.0,47.0,83.0,69.0,60.0,83,3294.0,square2,i,0.0352,1,V,4.0
V4,51.0,54.0,78.0,73.0,56.0,78,3372.0,square2,i,0.0668,1,V,4.0
V4,52.0,52.0,76.0,71.0,58.0,76,3448.0,square2,i,0.1065,1,V,4.0
V4,53.0,51.0,82.0,76.0,63.0,82,3530.0,square2,i,0.034,1,V,4.0
V4,54.0,57.0,76.0,69.0,64.0,76,3606.0,square2,i,0.1471,1,V,4.0
V4,55.0,49.0,75.0,68.0,59.0,75,3681.0,square2,i,0.0592,1,V,4.0
V4,56.0,55.0,81.0,66.0,65.0,81,3762.0,square2,i,0.2295,1,V,4.0
V4,57.0,58.0,80.0,72.0,63.0,80,3842.0,square2,i,0.0442,1,V,4.0
V4,58.0,49.0,81.0,66.0,62.0,81,3923.0,square2,i,0.0105,1,V,4.0
V4,59.0,57.0,78.0,73.0,59.0,78,4001.0,square2,i,0.001,1,V,4.0
V4,60.0,48.0,79.0,66.0,59.0,79,4080.0,square2,i,0.0279,1,V,4.0
V4,61.0,53.0,80.0,72.0,60.0,80,4160.0,square2,i,0.4665,1,V,4.0
V4,62.0,53.0,79.0,70.0,61.0,61,4221.0,square4,j,0.2237,3,V,4.0
V4,63.0,81.0,66.0,90.0,66.0,81,4302.0,square1,f,0.0263,0,V,4.0
V4,64.0,80.0,64.0,85.0,76.0,85,4387.0,square3,r,0.0759,2,V,4.0
V4,65.0,77.0,61.0,92.0,74.0,61,4448.0,square2,i,0.0528,1,V,4.0
V4,66.0,89.0,65.0,91.0,73.0,91,4539.0,square3,r,0.0926,2,V,4.0
V4,67.0,86.0,64.0,92.0,70.0,92,4631.0,square3,r,0.1943,2,V,4.0
V4,68.0,82.0,60.0,91.0,77.0,91,4722.0,square3,r,0.0681,2,V,4.0
V4,69.0,78.0,69.0,90.0,70.0,90,4812.0,square3,r,0.1028,2,V,4.0
V4,70.0,85.0,64.0,95.0,73.0,85,4897.0,square1,f,0.5014,0,V,4.0
V4,71.0,85.0,61.0,88.0,69.0,88,4985.0,square3,r,0.3623,2,V,4.0
V4,72.0,86.0,63.0,87.0,75.0,87,5072.0,square3,r,0.2274,2,V,4.0
V4,73.0,86.0,69.0,92.0,70.0,92,5164.0,square3,r,0.0623,2,V,4.0
V4,74.0,81.0,62.0,90.0,69.0,90,5254.0,square3,r,0.1117,2,V,4.0
V4,75.0,83.0,66.0,88.0,74.0,88,5342.0,square3,r,0.1952,2,V,4.0
V4,76.0,80.0,64.0,92.0,75.0,92,5434.0,square3,r,0.1454,2,V,4.0
V4,77.0,81.0,65.0,91.0,74.0,91,5525.0,square3,r,0.1287,2,V,4.0
V4,78.0,78.0,70.0,89.0,73.0,89,5614.0,square3,r,0.1697,2,V,4.0
V4,79.0,84.0,66.0,85.0,75.0,85,5699.0,square3,r,0.2022,2,V,4.0
V4,80.0,83.0,65.0,93.0,74.0,83,5782.0,square1,f,0.1937,0,V,4.0
V4,81.0,86.0,59.0,91.0,74.0,74,5856.0,square4,j,0.2505,3,V,4.0
V4,82.0,87.0,64.0,92.0,73.0,64,5920.0,square2,i,0.1309,1,V,4.0
V4,83.0,83.0,68.0,86.0,70.0,86,6006.0,square3,r,0.0431,2,V,4.0
V4,84.0,82.0,62.0,87.0,73.0,87,6093.0,square3,r,0.1286,2,V,4.0
V4,85.0,85.0,61.0,90.0,70.0,90,6183.0,square3,r,0.2167,2,V,4.0
V4,86.0,84.0,66.0,97.0,71.0,97,6280.0,square3,r,0.2413,2,V,4.0
V4,87.0,82.0,64.0,87.0,71.0,87,6367.0,square3,r,0.2286,2,V,4.0
V4,88.0,80.0,67.0,93.0,72.0,93,6460.0,square3,r,0.0296,2,V,4.0
V4,89.0,78.0,64.0,92.0,75.0,92,6552.0,square3,r,0.0426,2,V,4.0
V4,90.0,75.0,66.0,88.0,72.0,88,6640.0,square3,r,0.0962,2,V,4.0
V4,91.0,82.0,59.0,91.0,76.0,91,6731.0,square3,r,0.1127,2,V,4.0
V4,92.0,84.0,62.0,91.0,70.0,91,6822.0,square3,r,0.0813,2,V,4.0
V4,93.0,80.0,61.0,94.0,76.0,94,6916.0,square3,r,0.1748,2,V,4.0
V4,94.0,83.0,64.0,88.0,72.0,88,7004.0,square3,r,0.1102,2,V,4.0
V4,95.0,82.0,60.0,94.0,69.0,82,7086.0,square1,f,0.1106,0,V,4.0
V4,96.0,84.0,63.0,92.0,72.0,72,7158.0,square4,j,0.0811,3,V,4.0
V4,97.0,84.0,62.0,85.0,70.0,62,7220.0,square2,i,0.1124,1,V,4.0
V4,98.0,81.0,64.0,93.0,72.0,93,7313.0,square3,r,0.038,2,V,4.0
V4,99.0,80.0,61.0,92.0,75.0,92,7405.0,square3,r,0.2031,2,V,4.0
V10,0.0,28.0,21.0,37.0,46.0,46,46.0,square4,r,0.5558,3,V,10.0
V10,1.0,26.0,19.0,41.0,49.0,19,65.0,square2,f,0.148,1,V,10.0
V10,2.0,29.0,20.0,43.0,48.0,29,94.0,square1,j,0.0811,0,V,10.0
V10,3.0,27.0,27.0,37.0,44.0,37,131.0,square3,i,0.0805,2,V,10.0
V10,4.0,28.0,16.0,36.0,47.0,47,178.0,square4,r,0.0503,3,V,10.0
V10,5.0,33.0,25.0,42.0,54.0,54,232.0,square4,r,0.2005,3,V,10.0
V10,6.0,28.0,19.0,35.0,45.0,45,277.0,square4,r,0.0788,3,V,10.0
V10,7.0,30.0,24.0,35.0,49.0,49,326.0,square4,r,0.1288,3,V,10.0
V10,8.0,37.0,29.0,41.0,47.0,47,373.0,square4,r,0.118,3,V,10.0
V10,9.0,28.0,21.0,41.0,48.0,48,421.0,square4,r,0.0659,3,V,10.0
V10,10.0,27.0,22.0,39.0,42.0,42,463.0,square4,r,0.0627,3,V,10.0
V10,11.0,32.0,16.0,41.0,48.0,48,511.0,square4,r,0.1268,3,V,10.0
V10,12.0,34.0,15.0,33.0,49.0,49,560.0,square4,r,0.046,3,V,10.0
V10,13.0,36.0,19.0,41.0,45.0,45,605.0,square4,r,0.0217,3,V,10.0
V10,14.0,28.0,23.0,35.0,53.0,53,658.0,square4,r,0.2092,3,V,10.0
V10,15.0,26.0,28.0,40.0,50.0,50,708.0,square4,r,0.1273,3,V,10.0
V10,16.0,30.0,25.0,42.0,47.0,47,755.0,square4,r,0.0846,3,V,10.0
V10,17.0,31.0,19.0,38.0,50.0,50,805.0,square4,r,0.0768,3,V,10.0
V10,18.0,34.0,21.0,35.0,48.0,48,853.0,square4,r,0.7129,3,V,10.0
V10,19.0,31.0,24.0,39.0,46.0,46,899.0,square4,r,0.243,3,V,10.0
V10,20.0,28.0,22.0,42.0,47.0,22,921.0,square2,f,0.1651,1,V,10.0
V10,21.0,24.0,20.0,41.0,47.0,24,945.0,square1,j,0.1307,0,V,10.0
V10,22.0,32.0,22.0,34.0,44.0,34,979.0,square3,i,0.1319,2,V,10.0
V10,23.0,29.0,23.0,37.0,47.0,47,1026.0,square4,r,0.0843,3,V,10.0
V10,24.0,25.0,25.0,38.0,46.0,46,1072.0,square4,r,0.1181,3,V,10.0
V10,25.0,30.0,24.0,41.0,45.0,45,1117.0,square4,r,0.1879,3,V,10.0
V10,26.0,32.0,17.0,38.0,49.0,49,1166.0,square4,r,0.0369,3,V,10.0
V10,27.0,34.0,21.0,38.0,47.0,47,1213.0,square4,r,0.0371,3,V,10.0
V10,28.0,29.0,21.0,37.0,45.0,45,1258.0,square4,r,0.0711,3,V,10.0
V10,29.0,30.0,20.0,31.0,47.0,47,1305.0,square4,r,0.0287,3,V,10.0
V10,30.0,28.0,21.0,35.0,44.0,44,1349.0,square4,r,0.417,3,V,10.0
V10,31.0,36.0,25.0,14.0,8.0,8,1357.0,square4,r,0.0189,3,V,10.0
V10,32.0,38.0,27.0,19.0,11.0,27,1384.0,square2,f,0.432,1,V,10.0
V10,33.0,39.0,21.0,20.0,13.0,39,1423.0,square1,j,0.1143,0,V,10.0
V10,34.0,34.0,24.0,20.0,10.0,20,1443.0,square3,i,0.1156,2,V,10.0
V10,35.0,44.0,29.0,17.0,11.0,44,1487.0,square1,j,0.1596,0,V,10.0
V10,36.0,33.0,30.0,17.0,9.0,33,1520.0,square1,j,0.2466,0,V,10.0
V10,37.0,31.0,27.0,12.0,6.0,31,1551.0,square1,j,0.1606,0,V,10.0
V10,38.0,34.0,29.0,15.0,10.0,29,1580.0,square2,f,0.2203,1,V,10.0
V10,39.0,35.0,21.0,19.0,5.0,5,1585.0,square4,r,0.0164,3,V,10.0
V10,40.0,32.0,26.0,18.0,6.0,18,1603.0,square3,i,0.1897,2,V,10.0
V10,41.0,34.0,32.0,13.0,9.0,34,1637.0,square1,j,0.111,0,V,10.0
V10,42.0,35.0,30.0,16.0,8.0,30,1667.0,square2,f,0.0908,1,V,10.0
V10,43.0,38.0,32.0,16.0,8.0,38,1705.0,square1,j,0.0404,0,V,10.0
V10,44.0,34.0,20.0,18.0,3.0,34,1739.0,square1,j,0.1772,0,V,10.0
V10,45.0,38.0,22.0,23.0,9.0,38,1777.0,square1,j,0.0456,0,V,10.0
V10,46.0,36.0,28.0,16.0,10.0,36,1813.0,square1,j,0.0598,0,V,10.0
V10,47.0,36.0,27.0,13.0,8.0,36,1849.0,square1,j,0.3298,0,V,10.0
V10,48.0,35.0,27.0,14.0,12.0,35,1884.0,square1,j,0.1201,0,V,10.0
V10,49.0,33.0,28.0,16.0,10.0,33,1917.0,square1,j,0.1466,0,V,10.0
V10,50.0,31.0,29.0,19.0,8.0,31,1948.0,square1,j,0.2288,0,V,10.0
V10,51.0,32.0,21.0,20.0,12.0,32,1980.0,square1,j,0.1564,0,V,10.0
V10,52.0,29.0,25.0,21.0,10.0,29,2009.0,square1,j,0.2505,0,V,10.0
V10,53.0,39.0,29.0,23.0,2.0,23,2032.0,square3,i,0.143,2,V,10.0
V10,54.0,33.0,28.0,19.0,7.0,28,2060.0,square2,f,0.1132,1,V,10.0
V10,55.0,34.0,24.0,15.0,8.0,8,2068.0,square4,r,0.1482,3,V,10.0
V10,56.0,35.0,20.0,21.0,9.0,35,2103.0,square1,j,0.067,0,V,10.0
V10,57.0,33.0,27.0,19.0,7.0,33,2136.0,square1,j,0.08,0,V,10.0
V10,58.0,38.0,24.0,16.0,7.0,38,2174.0,square1,j,0.0818,0,V,10.0
V10,59.0,34.0,29.0,15.0,5.0,34,2208.0,square1,j,0.25,0,V,10.0
V10,60.0,34.0,22.0,19.0,9.0,34,2242.0,square1,j,0.0492,0,V,10.0
V10,61.0,39.0,31.0,20.0,10.0,39,2281.0,square1,j,0.0984,0,V,10.0
V10,62.0,35.0,24.0,18.0,6.0,35,2316.0,square1,j,0.0985,0,V,10.0
V10,63.0,35.0,26.0,18.0,9.0,35,2351.0,square1,j,0.0301,0,V,10.0
V10,64.0,31.0,55.0,23.0,23.0,31,2382.0,square1,j,0.028,0,V,10.0
V10,65.0,35.0,50.0,22.0,27.0,22,2404.0,square3,i,0.0991,2,V,10.0
V10,66.0,35.0,53.0,25.0,29.0,53,2457.0,square2,f,0.0197,1,V,10.0
V10,67.0,38.0,44.0,17.0,29.0,29,2486.0,square4,r,0.1229,3,V,10.0
V10,68.0,36.0,48.0,22.0,27.0,48,2534.0,square2,f,0.2004,1,V,10.0
V10,69.0,41.0,53.0,17.0,28.0,53,2587.0,square2,f,0.178,1,V,10.0
V10,70.0,40.0,48.0,23.0,28.0,48,2635.0,square2,f,0.0784,1,V,10.0
V10,71.0,39.0,43.0,24.0,20.0,43,2678.0,square2,f,0.1208,1,V,10.0
V10,72.0,36.0,49.0,19.0,25.0,49,2727.0,square2,f,0.1631,1,V,10.0
V10,73.0,39.0,49.0,23.0,32.0,49,2776.0,square2,f,0.0395,1,V,10.0
V10,74.0,36.0,44.0,17.0,29.0,44,2820.0,square2,f,0.113,1,V,10.0
V10,75.0,37.0,46.0,20.0,30.0,46,2866.0,square2,f,0.0747,1,V,10.0
V10,76.0,38.0,47.0,23.0,30.0,47,2913.0,square2,f,0.1206,1,V,10.0
V10,77.0,36.0,49.0,22.0,32.0,49,2962.0,square2,f,0.0321,1,V,10.0
V10,78.0,41.0,44.0,19.0,27.0,44,3006.0,square2,f,0.0636,1,V,10.0
V10,79.0,41.0,48.0,22.0,27.0,48,3054.0,square2,f,0.0284,1,V,10.0
V10,80.0,34.0,44.0,26.0,29.0,44,3098.0,square2,f,0.0335,1,V,10.0
V10,81.0,38.0,47.0,18.0,29.0,47,3145.0,square2,f,0.177,1,V,10.0
V10,82.0,43.0,43.0,23.0,28.0,43,3188.0,square2,f,0.1309,1,V,10.0
V10,83.0,34.0,51.0,23.0,26.0,51,3239.0,square2,f,0.0808,1,V,10.0
V10,84.0,36.0,46.0,18.0,25.0,46,3285.0,square2,f,0.0007,1,V,10.0
V10,85.0,39.0,46.0,25.0,26.0,46,3331.0,square2,f,0.0612,1,V,10.0
V10,86.0,39.0,50.0,27.0,27.0,50,3381.0,square2,f,0.2108,1,V,10.0
V10,87.0,38.0,46.0,20.0,30.0,46,3427.0,square2,f,0.1219,1,V,10.0
V10,88.0,37.0,49.0,22.0,28.0,49,3476.0,square2,f,0.0206,1,V,10.0
V10,89.0,34.0,51.0,25.0,26.0,26,3502.0,square4,r,0.1172,3,V,10.0
V10,90.0,41.0,49.0,22.0,29.0,41,3543.0,square1,j,0.1288,0,V,10.0
V10,91.0,37.0,45.0,26.0,32.0,26,3569.0,square3,i,0.2266,2,V,10.0
V10,92.0,42.0,42.0,27.0,28.0,42,3611.0,square2,f,0.1713,1,V,10.0
V10,93.0,41.0,48.0,19.0,36.0,48,3659.0,square2,f,0.115,1,V,10.0
V10,94.0,43.0,49.0,23.0,31.0,49,3708.0,square2,f,0.1136,1,V,10.0
V10,95.0,39.0,46.0,18.0,27.0,46,3754.0,square2,f,0.0636,1,V,10.0
V10,96.0,37.0,48.0,24.0,27.0,48,3802.0,square2,f,0.1331,1,V,10.0
V10,97.0,42.0,50.0,23.0,31.0,50,3852.0,square2,f,0.0855,1,V,10.0
V10,98.0,33.0,47.0,25.0,32.0,47,3899.0,square2,f,0.23,1,V,10.0
V10,99.0,39.0,48.0,23.0,32.0,48,3947.0,square2,f,0.2984,1,V,10.0
