block,Trial,square1,square2,square3,square4,currPoints,totalPoints,square,choiceKey.keys,choiceKey.rt,armNum,blockType,blockNum
prac,0.0,100.0,0.0,0.0,0.0,0,0.0,square3,,,2,p,0.0
prac,1.0,100.0,0.0,0.0,0.0,100,100.0,square1,,,0,p,0.0
prac,2.0,100.0,0.0,0.0,0.0,100,200.0,square1,,,0,p,0.0
prac,3.0,100.0,0.0,0.0,0.0,100,300.0,square1,,,0,p,0.0
prac,4.0,100.0,0.0,0.0,0.0,100,400.0,square1,,,0,p,0.0
prac,5.0,100.0,0.0,0.0,0.0,100,500.0,square1,,,0,p,0.0
prac,6.0,100.0,0.0,0.0,0.0,100,600.0,square1,,,0,p,0.0
prac,7.0,100.0,0.0,0.0,0.0,100,700.0,square1,,,0,p,0.0
prac,8.0,100.0,0.0,0.0,0.0,100,800.0,square1,,,0,p,0.0
prac,9.0,100.0,0.0,0.0,0.0,100,900.0,square1,,,0,p,0.0
V11,0.0,42.0,67.0,57.0,49.0,49,49.0,square4,r,1.0141,3,V,11.0
V11,1.0,42.0,71.0,60.0,53.0,71,120.0,square2,i,0.2276,1,V,11.0
V11,2.0,45.0,76.0,58.0,51.0,58,178.0,square3,j,0.2427,2,V,11.0
V11,3.0,44.0,65.0,60.0,49.0,44,222.0,square1,f,0.2529,0,V,11.0
V11,4.0,46.0,73.0,64.0,51.0,73,295.0,square2,i,0.1874,1,V,11.0
V11,5.0,47.0,67.0,58.0,54.0,67,362.0,square2,i,0.3145,1,V,11.0
V11,6.0,43.0,68.0,58.0,50.0,58,420.0,square3,j,0.4605,2,V,11.0
V11,7.0,42.0,67.0,60.0,58.0,58,478.0,square4,r,0.0416,3,V,11.0
V11,8.0,44.0,67.0,60.0,53.0,44,522.0,square1,f,0.2275,0,V,11.0
V11,9.0,44.0,67.0,59.0,54.0,59,581.0,square3,j,0.7675,2,V,11.0
V11,10.0,49.0,76.0,57.0,52.0,76,657.0,square2,i,0.0403,1,V,11.0
V11,11.0,45.0,71.0,58.0,51.0,71,728.0,square2,i,0.1545,1,V,11.0
V11,12.0,45.0,72.0,58.0,56.0,72,800.0,square2,i,0.2953,1,V,11.0
V11,13.0,49.0,67.0,63.0,54.0,67,867.0,square2,i,0.0003,1,V,11.0
V11,14.0,50.0,75.0,57.0,48.0,57,924.0,square3,j,0.5435,2,V,11.0
V11,15.0,40.0,71.0,61.0,51.0,51,975.0,square4,r,0.0004,3,V,11.0
V11,16.0,47.0,72.0,56.0,54.0,47,1022.0,square1,f,0.1603,0,V,11.0
V11,17.0,40.0,71.0,61.0,46.0,71,1093.0,square2,i,0.0929,1,V,11.0
V11,18.0,44.0,69.0,59.0,51.0,69,1162.0,square2,i,0.1135,1,V,11.0
V11,19.0,44.0,73.0,59.0,47.0,73,1235.0,square2,i,0.1254,1,V,11.0
V11,20.0,47.0,69.0,64.0,54.0,69,1304.0,square2,i,0.2802,1,V,11.0
V11,21.0,78.0,49.0,70.0,65.0,49,1353.0,square2,i,0.1962,1,V,11.0
V11,22.0,78.0,56.0,73.0,62.0,73,1426.0,square3,j,0.0005,2,V,11.0
V11,23.0,84.0,54.0,71.0,65.0,71,1497.0,square3,j,0.0005,2,V,11.0
V11,24.0,80.0,55.0,72.0,67.0,72,1569.0,square3,j,0.1988,2,V,11.0
V11,25.0,80.0,55.0,75.0,63.0,75,1644.0,square3,j,0.0005,2,V,11.0
V11,26.0,80.0,56.0,67.0,62.0,67,1711.0,square3,j,0.0006,2,V,11.0
V11,27.0,80.0,51.0,68.0,62.0,68,1779.0,square3,j,0.2615,2,V,11.0
V11,28.0,79.0,57.0,67.0,57.0,67,1846.0,square3,j,0.2431,2,V,11.0
V11,29.0,79.0,50.0,67.0,62.0,67,1913.0,square3,j,0.0728,2,V,11.0
V11,30.0,88.0,54.0,74.0,61.0,74,1987.0,square3,j,0.0982,2,V,11.0
V11,31.0,81.0,51.0,75.0,63.0,75,2062.0,square3,j,0.0598,2,V,11.0
V11,32.0,76.0,51.0,69.0,65.0,69,2131.0,square3,j,0.3158,2,V,11.0
V11,33.0,78.0,54.0,72.0,64.0,72,2203.0,square3,j,0.1582,2,V,11.0
V11,34.0,77.0,53.0,71.0,62.0,71,2274.0,square3,j,0.193,2,V,11.0
V11,35.0,74.0,59.0,75.0,62.0,75,2349.0,square3,j,0.0209,2,V,11.0
V11,36.0,79.0,50.0,72.0,62.0,72,2421.0,square3,j,0.3599,2,V,11.0
V11,37.0,74.0,54.0,68.0,62.0,68,2489.0,square3,j,0.0246,2,V,11.0
V11,38.0,80.0,57.0,65.0,58.0,65,2554.0,square3,j,0.115,2,V,11.0
V11,39.0,73.0,52.0,75.0,66.0,75,2629.0,square3,j,0.2054,2,V,11.0
V11,40.0,82.0,57.0,71.0,57.0,71,2700.0,square3,j,0.2879,2,V,11.0
V11,41.0,78.0,53.0,73.0,64.0,73,2773.0,square3,j,0.1665,2,V,11.0
V11,42.0,72.0,56.0,67.0,59.0,67,2840.0,square3,j,0.2437,2,V,11.0
V11,43.0,81.0,54.0,73.0,63.0,73,2913.0,square3,j,0.1764,2,V,11.0
V11,44.0,76.0,54.0,75.0,59.0,75,2988.0,square3,j,0.1727,2,V,11.0
V11,45.0,79.0,59.0,71.0,64.0,71,3059.0,square3,j,0.264,2,V,11.0
V11,46.0,80.0,55.0,67.0,57.0,67,3126.0,square3,j,0.0775,2,V,11.0
V11,47.0,84.0,53.0,75.0,56.0,75,3201.0,square3,j,0.1294,2,V,11.0
V11,48.0,83.0,57.0,71.0,60.0,71,3272.0,square3,j,0.0994,2,V,11.0
V11,49.0,79.0,52.0,71.0,60.0,71,3343.0,square3,j,0.2206,2,V,11.0
V11,50.0,76.0,50.0,69.0,60.0,69,3412.0,square3,j,0.0796,2,V,11.0
V11,51.0,79.0,54.0,72.0,57.0,72,3484.0,square3,j,0.6186,2,V,11.0
V11,52.0,80.0,54.0,72.0,64.0,72,3556.0,square3,j,0.3129,2,V,11.0
V11,53.0,35.0,50.0,55.0,69.0,35,3591.0,square1,f,0.2953,0,V,11.0
V11,54.0,45.0,48.0,55.0,73.0,73,3664.0,square4,r,0.0297,3,V,11.0
V11,55.0,43.0,53.0,58.0,70.0,70,3734.0,square4,r,0.1618,3,V,11.0
V11,56.0,40.0,46.0,60.0,62.0,60,3794.0,square3,j,0.0276,2,V,11.0
V11,57.0,44.0,46.0,53.0,71.0,71,3865.0,square4,r,0.5958,3,V,11.0
V11,58.0,44.0,52.0,55.0,68.0,52,3917.0,square2,i,0.1963,1,V,11.0
V11,59.0,44.0,44.0,57.0,66.0,66,3983.0,square4,r,0.1457,3,V,11.0
V11,60.0,40.0,46.0,57.0,62.0,62,4045.0,square4,r,0.1701,3,V,11.0
V11,61.0,42.0,52.0,58.0,62.0,58,4103.0,square3,j,0.1567,2,V,11.0
V11,62.0,40.0,49.0,56.0,71.0,49,4152.0,square2,i,0.1755,1,V,11.0
V11,63.0,40.0,54.0,60.0,66.0,40,4192.0,square1,f,0.2986,0,V,11.0
V11,64.0,41.0,43.0,51.0,66.0,66,4258.0,square4,r,0.0003,3,V,11.0
V11,65.0,39.0,48.0,59.0,66.0,66,4324.0,square4,r,0.3106,3,V,11.0
V11,66.0,40.0,48.0,59.0,69.0,69,4393.0,square4,r,0.2944,3,V,11.0
V11,67.0,46.0,45.0,58.0,69.0,69,4462.0,square4,r,0.0932,3,V,11.0
V11,68.0,41.0,50.0,56.0,69.0,69,4531.0,square4,r,0.2767,3,V,11.0
V11,69.0,48.0,49.0,57.0,71.0,71,4602.0,square4,r,0.2794,3,V,11.0
V11,70.0,41.0,47.0,58.0,65.0,65,4667.0,square4,r,0.3607,3,V,11.0
V11,71.0,37.0,46.0,58.0,60.0,58,4725.0,square3,j,0.1282,2,V,11.0
V11,72.0,41.0,47.0,54.0,65.0,47,4772.0,square2,i,0.3168,1,V,11.0
V11,73.0,42.0,47.0,60.0,67.0,42,4814.0,square1,f,0.0004,0,V,11.0
V11,74.0,43.0,49.0,57.0,64.0,64,4878.0,square4,r,0.0762,3,V,11.0
V11,75.0,38.0,46.0,57.0,66.0,66,4944.0,square4,r,0.2643,3,V,11.0
V11,76.0,42.0,50.0,58.0,68.0,68,5012.0,square4,r,0.162,3,V,11.0
V11,77.0,36.0,49.0,58.0,64.0,64,5076.0,square4,r,0.1619,3,V,11.0
V11,78.0,40.0,50.0,56.0,67.0,67,5143.0,square4,r,0.2769,3,V,11.0
V11,79.0,39.0,48.0,56.0,67.0,56,5199.0,square3,j,0.129,2,V,11.0
V11,80.0,51.0,33.0,30.0,45.0,45,5244.0,square4,r,0.2605,3,V,11.0
V11,81.0,49.0,31.0,23.0,48.0,31,5275.0,square2,i,0.4722,1,V,11.0
V11,82.0,55.0,30.0,25.0,42.0,55,5330.0,square1,f,0.1792,0,V,11.0
V11,83.0,50.0,33.0,27.0,48.0,27,5357.0,square3,j,0.1478,2,V,11.0
V11,84.0,52.0,34.0,25.0,43.0,52,5409.0,square1,f,0.1303,0,V,11.0
V11,85.0,49.0,28.0,28.0,44.0,49,5458.0,square1,f,0.0545,0,V,11.0
V11,86.0,57.0,29.0,27.0,48.0,57,5515.0,square1,f,0.2945,0,V,11.0
V11,87.0,49.0,29.0,21.0,38.0,49,5564.0,square1,f,0.3784,0,V,11.0
V11,88.0,55.0,32.0,29.0,46.0,55,5619.0,square1,f,0.0833,0,V,11.0
V11,89.0,50.0,28.0,23.0,43.0,50,5669.0,square1,f,0.0644,0,V,11.0
V11,90.0,54.0,34.0,32.0,41.0,54,5723.0,square1,f,0.0741,0,V,11.0
V11,91.0,50.0,34.0,26.0,44.0,34,5757.0,square2,i,0.0783,1,V,11.0
V11,92.0,51.0,31.0,27.0,50.0,51,5808.0,square1,f,0.2647,0,V,11.0
V11,93.0,49.0,38.0,28.0,42.0,49,5857.0,square1,f,0.1676,0,V,11.0
V11,94.0,50.0,29.0,25.0,46.0,50,5907.0,square1,f,0.2338,0,V,11.0
V11,95.0,51.0,36.0,22.0,40.0,22,5929.0,square3,j,0.0807,2,V,11.0
V11,96.0,52.0,34.0,32.0,45.0,45,5974.0,square4,r,0.0965,3,V,11.0
V11,97.0,53.0,27.0,32.0,44.0,53,6027.0,square1,f,0.0434,0,V,11.0
V11,98.0,60.0,31.0,25.0,48.0,60,6087.0,square1,f,0.0394,0,V,11.0
V11,99.0,53.0,33.0,23.0,42.0,53,6140.0,square1,f,0.0005,0,V,11.0
V5,0.0,46.0,21.0,37.0,28.0,99999,0.0,invalid,,,-1,V,5.0
V5,1.0,43.0,27.0,36.0,31.0,27,27.0,square2,r,0.557,1,V,5.0
V5,2.0,50.0,18.0,43.0,32.0,50,77.0,square1,i,0.1538,0,V,5.0
V5,3.0,53.0,23.0,36.0,34.0,34,111.0,square4,j,0.2607,3,V,5.0
V5,4.0,52.0,19.0,38.0,34.0,38,149.0,square3,f,0.155,2,V,5.0
V5,5.0,50.0,22.0,41.0,29.0,50,199.0,square1,i,0.1156,0,V,5.0
V5,6.0,52.0,19.0,40.0,33.0,52,251.0,square1,i,0.1679,0,V,5.0
V5,7.0,48.0,24.0,36.0,27.0,48,299.0,square1,i,0.0734,0,V,5.0
V5,8.0,50.0,24.0,35.0,33.0,50,349.0,square1,i,0.1425,0,V,5.0
V5,9.0,48.0,25.0,39.0,34.0,48,397.0,square1,i,0.0782,0,V,5.0
V5,10.0,52.0,19.0,32.0,34.0,34,431.0,square4,j,0.1642,3,V,5.0
V5,11.0,48.0,22.0,32.0,32.0,32,463.0,square3,f,0.3132,2,V,5.0
V5,12.0,47.0,17.0,43.0,29.0,17,480.0,square2,r,0.0724,1,V,5.0
V5,13.0,46.0,21.0,42.0,29.0,46,526.0,square1,i,0.0437,0,V,5.0
V5,14.0,47.0,28.0,42.0,28.0,47,573.0,square1,i,0.2102,0,V,5.0
V5,15.0,50.0,29.0,38.0,36.0,36,609.0,square4,j,0.0747,3,V,5.0
V5,16.0,49.0,24.0,36.0,34.0,49,658.0,square1,i,0.2926,0,V,5.0
V5,17.0,50.0,20.0,38.0,35.0,50,708.0,square1,i,0.1263,0,V,5.0
V5,18.0,49.0,22.0,46.0,29.0,49,757.0,square1,i,0.0661,0,V,5.0
V5,19.0,46.0,23.0,40.0,31.0,46,803.0,square1,i,0.1634,0,V,5.0
V5,20.0,51.0,22.0,41.0,28.0,51,854.0,square1,i,0.0593,0,V,5.0
V5,21.0,51.0,26.0,36.0,31.0,51,905.0,square1,i,0.0931,0,V,5.0
V5,22.0,47.0,18.0,41.0,28.0,47,952.0,square1,i,0.4471,0,V,5.0
V5,23.0,52.0,20.0,36.0,29.0,52,1004.0,square1,i,0.3258,0,V,5.0
V5,24.0,51.0,21.0,41.0,34.0,51,1055.0,square1,i,0.0793,0,V,5.0
V5,25.0,50.0,20.0,41.0,27.0,50,1105.0,square1,i,0.0745,0,V,5.0
V5,26.0,49.0,29.0,37.0,28.0,49,1154.0,square1,i,0.014,0,V,5.0
V5,27.0,10.0,13.0,42.0,32.0,10,1164.0,square1,i,0.3107,0,V,5.0
V5,28.0,9.0,19.0,40.0,27.0,27,1191.0,square4,j,0.0263,3,V,5.0
V5,29.0,17.0,17.0,38.0,29.0,38,1229.0,square3,f,0.024,2,V,5.0
V5,30.0,8.0,18.0,36.0,29.0,18,1247.0,square2,r,0.1296,1,V,5.0
V5,31.0,16.0,24.0,34.0,29.0,34,1281.0,square3,f,0.5274,2,V,5.0
V5,32.0,9.0,17.0,35.0,31.0,31,1312.0,square4,j,0.1728,3,V,5.0
V5,33.0,11.0,19.0,36.0,28.0,36,1348.0,square3,f,0.0564,2,V,5.0
V5,34.0,10.0,19.0,38.0,28.0,28,1376.0,square4,j,0.2496,3,V,5.0
V5,35.0,5.0,23.0,40.0,34.0,40,1416.0,square3,f,0.0006,2,V,5.0
V5,36.0,17.0,20.0,36.0,31.0,36,1452.0,square3,f,0.3257,2,V,5.0
V5,37.0,12.0,13.0,36.0,30.0,36,1488.0,square3,f,0.2315,2,V,5.0
V5,38.0,14.0,24.0,35.0,27.0,35,1523.0,square3,f,0.1966,2,V,5.0
V5,39.0,13.0,20.0,39.0,32.0,39,1562.0,square3,f,0.1934,2,V,5.0
V5,40.0,9.0,15.0,37.0,24.0,37,1599.0,square3,f,0.2458,2,V,5.0
V5,41.0,9.0,14.0,38.0,31.0,38,1637.0,square3,f,0.0588,2,V,5.0
V5,42.0,14.0,17.0,43.0,31.0,43,1680.0,square3,f,0.139,2,V,5.0
V5,43.0,10.0,18.0,39.0,23.0,39,1719.0,square3,f,0.0597,2,V,5.0
V5,44.0,10.0,20.0,33.0,32.0,33,1752.0,square3,f,0.0721,2,V,5.0
V5,45.0,16.0,17.0,37.0,29.0,29,1781.0,square4,j,0.0778,3,V,5.0
V5,46.0,9.0,22.0,37.0,25.0,22,1803.0,square2,r,0.0209,1,V,5.0
V5,47.0,10.0,22.0,35.0,26.0,35,1838.0,square3,f,0.1558,2,V,5.0
V5,48.0,11.0,16.0,39.0,23.0,11,1849.0,square1,i,0.3937,0,V,5.0
V5,49.0,13.0,16.0,33.0,27.0,33,1882.0,square3,f,0.1706,2,V,5.0
V5,50.0,12.0,16.0,39.0,24.0,39,1921.0,square3,f,0.181,2,V,5.0
V5,51.0,10.0,21.0,43.0,28.0,43,1964.0,square3,f,0.6911,2,V,5.0
V5,52.0,8.0,15.0,36.0,28.0,36,2000.0,square3,f,0.2105,2,V,5.0
V5,53.0,38.0,20.0,31.0,54.0,31,2031.0,square3,f,0.1438,2,V,5.0
V5,54.0,39.0,20.0,35.0,51.0,51,2082.0,square4,j,0.0815,3,V,5.0
V5,55.0,41.0,21.0,27.0,50.0,50,2132.0,square4,j,0.0738,3,V,5.0
V5,56.0,39.0,23.0,28.0,49.0,49,2181.0,square4,j,0.0392,3,V,5.0
V5,57.0,36.0,28.0,29.0,59.0,59,2240.0,square4,j,0.2307,3,V,5.0
V5,58.0,38.0,22.0,28.0,49.0,49,2289.0,square4,j,0.0095,3,V,5.0
V5,59.0,44.0,23.0,30.0,51.0,51,2340.0,square4,j,0.1962,3,V,5.0
V5,60.0,43.0,21.0,31.0,48.0,48,2388.0,square4,j,0.005,3,V,5.0
V5,61.0,39.0,24.0,35.0,50.0,50,2438.0,square4,j,0.0419,3,V,5.0
V5,62.0,38.0,25.0,31.0,52.0,52,2490.0,square4,j,0.0573,3,V,5.0
V5,63.0,41.0,14.0,31.0,52.0,52,2542.0,square4,j,0.0606,3,V,5.0
V5,64.0,43.0,23.0,30.0,51.0,51,2593.0,square4,j,0.2271,3,V,5.0
V5,65.0,41.0,23.0,35.0,52.0,52,2645.0,square4,j,0.23,3,V,5.0
V5,66.0,41.0,17.0,33.0,47.0,47,2692.0,square4,j,0.0005,3,V,5.0
V5,67.0,44.0,23.0,32.0,49.0,49,2741.0,square4,j,0.1822,3,V,5.0
V5,68.0,44.0,24.0,31.0,44.0,44,2785.0,square4,j,0.214,3,V,5.0
V5,69.0,43.0,28.0,27.0,48.0,48,2833.0,square4,j,0.296,3,V,5.0
V5,70.0,38.0,22.0,26.0,50.0,22,2855.0,square2,r,0.0972,1,V,5.0
V5,71.0,41.0,29.0,26.0,53.0,26,2881.0,square3,f,0.2429,2,V,5.0
V5,72.0,40.0,20.0,28.0,51.0,51,2932.0,square4,j,0.1104,3,V,5.0
V5,73.0,59.0,44.0,51.0,35.0,59,2991.0,square1,i,0.0708,0,V,5.0
V5,74.0,60.0,38.0,55.0,43.0,60,3051.0,square1,i,0.4231,0,V,5.0
V5,75.0,63.0,45.0,50.0,37.0,63,3114.0,square1,i,0.1376,0,V,5.0
V5,76.0,62.0,42.0,50.0,37.0,62,3176.0,square1,i,0.1773,0,V,5.0
V5,77.0,57.0,37.0,52.0,35.0,57,3233.0,square1,i,0.0469,0,V,5.0
V5,78.0,66.0,45.0,54.0,37.0,66,3299.0,square1,i,0.1804,0,V,5.0
V5,79.0,64.0,37.0,48.0,35.0,64,3363.0,square1,i,0.1313,0,V,5.0
V5,80.0,63.0,40.0,56.0,38.0,63,3426.0,square1,i,0.4141,0,V,5.0
V5,81.0,62.0,41.0,54.0,32.0,62,3488.0,square1,i,0.2926,0,V,5.0
V5,82.0,58.0,41.0,59.0,39.0,58,3546.0,square1,i,0.111,0,V,5.0
V5,83.0,66.0,46.0,54.0,35.0,66,3612.0,square1,i,0.4259,0,V,5.0
V5,84.0,67.0,44.0,52.0,33.0,33,3645.0,square4,j,0.207,3,V,5.0
V5,85.0,67.0,45.0,46.0,36.0,67,3712.0,square1,i,0.093,0,V,5.0
V5,86.0,65.0,44.0,51.0,38.0,65,3777.0,square1,i,0.0604,0,V,5.0
V5,87.0,64.0,49.0,48.0,35.0,64,3841.0,square1,i,0.2558,0,V,5.0
V5,88.0,68.0,47.0,56.0,36.0,68,3909.0,square1,i,0.0006,0,V,5.0
V5,89.0,60.0,42.0,57.0,32.0,60,3969.0,square1,i,0.2454,0,V,5.0
V5,90.0,59.0,43.0,53.0,34.0,59,4028.0,square1,i,0.0135,0,V,5.0
V5,91.0,64.0,43.0,51.0,34.0,34,4062.0,square4,j,0.4437,3,V,5.0
V5,92.0,65.0,41.0,57.0,38.0,57,4119.0,square3,f,0.0056,2,V,5.0
V5,93.0,59.0,48.0,54.0,40.0,59,4178.0,square1,i,0.2268,0,V,5.0
V5,94.0,66.0,44.0,53.0,43.0,66,4244.0,square1,i,0.0616,0,V,5.0
V5,95.0,63.0,43.0,50.0,40.0,63,4307.0,square1,i,0.081,0,V,5.0
V5,96.0,62.0,44.0,50.0,33.0,62,4369.0,square1,i,0.1941,0,V,5.0
V5,97.0,64.0,49.0,55.0,37.0,49,4418.0,square2,r,0.1498,1,V,5.0
V5,98.0,65.0,44.0,53.0,36.0,65,4483.0,square1,i,0.1114,0,V,5.0
V5,99.0,65.0,42.0,55.0,35.0,65,4548.0,square1,i,0.0216,0,V,5.0
V4,0.0,63.0,38.0,47.0,55.0,63,63.0,square1,r,1.0539,0,V,4.0
V4,1.0,66.0,42.0,43.0,59.0,59,122.0,square4,i,0.1768,3,V,4.0
V4,2.0,66.0,39.0,57.0,59.0,57,179.0,square3,j,0.1141,2,V,4.0
V4,3.0,66.0,37.0,51.0,59.0,37,216.0,square2,f,0.0433,1,V,4.0
V4,4.0,69.0,37.0,50.0,55.0,69,285.0,square1,r,0.176,0,V,4.0
V4,5.0,64.0,44.0,46.0,62.0,64,349.0,square1,r,0.0918,0,V,4.0
V4,6.0,75.0,43.0,49.0,57.0,75,424.0,square1,r,0.1073,0,V,4.0
V4,7.0,62.0,41.0,52.0,59.0,62,486.0,square1,r,0.1092,0,V,4.0
V4,8.0,65.0,41.0,44.0,60.0,65,551.0,square1,r,0.0556,0,V,4.0
V4,9.0,68.0,35.0,44.0,64.0,68,619.0,square1,r,0.207,0,V,4.0
V4,10.0,67.0,44.0,48.0,61.0,67,686.0,square1,r,0.2269,0,V,4.0
V4,11.0,61.0,40.0,48.0,56.0,61,747.0,square1,r,0.2992,0,V,4.0
V4,12.0,68.0,41.0,49.0,55.0,68,815.0,square1,r,0.1092,0,V,4.0
V4,13.0,63.0,42.0,47.0,60.0,60,875.0,square4,i,0.1944,3,V,4.0
V4,14.0,63.0,40.0,51.0,55.0,51,926.0,square3,j,0.0004,2,V,4.0
V4,15.0,62.0,41.0,52.0,62.0,62,988.0,square1,r,0.0456,0,V,4.0
V4,16.0,69.0,37.0,47.0,60.0,69,1057.0,square1,r,0.2225,0,V,4.0
V4,17.0,66.0,40.0,48.0,56.0,40,1097.0,square2,f,0.1621,1,V,4.0
V4,18.0,67.0,43.0,47.0,59.0,67,1164.0,square1,r,0.1455,0,V,4.0
V4,19.0,64.0,42.0,51.0,59.0,64,1228.0,square1,r,0.0648,0,V,4.0
V4,20.0,67.0,40.0,47.0,58.0,67,1295.0,square1,r,0.3227,0,V,4.0
V4,21.0,60.0,41.0,50.0,59.0,60,1355.0,square1,r,0.0518,0,V,4.0
V4,22.0,66.0,43.0,54.0,55.0,66,1421.0,square1,r,0.2132,0,V,4.0
V4,23.0,67.0,37.0,50.0,62.0,67,1488.0,square1,r,0.0028,0,V,4.0
V4,24.0,67.0,37.0,49.0,60.0,67,1555.0,square1,r,0.2076,0,V,4.0
V4,25.0,67.0,39.0,55.0,52.0,67,1622.0,square1,r,0.2942,0,V,4.0
V4,26.0,64.0,39.0,51.0,63.0,64,1686.0,square1,r,0.1815,0,V,4.0
V4,27.0,68.0,36.0,55.0,60.0,68,1754.0,square1,r,0.1102,0,V,4.0
V4,28.0,67.0,40.0,46.0,54.0,67,1821.0,square1,r,0.2378,0,V,4.0
V4,29.0,67.0,41.0,50.0,57.0,67,1888.0,square1,r,0.1223,0,V,4.0
V4,30.0,66.0,39.0,49.0,53.0,53,1941.0,square4,i,0.0277,3,V,4.0
V4,31.0,70.0,38.0,48.0,58.0,70,2011.0,square1,r,0.0791,0,V,4.0
V4,32.0,63.0,40.0,53.0,61.0,63,2074.0,square1,r,0.0962,0,V,4.0
V4,33.0,66.0,41.0,51.0,56.0,66,2140.0,square1,r,0.132,0,V,4.0
V4,34.0,64.0,39.0,46.0,57.0,64,2204.0,square1,r,0.1092,0,V,4.0
V4,35.0,69.0,36.0,50.0,58.0,50,2254.0,square3,j,0.0348,2,V,4.0
V4,36.0,60.0,43.0,53.0,54.0,60,2314.0,square1,r,0.181,0,V,4.0
V4,37.0,52.0,78.0,68.0,66.0,52,2366.0,square1,r,0.2812,0,V,4.0
V4,38.0,44.0,81.0,68.0,62.0,81,2447.0,square2,f,0.1285,1,V,4.0
V4,39.0,59.0,71.0,70.0,63.0,71,2518.0,square2,f,0.217,1,V,4.0
V4,40.0,53.0,77.0,73.0,59.0,77,2595.0,square2,f,0.0211,1,V,4.0
V4,41.0,53.0,76.0,74.0,66.0,76,2671.0,square2,f,0.157,1,V,4.0
V4,42.0,51.0,79.0,73.0,59.0,79,2750.0,square2,f,0.1272,1,V,4.0
V4,43.0,48.0,76.0,68.0,65.0,76,2826.0,square2,f,0.2254,1,V,4.0
V4,44.0,57.0,83.0,78.0,63.0,83,2909.0,square2,f,0.1269,1,V,4.0
V4,45.0,54.0,74.0,69.0,61.0,74,2983.0,square2,f,0.1312,1,V,4.0
V4,46.0,53.0,85.0,66.0,62.0,85,3068.0,square2,f,0.0824,1,V,4.0
V4,47.0,56.0,83.0,68.0,57.0,83,3151.0,square2,f,0.1887,1,V,4.0
V4,48.0,49.0,74.0,73.0,59.0,74,3225.0,square2,f,0.1458,1,V,4.0
V4,49.0,54.0,74.0,70.0,60.0,74,3299.0,square2,f,0.2264,1,V,4.0
V4,50.0,47.0,83.0,69.0,60.0,83,3382.0,square2,f,0.0596,1,V,4.0
V4,51.0,54.0,78.0,73.0,56.0,78,3460.0,square2,f,0.096,1,V,4.0
V4,52.0,52.0,76.0,71.0,58.0,76,3536.0,square2,f,0.2102,1,V,4.0
V4,53.0,51.0,82.0,76.0,63.0,82,3618.0,square2,f,0.2943,1,V,4.0
V4,54.0,57.0,76.0,69.0,64.0,76,3694.0,square2,f,0.2667,1,V,4.0
V4,55.0,49.0,75.0,68.0,59.0,75,3769.0,square2,f,0.0909,1,V,4.0
V4,56.0,55.0,81.0,66.0,65.0,81,3850.0,square2,f,0.1762,1,V,4.0
V4,57.0,58.0,80.0,72.0,63.0,80,3930.0,square2,f,0.1254,1,V,4.0
V4,58.0,49.0,81.0,66.0,62.0,81,4011.0,square2,f,0.0455,1,V,4.0
V4,59.0,57.0,78.0,73.0,59.0,78,4089.0,square2,f,0.077,1,V,4.0
V4,60.0,48.0,79.0,66.0,59.0,79,4168.0,square2,f,0.3928,1,V,4.0
V4,61.0,53.0,80.0,72.0,60.0,80,4248.0,square2,f,0.2264,1,V,4.0
V4,62.0,53.0,79.0,70.0,61.0,79,4327.0,square2,f,0.2262,1,V,4.0
V4,63.0,81.0,66.0,90.0,66.0,66,4393.0,square2,f,0.1212,1,V,4.0
V4,64.0,80.0,64.0,85.0,76.0,64,4457.0,square2,f,0.1941,1,V,4.0
V4,65.0,77.0,61.0,92.0,74.0,92,4549.0,square3,j,0.1564,2,V,4.0
V4,66.0,89.0,65.0,91.0,73.0,91,4640.0,square3,j,0.3595,2,V,4.0
V4,67.0,86.0,64.0,92.0,70.0,92,4732.0,square3,j,0.141,2,V,4.0
V4,68.0,82.0,60.0,91.0,77.0,91,4823.0,square3,j,0.1333,2,V,4.0
V4,69.0,78.0,69.0,90.0,70.0,90,4913.0,square3,j,0.2321,2,V,4.0
V4,70.0,85.0,64.0,95.0,73.0,95,5008.0,square3,j,0.1768,2,V,4.0
V4,71.0,85.0,61.0,88.0,69.0,88,5096.0,square3,j,0.0009,2,V,4.0
V4,72.0,86.0,63.0,87.0,75.0,87,5183.0,square3,j,0.1017,2,V,4.0
V4,73.0,86.0,69.0,92.0,70.0,92,5275.0,square3,j,0.2258,2,V,4.0
V4,74.0,81.0,62.0,90.0,69.0,90,5365.0,square3,j,0.4925,2,V,4.0
V4,75.0,83.0,66.0,88.0,74.0,88,5453.0,square3,j,0.1582,2,V,4.0
V4,76.0,80.0,64.0,92.0,75.0,92,5545.0,square3,j,0.457,2,V,4.0
V4,77.0,81.0,65.0,91.0,74.0,91,5636.0,square3,j,0.5291,2,V,4.0
V4,78.0,78.0,70.0,89.0,73.0,89,5725.0,square3,j,0.294,2,V,4.0
V4,79.0,84.0,66.0,85.0,75.0,85,5810.0,square3,j,0.1411,2,V,4.0
V4,80.0,83.0,65.0,93.0,74.0,93,5903.0,square3,j,0.2219,2,V,4.0
V4,81.0,86.0,59.0,91.0,74.0,91,5994.0,square3,j,0.1925,2,V,4.0
V4,82.0,87.0,64.0,92.0,73.0,92,6086.0,square3,j,0.1934,2,V,4.0
V4,83.0,83.0,68.0,86.0,70.0,70,6156.0,square4,i,0.0956,3,V,4.0
V4,84.0,82.0,62.0,87.0,73.0,82,6238.0,square1,r,1.6934,0,V,4.0
V4,85.0,85.0,61.0,90.0,70.0,61,6299.0,square2,f,0.1969,1,V,4.0
V4,86.0,84.0,66.0,97.0,71.0,97,6396.0,square3,j,0.2096,2,V,4.0
V4,87.0,82.0,64.0,87.0,71.0,87,6483.0,square3,j,0.1258,2,V,4.0
V4,88.0,80.0,67.0,93.0,72.0,93,6576.0,square3,j,0.1378,2,V,4.0
V4,89.0,78.0,64.0,92.0,75.0,92,6668.0,square3,j,0.098,2,V,4.0
V4,90.0,75.0,66.0,88.0,72.0,88,6756.0,square3,j,0.0935,2,V,4.0
V4,91.0,82.0,59.0,91.0,76.0,91,6847.0,square3,j,0.0005,2,V,4.0
V4,92.0,84.0,62.0,91.0,70.0,91,6938.0,square3,j,0.1931,2,V,4.0
V4,93.0,80.0,61.0,94.0,76.0,94,7032.0,square3,j,0.0765,2,V,4.0
V4,94.0,83.0,64.0,88.0,72.0,88,7120.0,square3,j,0.2803,2,V,4.0
V4,95.0,82.0,60.0,94.0,69.0,94,7214.0,square3,j,0.2634,2,V,4.0
V4,96.0,84.0,63.0,92.0,72.0,72,7286.0,square4,i,0.0941,3,V,4.0
V4,97.0,84.0,62.0,85.0,70.0,84,7370.0,square1,r,0.2438,0,V,4.0
V4,98.0,81.0,64.0,93.0,72.0,64,7434.0,square2,f,0.0107,1,V,4.0
V4,99.0,80.0,61.0,92.0,75.0,92,7526.0,square3,j,0.0605,2,V,4.0
S1,0.0,72.0,58.0,70.0,66.0,70,70.0,square3,r,1.2039,2,S,1.0
S1,1.0,75.0,64.0,66.0,69.0,64,134.0,square2,i,0.1474,1,S,1.0
S1,2.0,75.0,62.0,62.0,79.0,79,213.0,square4,j,0.1143,3,S,1.0
S1,3.0,68.0,62.0,63.0,69.0,68,281.0,square1,f,0.1799,0,S,1.0
S1,4.0,82.0,63.0,64.0,73.0,73,354.0,square4,j,0.1211,3,S,1.0
S1,5.0,66.0,70.0,65.0,73.0,73,427.0,square4,j,0.024,3,S,1.0
S1,6.0,73.0,65.0,62.0,65.0,65,492.0,square4,j,0.0473,3,S,1.0
S1,7.0,70.0,61.0,65.0,66.0,66,558.0,square4,j,0.1314,3,S,1.0
S1,8.0,78.0,63.0,67.0,68.0,68,626.0,square4,j,0.0814,3,S,1.0
S1,9.0,74.0,67.0,66.0,68.0,68,694.0,square4,j,0.1109,3,S,1.0
S1,10.0,73.0,59.0,68.0,68.0,68,762.0,square4,j,0.0611,3,S,1.0
S1,11.0,76.0,65.0,62.0,81.0,81,843.0,square4,j,0.144,3,S,1.0
S1,12.0,77.0,66.0,69.0,63.0,63,906.0,square4,j,0.1458,3,S,1.0
S1,13.0,75.0,63.0,68.0,73.0,73,979.0,square4,j,0.0481,3,S,1.0
S1,14.0,67.0,60.0,67.0,69.0,69,1048.0,square4,j,0.1739,3,S,1.0
S1,15.0,70.0,63.0,69.0,73.0,73,1121.0,square4,j,0.1316,3,S,1.0
S1,16.0,69.0,61.0,69.0,69.0,69,1190.0,square4,j,0.1704,3,S,1.0
S1,17.0,73.0,68.0,67.0,73.0,73,1263.0,square4,j,0.2406,3,S,1.0
S1,18.0,70.0,58.0,73.0,66.0,66,1329.0,square4,j,0.1265,3,S,1.0
S1,19.0,75.0,58.0,62.0,68.0,68,1397.0,square4,j,0.14,3,S,1.0
S1,20.0,76.0,58.0,72.0,67.0,58,1455.0,square2,i,0.2052,1,S,1.0
S1,21.0,69.0,66.0,66.0,67.0,66,1521.0,square3,r,0.1855,2,S,1.0
S1,22.0,70.0,68.0,65.0,65.0,70,1591.0,square1,f,0.2258,0,S,1.0
S1,23.0,71.0,60.0,64.0,64.0,64,1655.0,square4,j,0.0802,3,S,1.0
S1,24.0,70.0,72.0,62.0,67.0,67,1722.0,square4,j,0.1604,3,S,1.0
S1,25.0,68.0,60.0,70.0,65.0,65,1787.0,square4,j,0.0289,3,S,1.0
S1,26.0,76.0,64.0,72.0,69.0,76,1863.0,square1,f,0.1276,0,S,1.0
S1,27.0,71.0,56.0,70.0,65.0,71,1934.0,square1,f,0.1992,0,S,1.0
S1,28.0,67.0,67.0,71.0,76.0,67,2001.0,square1,f,0.1736,0,S,1.0
S1,29.0,78.0,64.0,64.0,74.0,78,2079.0,square1,f,0.1293,0,S,1.0
S1,30.0,74.0,63.0,65.0,71.0,74,2153.0,square1,f,0.0394,0,S,1.0
S1,31.0,78.0,58.0,69.0,69.0,78,2231.0,square1,f,0.1768,0,S,1.0
S1,32.0,71.0,67.0,68.0,60.0,71,2302.0,square1,f,0.0939,0,S,1.0
S1,33.0,68.0,63.0,65.0,73.0,68,2370.0,square1,f,0.027,0,S,1.0
S1,34.0,71.0,62.0,74.0,73.0,71,2441.0,square1,f,0.4394,0,S,1.0
S1,35.0,75.0,59.0,67.0,77.0,75,2516.0,square1,f,0.2438,0,S,1.0
S1,36.0,77.0,60.0,66.0,67.0,77,2593.0,square1,f,0.1769,0,S,1.0
S1,37.0,69.0,60.0,69.0,75.0,69,2662.0,square1,f,0.09,0,S,1.0
S1,38.0,77.0,64.0,62.0,70.0,77,2739.0,square1,f,0.1279,0,S,1.0
S1,39.0,72.0,66.0,69.0,65.0,72,2811.0,square1,f,0.1371,0,S,1.0
S1,40.0,69.0,63.0,66.0,69.0,69,2880.0,square1,f,0.0903,0,S,1.0
S1,41.0,72.0,62.0,70.0,70.0,70,2950.0,square3,r,0.0961,2,S,1.0
S1,42.0,78.0,60.0,63.0,62.0,62,3012.0,square4,j,0.113,3,S,1.0
S1,43.0,71.0,62.0,67.0,73.0,67,3079.0,square3,r,0.0455,2,S,1.0
S1,44.0,75.0,63.0,69.0,73.0,69,3148.0,square3,r,0.2458,2,S,1.0
S1,45.0,66.0,60.0,68.0,73.0,66,3214.0,square1,f,0.0005,0,S,1.0
S1,46.0,74.0,67.0,69.0,71.0,69,3283.0,square3,r,0.0005,2,S,1.0
S1,47.0,71.0,66.0,68.0,70.0,71,3354.0,square1,f,0.0341,0,S,1.0
S1,48.0,72.0,75.0,71.0,77.0,72,3426.0,square1,f,0.0978,0,S,1.0
S1,49.0,65.0,57.0,66.0,75.0,65,3491.0,square1,f,0.0164,0,S,1.0
S2,0.0,62.0,57.0,71.0,74.0,71,71.0,square3,f,0.947,2,S,2.0
S2,1.0,64.0,59.0,72.0,67.0,64,135.0,square1,j,0.3283,0,S,2.0
S2,2.0,68.0,57.0,75.0,68.0,68,203.0,square4,i,0.1444,3,S,2.0
S2,3.0,69.0,57.0,80.0,70.0,57,260.0,square2,r,0.2273,1,S,2.0
S2,4.0,66.0,60.0,74.0,68.0,74,334.0,square3,f,0.0123,2,S,2.0
S2,5.0,63.0,62.0,77.0,72.0,77,411.0,square3,f,0.0006,2,S,2.0
S2,6.0,69.0,61.0,75.0,74.0,75,486.0,square3,f,0.1937,2,S,2.0
S2,7.0,74.0,66.0,79.0,72.0,79,565.0,square3,f,0.2045,2,S,2.0
S2,8.0,81.0,65.0,76.0,72.0,76,641.0,square3,f,0.0003,2,S,2.0
S2,9.0,70.0,66.0,78.0,70.0,78,719.0,square3,f,0.0775,2,S,2.0
S2,10.0,70.0,72.0,70.0,74.0,70,789.0,square3,f,0.1766,2,S,2.0
S2,11.0,64.0,66.0,72.0,67.0,72,861.0,square3,f,0.1049,2,S,2.0
S2,12.0,66.0,57.0,70.0,67.0,70,931.0,square3,f,0.0794,2,S,2.0
S2,13.0,68.0,68.0,71.0,73.0,71,1002.0,square3,f,0.1945,2,S,2.0
S2,14.0,70.0,63.0,77.0,71.0,77,1079.0,square3,f,0.077,2,S,2.0
S2,15.0,64.0,66.0,75.0,66.0,75,1154.0,square3,f,0.3446,2,S,2.0
S2,16.0,67.0,61.0,73.0,70.0,73,1227.0,square3,f,0.0054,2,S,2.0
S2,17.0,65.0,58.0,71.0,75.0,71,1298.0,square3,f,0.3936,2,S,2.0
S2,18.0,72.0,64.0,81.0,61.0,81,1379.0,square3,f,0.2441,2,S,2.0
S2,19.0,60.0,63.0,72.0,65.0,72,1451.0,square3,f,0.0467,2,S,2.0
S2,20.0,68.0,56.0,71.0,70.0,71,1522.0,square3,f,0.0107,2,S,2.0
S2,21.0,65.0,65.0,74.0,71.0,74,1596.0,square3,f,0.2607,2,S,2.0
S2,22.0,69.0,62.0,77.0,72.0,77,1673.0,square3,f,0.0263,2,S,2.0
S2,23.0,64.0,71.0,74.0,65.0,74,1747.0,square3,f,0.1271,2,S,2.0
S2,24.0,66.0,62.0,78.0,70.0,78,1825.0,square3,f,0.1605,2,S,2.0
S2,25.0,67.0,69.0,76.0,66.0,76,1901.0,square3,f,0.0634,2,S,2.0
S2,26.0,65.0,63.0,74.0,69.0,74,1975.0,square3,f,0.0951,2,S,2.0
S2,27.0,68.0,64.0,67.0,68.0,67,2042.0,square3,f,0.1109,2,S,2.0
S2,28.0,61.0,52.0,71.0,68.0,71,2113.0,square3,f,0.2269,2,S,2.0
S2,29.0,67.0,64.0,73.0,69.0,73,2186.0,square3,f,0.177,2,S,2.0
S2,30.0,67.0,53.0,77.0,67.0,77,2263.0,square3,f,0.2104,2,S,2.0
S2,31.0,67.0,69.0,69.0,68.0,69,2332.0,square3,f,0.2357,2,S,2.0
S2,32.0,71.0,63.0,73.0,70.0,73,2405.0,square3,f,0.1941,2,S,2.0
S2,33.0,61.0,65.0,68.0,71.0,68,2473.0,square3,f,0.2126,2,S,2.0
S2,34.0,66.0,55.0,78.0,68.0,78,2551.0,square3,f,0.0231,2,S,2.0
S2,35.0,60.0,57.0,66.0,66.0,66,2617.0,square3,f,0.261,2,S,2.0
S2,36.0,64.0,63.0,73.0,72.0,73,2690.0,square3,f,0.2795,2,S,2.0
S2,37.0,65.0,62.0,75.0,68.0,75,2765.0,square3,f,0.1918,2,S,2.0
S2,38.0,69.0,57.0,71.0,62.0,71,2836.0,square3,f,0.1639,2,S,2.0
S2,39.0,72.0,66.0,74.0,74.0,74,2910.0,square3,f,0.2092,2,S,2.0
S2,40.0,66.0,63.0,76.0,59.0,76,2986.0,square3,f,0.4144,2,S,2.0
S2,41.0,74.0,64.0,67.0,76.0,67,3053.0,square3,f,0.045,2,S,2.0
S2,42.0,62.0,67.0,72.0,68.0,72,3125.0,square3,f,0.1549,2,S,2.0
S2,43.0,69.0,63.0,75.0,71.0,75,3200.0,square3,f,0.2163,2,S,2.0
S2,44.0,72.0,60.0,74.0,67.0,74,3274.0,square3,f,0.1567,2,S,2.0
S2,45.0,69.0,63.0,76.0,73.0,76,3350.0,square3,f,0.2096,2,S,2.0
S2,46.0,64.0,71.0,75.0,72.0,75,3425.0,square3,f,0.1287,2,S,2.0
S2,47.0,75.0,62.0,75.0,69.0,75,3500.0,square3,f,1.3904,2,S,2.0
S2,48.0,66.0,65.0,74.0,68.0,74,3574.0,square3,f,0.1125,2,S,2.0
S2,49.0,67.0,64.0,72.0,76.0,72,3646.0,square3,f,0.3883,2,S,2.0
S8,0.0,58.0,60.0,52.0,45.0,52,52.0,square3,r,1.3413,2,S,8.0
S8,1.0,55.0,57.0,56.0,52.0,57,109.0,square2,i,0.1786,1,S,8.0
S8,2.0,54.0,58.0,58.0,49.0,49,158.0,square4,j,0.0766,3,S,8.0
S8,3.0,55.0,62.0,52.0,53.0,55,213.0,square1,f,0.2279,0,S,8.0
S8,4.0,55.0,60.0,49.0,51.0,60,273.0,square2,i,0.0781,1,S,8.0
S8,5.0,48.0,63.0,61.0,49.0,63,336.0,square2,i,0.0932,1,S,8.0
S8,6.0,58.0,63.0,59.0,55.0,63,399.0,square2,i,0.0592,1,S,8.0
S8,7.0,56.0,53.0,49.0,51.0,49,448.0,square3,r,0.2272,2,S,8.0
S8,8.0,61.0,63.0,66.0,49.0,61,509.0,square1,f,0.1947,0,S,8.0
S8,9.0,60.0,59.0,53.0,47.0,47,556.0,square4,j,0.1295,3,S,8.0
S8,10.0,55.0,63.0,52.0,55.0,55,611.0,square1,f,0.0639,0,S,8.0
S8,11.0,62.0,60.0,54.0,50.0,60,671.0,square2,i,0.0127,1,S,8.0
S8,12.0,58.0,64.0,51.0,52.0,64,735.0,square2,i,0.0019,1,S,8.0
S8,13.0,62.0,59.0,53.0,53.0,59,794.0,square2,i,0.1114,1,S,8.0
S8,14.0,51.0,62.0,61.0,54.0,62,856.0,square2,i,0.1794,1,S,8.0
S8,15.0,56.0,68.0,56.0,50.0,68,924.0,square2,i,0.0559,1,S,8.0
S8,16.0,58.0,64.0,56.0,50.0,64,988.0,square2,i,0.0003,1,S,8.0
S8,17.0,64.0,63.0,60.0,42.0,63,1051.0,square2,i,0.1809,1,S,8.0
S8,18.0,54.0,64.0,57.0,55.0,64,1115.0,square2,i,0.0035,1,S,8.0
S8,19.0,56.0,53.0,57.0,53.0,53,1168.0,square2,i,0.307,1,S,8.0
S8,20.0,59.0,64.0,56.0,49.0,64,1232.0,square2,i,0.1275,1,S,8.0
S8,21.0,54.0,59.0,55.0,48.0,59,1291.0,square2,i,0.2479,1,S,8.0
S8,22.0,63.0,63.0,59.0,49.0,63,1354.0,square2,i,0.1894,1,S,8.0
S8,23.0,59.0,60.0,48.0,52.0,60,1414.0,square2,i,0.3269,1,S,8.0
S8,24.0,55.0,53.0,60.0,50.0,53,1467.0,square2,i,0.2379,1,S,8.0
S8,25.0,57.0,60.0,55.0,54.0,60,1527.0,square2,i,0.1142,1,S,8.0
S8,26.0,62.0,66.0,57.0,58.0,66,1593.0,square2,i,0.1775,1,S,8.0
S8,27.0,58.0,55.0,52.0,48.0,55,1648.0,square2,i,0.1978,1,S,8.0
S8,28.0,53.0,59.0,53.0,55.0,59,1707.0,square2,i,0.327,1,S,8.0
S8,29.0,60.0,58.0,57.0,53.0,58,1765.0,square2,i,0.0064,1,S,8.0
S8,30.0,57.0,67.0,52.0,56.0,67,1832.0,square2,i,0.195,1,S,8.0
S8,31.0,60.0,58.0,52.0,50.0,58,1890.0,square2,i,0.127,1,S,8.0
S8,32.0,54.0,61.0,56.0,57.0,61,1951.0,square2,i,0.1408,1,S,8.0
S8,33.0,66.0,64.0,63.0,52.0,64,2015.0,square2,i,0.181,1,S,8.0
S8,34.0,54.0,65.0,66.0,56.0,65,2080.0,square2,i,0.0007,1,S,8.0
S8,35.0,54.0,62.0,61.0,48.0,62,2142.0,square2,i,0.0897,1,S,8.0
S8,36.0,53.0,63.0,54.0,55.0,63,2205.0,square2,i,0.1262,1,S,8.0
S8,37.0,64.0,58.0,57.0,51.0,58,2263.0,square2,i,0.1611,1,S,8.0
S8,38.0,68.0,65.0,59.0,57.0,65,2328.0,square2,i,0.0227,1,S,8.0
S8,39.0,64.0,65.0,51.0,55.0,65,2393.0,square2,i,0.0265,1,S,8.0
S8,40.0,63.0,61.0,57.0,47.0,61,2454.0,square2,i,0.0493,1,S,8.0
S8,41.0,65.0,58.0,55.0,49.0,58,2512.0,square2,i,0.0431,1,S,8.0
S8,42.0,52.0,60.0,51.0,56.0,60,2572.0,square2,i,0.1206,1,S,8.0
S8,43.0,63.0,57.0,48.0,50.0,57,2629.0,square2,i,0.4822,1,S,8.0
S8,44.0,59.0,63.0,53.0,53.0,63,2692.0,square2,i,0.1285,1,S,8.0
S8,45.0,62.0,62.0,60.0,53.0,62,2754.0,square2,i,0.0018,1,S,8.0
S8,46.0,56.0,62.0,57.0,60.0,62,2816.0,square2,i,0.0005,1,S,8.0
S8,47.0,60.0,63.0,58.0,56.0,63,2879.0,square2,i,0.1597,1,S,8.0
S8,48.0,59.0,63.0,49.0,53.0,63,2942.0,square2,i,0.1286,1,S,8.0
S8,49.0,67.0,67.0,59.0,55.0,67,3009.0,square2,i,0.1123,1,S,8.0
S6,0.0,40.0,29.0,39.0,26.0,26,26.0,square4,r,0.8543,3,S,6.0
S6,1.0,34.0,40.0,31.0,25.0,34,60.0,square1,i,0.13,0,S,6.0
S6,2.0,37.0,31.0,25.0,30.0,37,97.0,square1,i,0.2807,0,S,6.0
S6,3.0,39.0,37.0,30.0,27.0,37,134.0,square2,j,0.1221,1,S,6.0
S6,4.0,42.0,40.0,28.0,32.0,28,162.0,square3,f,0.2565,2,S,6.0
S6,5.0,35.0,35.0,39.0,29.0,35,197.0,square2,j,0.1436,1,S,6.0
S6,6.0,48.0,30.0,37.0,33.0,48,245.0,square1,i,0.0005,0,S,6.0
S6,7.0,47.0,34.0,31.0,29.0,34,279.0,square2,j,0.0221,1,S,6.0
S6,8.0,43.0,35.0,30.0,25.0,43,322.0,square1,i,0.0456,0,S,6.0
S6,9.0,36.0,38.0,35.0,35.0,36,358.0,square1,i,0.1414,0,S,6.0
S6,10.0,38.0,35.0,31.0,21.0,38,396.0,square1,i,0.1769,0,S,6.0
S6,11.0,30.0,36.0,31.0,20.0,30,426.0,square1,i,0.1104,0,S,6.0
S6,12.0,37.0,40.0,33.0,22.0,37,463.0,square1,i,0.0024,0,S,6.0
S6,13.0,32.0,41.0,35.0,29.0,41,504.0,square2,j,0.0605,1,S,6.0
S6,14.0,41.0,29.0,30.0,32.0,41,545.0,square1,i,0.3391,0,S,6.0
S6,15.0,43.0,37.0,31.0,27.0,37,582.0,square2,j,0.2103,1,S,6.0
S6,16.0,34.0,34.0,35.0,31.0,34,616.0,square1,i,0.5312,0,S,6.0
S6,17.0,47.0,40.0,29.0,28.0,40,656.0,square2,j,0.08,1,S,6.0
S6,18.0,37.0,38.0,34.0,35.0,38,694.0,square2,j,0.0004,1,S,6.0
S6,19.0,36.0,39.0,31.0,26.0,39,733.0,square2,j,0.0116,1,S,6.0
S6,20.0,44.0,40.0,31.0,25.0,40,773.0,square2,j,0.0004,1,S,6.0
S6,21.0,39.0,41.0,35.0,24.0,41,814.0,square2,j,0.1445,1,S,6.0
S6,22.0,41.0,38.0,41.0,31.0,38,852.0,square2,j,0.0237,1,S,6.0
S6,23.0,37.0,31.0,30.0,32.0,31,883.0,square2,j,0.2321,1,S,6.0
S6,24.0,48.0,34.0,34.0,21.0,34,917.0,square2,j,0.362,1,S,6.0
S6,25.0,42.0,45.0,26.0,29.0,42,959.0,square1,i,0.0005,0,S,6.0
S6,26.0,40.0,39.0,36.0,28.0,40,999.0,square1,i,0.0525,0,S,6.0
S6,27.0,42.0,33.0,29.0,29.0,42,1041.0,square1,i,0.0005,0,S,6.0
S6,28.0,41.0,30.0,29.0,29.0,41,1082.0,square1,i,0.0473,0,S,6.0
S6,29.0,42.0,40.0,32.0,27.0,42,1124.0,square1,i,0.0312,0,S,6.0
S6,30.0,42.0,36.0,30.0,26.0,42,1166.0,square1,i,0.0828,0,S,6.0
S6,31.0,42.0,34.0,35.0,29.0,42,1208.0,square1,i,0.0783,0,S,6.0
S6,32.0,35.0,36.0,31.0,23.0,35,1243.0,square1,i,0.1202,0,S,6.0
S6,33.0,35.0,31.0,35.0,30.0,35,1278.0,square1,i,0.0762,0,S,6.0
S6,34.0,40.0,38.0,31.0,27.0,38,1316.0,square2,j,0.0092,1,S,6.0
S6,35.0,42.0,37.0,34.0,34.0,37,1353.0,square2,j,0.0241,1,S,6.0
S6,36.0,37.0,46.0,31.0,34.0,46,1399.0,square2,j,0.1115,1,S,6.0
S6,37.0,38.0,40.0,30.0,26.0,38,1437.0,square1,i,0.0233,0,S,6.0
S6,38.0,36.0,34.0,31.0,33.0,34,1471.0,square2,j,0.0315,1,S,6.0
S6,39.0,44.0,37.0,33.0,31.0,37,1508.0,square2,j,0.1453,1,S,6.0
S6,40.0,40.0,38.0,31.0,25.0,40,1548.0,square1,i,0.0908,0,S,6.0
S6,41.0,49.0,35.0,35.0,28.0,49,1597.0,square1,i,0.0877,0,S,6.0
S6,42.0,44.0,40.0,32.0,28.0,44,1641.0,square1,i,0.0558,0,S,6.0
S6,43.0,43.0,36.0,33.0,26.0,43,1684.0,square1,i,0.3132,0,S,6.0
S6,44.0,38.0,33.0,34.0,26.0,38,1722.0,square1,i,0.0256,0,S,6.0
S6,45.0,32.0,35.0,30.0,28.0,35,1757.0,square2,j,0.1478,1,S,6.0
S6,46.0,38.0,36.0,34.0,30.0,38,1795.0,square1,i,0.0609,0,S,6.0
S6,47.0,44.0,35.0,32.0,31.0,35,1830.0,square2,j,0.1769,1,S,6.0
S6,48.0,40.0,40.0,31.0,33.0,40,1870.0,square1,i,0.0431,0,S,6.0
S6,49.0,41.0,29.0,29.0,29.0,41,1911.0,square1,i,0.1554,0,S,6.0
S12,0.0,38.0,42.0,30.0,42.0,42,42.0,square2,r,0.8406,1,S,12.0
S12,1.0,30.0,42.0,28.0,37.0,28,70.0,square3,i,0.1274,2,S,12.0
S12,2.0,34.0,41.0,38.0,43.0,34,104.0,square1,j,0.1107,0,S,12.0
S12,3.0,38.0,51.0,38.0,38.0,38,142.0,square4,f,0.0435,3,S,12.0
S12,4.0,32.0,37.0,33.0,45.0,33,175.0,square3,i,0.3094,2,S,12.0
S12,5.0,38.0,52.0,36.0,35.0,52,227.0,square2,r,0.147,1,S,12.0
S12,6.0,30.0,43.0,30.0,38.0,43,270.0,square2,r,0.0005,1,S,12.0
S12,7.0,38.0,39.0,30.0,39.0,39,309.0,square2,r,0.1441,1,S,12.0
S12,8.0,37.0,49.0,35.0,38.0,49,358.0,square2,r,0.1111,1,S,12.0
S12,9.0,37.0,44.0,29.0,38.0,44,402.0,square2,r,0.0294,1,S,12.0
S12,10.0,35.0,42.0,30.0,45.0,42,444.0,square2,r,0.1927,1,S,12.0
S12,11.0,34.0,45.0,36.0,32.0,45,489.0,square2,r,0.0006,1,S,12.0
S12,12.0,33.0,45.0,35.0,42.0,45,534.0,square2,r,0.1266,1,S,12.0
S12,13.0,36.0,36.0,29.0,40.0,36,570.0,square2,r,0.0229,1,S,12.0
S12,14.0,36.0,49.0,32.0,42.0,49,619.0,square2,r,0.1121,1,S,12.0
S12,15.0,35.0,43.0,35.0,46.0,43,662.0,square2,r,0.0068,1,S,12.0
S12,16.0,39.0,48.0,41.0,43.0,48,710.0,square2,r,0.1369,1,S,12.0
S12,17.0,35.0,47.0,27.0,38.0,47,757.0,square2,r,0.0835,1,S,12.0
S12,18.0,37.0,51.0,33.0,33.0,51,808.0,square2,r,0.0981,1,S,12.0
S12,19.0,41.0,42.0,33.0,36.0,42,850.0,square2,r,0.0093,1,S,12.0
S12,20.0,34.0,44.0,26.0,41.0,44,894.0,square2,r,0.1043,1,S,12.0
S12,21.0,35.0,37.0,29.0,35.0,37,931.0,square2,r,0.0932,1,S,12.0
S12,22.0,37.0,48.0,31.0,41.0,48,979.0,square2,r,0.077,1,S,12.0
S12,23.0,36.0,43.0,27.0,45.0,43,1022.0,square2,r,0.0297,1,S,12.0
S12,24.0,39.0,48.0,38.0,38.0,48,1070.0,square2,r,0.4104,1,S,12.0
S12,25.0,31.0,43.0,30.0,40.0,43,1113.0,square2,r,0.2217,1,S,12.0
S12,26.0,35.0,48.0,34.0,33.0,48,1161.0,square2,r,0.0767,1,S,12.0
S12,27.0,46.0,46.0,28.0,38.0,46,1207.0,square2,r,0.1439,1,S,12.0
S12,28.0,32.0,37.0,32.0,40.0,37,1244.0,square2,r,0.1608,1,S,12.0
S12,29.0,38.0,41.0,32.0,44.0,41,1285.0,square2,r,0.0901,1,S,12.0
S12,30.0,32.0,48.0,29.0,42.0,48,1333.0,square2,r,0.2102,1,S,12.0
S12,31.0,34.0,46.0,30.0,42.0,46,1379.0,square2,r,0.1541,1,S,12.0
S12,32.0,39.0,43.0,41.0,40.0,43,1422.0,square2,r,0.0005,1,S,12.0
S12,33.0,36.0,47.0,33.0,46.0,47,1469.0,square2,r,0.1775,1,S,12.0
S12,34.0,36.0,41.0,34.0,41.0,41,1510.0,square2,r,0.3386,1,S,12.0
S12,35.0,34.0,42.0,31.0,43.0,42,1552.0,square2,r,0.212,1,S,12.0
S12,36.0,39.0,43.0,26.0,33.0,43,1595.0,square2,r,0.3121,1,S,12.0
S12,37.0,39.0,49.0,30.0,42.0,49,1644.0,square2,r,0.1273,1,S,12.0
S12,38.0,33.0,47.0,36.0,41.0,47,1691.0,square2,r,0.0635,1,S,12.0
S12,39.0,29.0,46.0,35.0,36.0,46,1737.0,square2,r,0.0084,1,S,12.0
S12,40.0,39.0,39.0,29.0,36.0,39,1776.0,square2,r,0.0948,1,S,12.0
S12,41.0,33.0,44.0,31.0,40.0,44,1820.0,square2,r,0.194,1,S,12.0
S12,42.0,34.0,46.0,25.0,37.0,46,1866.0,square2,r,0.1817,1,S,12.0
S12,43.0,37.0,42.0,30.0,42.0,42,1908.0,square2,r,0.4096,1,S,12.0
S12,44.0,33.0,49.0,36.0,39.0,49,1957.0,square2,r,0.0596,1,S,12.0
S12,45.0,35.0,40.0,30.0,47.0,40,1997.0,square2,r,0.0428,1,S,12.0
S12,46.0,40.0,41.0,29.0,35.0,41,2038.0,square2,r,0.2447,1,S,12.0
S12,47.0,32.0,42.0,28.0,43.0,42,2080.0,square2,r,0.1488,1,S,12.0
S12,48.0,43.0,47.0,31.0,38.0,47,2127.0,square2,r,0.0623,1,S,12.0
S12,49.0,37.0,41.0,35.0,40.0,41,2168.0,square2,r,0.0989,1,S,12.0
S7,0.0,68.0,73.0,62.0,57.0,68,68.0,square1,r,0.6013,0,S,7.0
S7,1.0,74.0,67.0,66.0,59.0,67,135.0,square2,i,0.0603,1,S,7.0
S7,2.0,68.0,69.0,65.0,60.0,60,195.0,square4,j,0.0102,3,S,7.0
S7,3.0,74.0,68.0,65.0,63.0,65,260.0,square3,f,0.172,2,S,7.0
S7,4.0,68.0,74.0,67.0,63.0,68,328.0,square1,r,0.2424,0,S,7.0
S7,5.0,68.0,67.0,61.0,57.0,67,395.0,square2,i,0.0087,1,S,7.0
S7,6.0,72.0,64.0,65.0,51.0,51,446.0,square4,j,0.0005,3,S,7.0
S7,7.0,69.0,63.0,69.0,63.0,69,515.0,square3,f,0.0272,2,S,7.0
S7,8.0,71.0,68.0,63.0,54.0,63,578.0,square3,f,0.0607,2,S,7.0
S7,9.0,81.0,66.0,68.0,62.0,81,659.0,square1,r,0.0005,0,S,7.0
S7,10.0,72.0,73.0,68.0,61.0,72,731.0,square1,r,0.0261,0,S,7.0
S7,11.0,72.0,72.0,62.0,58.0,72,803.0,square2,i,0.11,1,S,7.0
S7,12.0,66.0,66.0,62.0,61.0,66,869.0,square2,i,0.1579,1,S,7.0
S7,13.0,73.0,75.0,75.0,68.0,73,942.0,square1,r,0.029,0,S,7.0
S7,14.0,71.0,73.0,72.0,66.0,72,1014.0,square3,f,0.0736,2,S,7.0
S7,15.0,75.0,68.0,68.0,65.0,68,1082.0,square3,f,0.0571,2,S,7.0
S7,16.0,67.0,65.0,62.0,56.0,67,1149.0,square1,r,0.1595,0,S,7.0
S7,17.0,72.0,67.0,63.0,64.0,72,1221.0,square1,r,0.1877,0,S,7.0
S7,18.0,73.0,69.0,66.0,65.0,73,1294.0,square1,r,0.0399,0,S,7.0
S7,19.0,75.0,70.0,62.0,58.0,75,1369.0,square1,r,0.1563,0,S,7.0
S7,20.0,76.0,63.0,67.0,62.0,76,1445.0,square1,r,0.1262,0,S,7.0
S7,21.0,79.0,76.0,63.0,64.0,79,1524.0,square1,r,0.0539,0,S,7.0
S7,22.0,67.0,72.0,63.0,62.0,67,1591.0,square1,r,0.1599,0,S,7.0
S7,23.0,69.0,71.0,70.0,62.0,69,1660.0,square1,r,0.0599,0,S,7.0
S7,24.0,74.0,67.0,70.0,62.0,74,1734.0,square1,r,0.0942,0,S,7.0
S7,25.0,70.0,67.0,72.0,62.0,72,1806.0,square3,f,0.1664,2,S,7.0
S7,26.0,72.0,62.0,74.0,65.0,72,1878.0,square1,r,0.0005,0,S,7.0
S7,27.0,69.0,70.0,68.0,62.0,69,1947.0,square1,r,0.0759,0,S,7.0
S7,28.0,65.0,66.0,60.0,62.0,65,2012.0,square1,r,0.1429,0,S,7.0
S7,29.0,70.0,64.0,60.0,68.0,70,2082.0,square1,r,0.0538,0,S,7.0
S7,30.0,69.0,69.0,64.0,57.0,69,2151.0,square1,r,0.0508,0,S,7.0
S7,31.0,77.0,67.0,65.0,60.0,65,2216.0,square3,f,0.0052,2,S,7.0
S7,32.0,67.0,75.0,65.0,58.0,67,2283.0,square1,r,0.2465,0,S,7.0
S7,33.0,74.0,66.0,66.0,60.0,74,2357.0,square1,r,0.0768,0,S,7.0
S7,34.0,72.0,72.0,66.0,61.0,72,2429.0,square1,r,0.2436,0,S,7.0
S7,35.0,67.0,68.0,64.0,62.0,67,2496.0,square1,r,0.1282,0,S,7.0
S7,36.0,64.0,63.0,70.0,58.0,64,2560.0,square1,r,0.5609,0,S,7.0
S7,37.0,80.0,72.0,64.0,53.0,80,2640.0,square1,r,0.1107,0,S,7.0
S7,38.0,78.0,69.0,76.0,67.0,78,2718.0,square1,r,0.6616,0,S,7.0
S7,39.0,69.0,66.0,60.0,67.0,69,2787.0,square1,r,0.1456,0,S,7.0
S7,40.0,72.0,71.0,63.0,66.0,72,2859.0,square1,r,0.0098,0,S,7.0
S7,41.0,80.0,73.0,65.0,63.0,80,2939.0,square1,r,0.0282,0,S,7.0
S7,42.0,77.0,60.0,65.0,59.0,77,3016.0,square1,r,0.1058,0,S,7.0
S7,43.0,70.0,72.0,70.0,63.0,70,3086.0,square1,r,0.1776,0,S,7.0
S7,44.0,77.0,70.0,66.0,58.0,77,3163.0,square1,r,0.1107,0,S,7.0
S7,45.0,75.0,69.0,73.0,58.0,75,3238.0,square1,r,0.0824,0,S,7.0
S7,46.0,74.0,71.0,63.0,63.0,74,3312.0,square1,r,0.2272,0,S,7.0
S7,47.0,73.0,75.0,71.0,64.0,73,3385.0,square1,r,0.1226,0,S,7.0
S7,48.0,78.0,79.0,64.0,58.0,78,3463.0,square1,r,0.0771,0,S,7.0
S7,49.0,75.0,72.0,66.0,72.0,75,3538.0,square1,r,0.1106,0,S,7.0
