block,Trial,square1,square2,square3,square4,currPoints,totalPoints,square,choiceKey.keys,choiceKey.rt,armNum,blockType,blockNum
prac,0.0,100.0,0.0,0.0,0.0,0,0.0,square3,,,2,p,0.0
prac,1.0,100.0,0.0,0.0,0.0,100,100.0,square1,,,0,p,0.0
prac,2.0,100.0,0.0,0.0,0.0,0,100.0,square2,,,1,p,0.0
prac,3.0,100.0,0.0,0.0,0.0,0,100.0,square4,,,3,p,0.0
prac,4.0,100.0,0.0,0.0,0.0,100,200.0,square1,,,0,p,0.0
prac,5.0,100.0,0.0,0.0,0.0,100,300.0,square1,,,0,p,0.0
prac,6.0,100.0,0.0,0.0,0.0,100,400.0,square1,,,0,p,0.0
prac,7.0,100.0,0.0,0.0,0.0,100,500.0,square1,,,0,p,0.0
prac,8.0,100.0,0.0,0.0,0.0,99999,500.0,invalid,,,-1,p,0.0
prac,9.0,100.0,0.0,0.0,0.0,0,500.0,square3,,,2,p,0.0
NS8,0.0,61.0,62.0,34.0,32.0,62,62.0,square2,f,1.731,1,N,8.0
NS8,1.0,57.0,56.0,38.0,27.0,38,100.0,square3,i,0.283,2,N,8.0
NS8,2.0,66.0,55.0,42.0,28.0,28,128.0,square4,j,0.126,3,N,8.0
NS8,3.0,67.0,51.0,37.0,28.0,67,195.0,square1,r,0.011,0,N,8.0
NS8,4.0,65.0,53.0,38.0,32.0,53,248.0,square2,f,0.252,1,N,8.0
NS8,5.0,67.0,52.0,43.0,33.0,67,315.0,square1,r,0.008,0,N,8.0
NS8,6.0,56.0,47.0,41.0,36.0,47,362.0,square2,f,0.197,1,N,8.0
NS8,7.0,58.0,46.0,37.0,31.0,58,420.0,square1,r,0.457,0,N,8.0
NS8,8.0,60.0,58.0,36.0,35.0,36,456.0,square3,i,0.239,2,N,8.0
NS8,9.0,60.0,66.0,41.0,39.0,39,495.0,square4,j,0.595,3,N,8.0
NS8,10.0,60.0,60.0,36.0,33.0,60,555.0,square2,f,0.168,1,N,8.0
NS8,11.0,53.0,63.0,32.0,35.0,53,608.0,square1,r,0.016,0,N,8.0
NS8,12.0,51.0,60.0,32.0,29.0,60,668.0,square2,f,0.12,1,N,8.0
NS8,13.0,53.0,65.0,30.0,32.0,65,733.0,square2,f,0.025,1,N,8.0
NS8,14.0,56.0,69.0,25.0,33.0,69,802.0,square2,f,0.0,1,N,8.0
NS8,15.0,57.0,71.0,29.0,35.0,71,873.0,square2,f,0.095,1,N,8.0
NS8,16.0,55.0,64.0,31.0,33.0,64,937.0,square2,f,0.131,1,N,8.0
NS8,17.0,48.0,65.0,29.0,32.0,48,985.0,square1,r,0.019,0,N,8.0
NS8,18.0,44.0,64.0,28.0,34.0,28,1013.0,square3,i,0.387,2,N,8.0
NS8,19.0,46.0,60.0,26.0,33.0,33,1046.0,square4,j,0.12,3,N,8.0
NS8,20.0,41.0,58.0,29.0,35.0,58,1104.0,square2,f,0.164,1,N,8.0
NS8,21.0,45.0,57.0,29.0,35.0,57,1161.0,square2,f,0.142,1,N,8.0
NS8,22.0,47.0,53.0,32.0,32.0,53,1214.0,square2,f,0.104,1,N,8.0
NS8,23.0,49.0,52.0,33.0,35.0,52,1266.0,square2,f,0.132,1,N,8.0
NS8,24.0,56.0,53.0,30.0,37.0,53,1319.0,square2,f,0.179,1,N,8.0
NS8,25.0,57.0,48.0,28.0,42.0,48,1367.0,square2,f,0.198,1,N,8.0
NS8,26.0,52.0,48.0,33.0,43.0,48,1415.0,square2,f,0.196,1,N,8.0
NS8,27.0,53.0,45.0,28.0,47.0,53,1468.0,square1,r,0.159,0,N,8.0
NS8,28.0,50.0,43.0,27.0,41.0,50,1518.0,square1,r,0.179,0,N,8.0
NS8,29.0,53.0,52.0,29.0,43.0,53,1571.0,square1,r,0.046,0,N,8.0
NS8,30.0,54.0,51.0,30.0,41.0,54,1625.0,square1,r,0.032,0,N,8.0
NS8,31.0,50.0,50.0,31.0,42.0,31,1656.0,square3,i,0.04,2,N,8.0
NS8,32.0,50.0,50.0,35.0,43.0,43,1699.0,square4,j,0.001,3,N,8.0
NS8,33.0,46.0,48.0,39.0,41.0,46,1745.0,square1,r,0.101,0,N,8.0
NS8,34.0,47.0,46.0,41.0,40.0,47,1792.0,square1,r,0.016,0,N,8.0
NS8,35.0,57.0,45.0,36.0,37.0,57,1849.0,square1,r,0.173,0,N,8.0
NS8,36.0,53.0,49.0,41.0,38.0,49,1898.0,square2,f,0.15,1,N,8.0
NS8,37.0,57.0,50.0,41.0,39.0,57,1955.0,square1,r,0.144,0,N,8.0
NS8,38.0,61.0,51.0,39.0,43.0,61,2016.0,square1,r,0.262,0,N,8.0
NS8,39.0,59.0,54.0,41.0,36.0,59,2075.0,square1,r,0.367,0,N,8.0
NS8,40.0,53.0,55.0,47.0,40.0,53,2128.0,square1,r,0.136,0,N,8.0
NS8,41.0,53.0,55.0,43.0,39.0,55,2183.0,square2,f,0.228,1,N,8.0
NS8,42.0,59.0,55.0,45.0,40.0,40,2223.0,square4,j,0.113,3,N,8.0
NS8,43.0,54.0,46.0,51.0,37.0,51,2274.0,square3,i,0.098,2,N,8.0
NS8,44.0,56.0,44.0,50.0,35.0,50,2324.0,square3,i,0.01,2,N,8.0
NS8,45.0,51.0,46.0,41.0,37.0,41,2365.0,square3,i,0.054,2,N,8.0
NS8,46.0,52.0,43.0,44.0,34.0,43,2408.0,square2,f,0.118,1,N,8.0
NS8,47.0,46.0,41.0,36.0,37.0,37,2445.0,square4,j,0.025,3,N,8.0
NS8,48.0,47.0,46.0,39.0,37.0,47,2492.0,square1,r,0.162,0,N,8.0
NS8,49.0,48.0,36.0,38.0,40.0,38,2530.0,square3,i,0.149,2,N,8.0
NS8,50.0,51.0,37.0,36.0,46.0,51,2581.0,square1,r,0.198,0,N,8.0
NS8,51.0,53.0,38.0,40.0,43.0,43,2624.0,square4,j,0.146,3,N,8.0
NS8,52.0,47.0,32.0,37.0,44.0,32,2656.0,square2,f,0.247,1,N,8.0
NS8,53.0,52.0,31.0,38.0,46.0,52,2708.0,square1,r,0.114,0,N,8.0
NS8,54.0,44.0,34.0,40.0,45.0,40,2748.0,square3,i,0.079,2,N,8.0
NS8,55.0,46.0,26.0,37.0,41.0,41,2789.0,square4,j,0.163,3,N,8.0
NS8,56.0,42.0,29.0,36.0,40.0,29,2818.0,square2,f,0.135,1,N,8.0
NS8,57.0,39.0,21.0,39.0,40.0,39,2857.0,square1,r,0.138,0,N,8.0
NS8,58.0,42.0,18.0,39.0,40.0,39,2896.0,square3,i,0.144,2,N,8.0
NS8,59.0,46.0,16.0,41.0,39.0,46,2942.0,square1,r,0.089,0,N,8.0
NS8,60.0,45.0,20.0,40.0,39.0,40,2982.0,square3,i,0.081,2,N,8.0
NS8,61.0,45.0,26.0,42.0,39.0,45,3027.0,square1,r,0.092,0,N,8.0
NS8,62.0,46.0,21.0,45.0,37.0,45,3072.0,square3,i,0.081,2,N,8.0
NS8,63.0,50.0,23.0,40.0,38.0,40,3112.0,square3,i,0.165,2,N,8.0
NS8,64.0,46.0,24.0,41.0,33.0,46,3158.0,square1,r,0.182,0,N,8.0
NS8,65.0,48.0,28.0,42.0,32.0,28,3186.0,square2,f,0.025,1,N,8.0
NS8,66.0,47.0,20.0,40.0,35.0,35,3221.0,square4,j,0.001,3,N,8.0
NS8,67.0,49.0,25.0,46.0,34.0,46,3267.0,square3,i,0.122,2,N,8.0
NS8,68.0,47.0,24.0,45.0,33.0,47,3314.0,square1,r,0.001,0,N,8.0
NS8,69.0,45.0,21.0,47.0,35.0,47,3361.0,square3,i,0.068,2,N,8.0
NS8,70.0,44.0,21.0,47.0,37.0,44,3405.0,square1,r,0.016,0,N,8.0
NS8,71.0,44.0,15.0,41.0,38.0,41,3446.0,square3,i,0.152,2,N,8.0
NS8,72.0,47.0,19.0,49.0,40.0,47,3493.0,square1,r,0.283,0,N,8.0
NS8,73.0,39.0,21.0,53.0,38.0,39,3532.0,square1,r,0.101,0,N,8.0
NS8,74.0,42.0,19.0,53.0,35.0,53,3585.0,square3,i,0.003,2,N,8.0
NS8,75.0,37.0,18.0,43.0,35.0,43,3628.0,square3,i,0.113,2,N,8.0
NS8,76.0,35.0,14.0,42.0,38.0,42,3670.0,square3,i,0.047,2,N,8.0
NS8,77.0,38.0,19.0,47.0,44.0,44,3714.0,square4,j,0.036,3,N,8.0
NS8,78.0,38.0,18.0,50.0,46.0,18,3732.0,square2,f,0.263,1,N,8.0
NS8,79.0,33.0,22.0,54.0,44.0,54,3786.0,square3,i,0.102,2,N,8.0
NS8,80.0,38.0,21.0,56.0,52.0,52,3838.0,square4,j,0.036,3,N,8.0
NS8,81.0,37.0,22.0,56.0,43.0,56,3894.0,square3,i,0.075,2,N,8.0
NS8,82.0,30.0,26.0,60.0,42.0,42,3936.0,square4,j,0.038,3,N,8.0
NS8,83.0,38.0,22.0,54.0,46.0,54,3990.0,square3,i,0.28,2,N,8.0
NS8,84.0,33.0,18.0,52.0,46.0,46,4036.0,square4,j,0.21,3,N,8.0
NS8,85.0,42.0,12.0,57.0,48.0,57,4093.0,square3,i,0.162,2,N,8.0
NS8,86.0,45.0,19.0,58.0,42.0,42,4135.0,square4,j,0.063,3,N,8.0
NS8,87.0,46.0,10.0,65.0,44.0,65,4200.0,square3,i,0.198,2,N,8.0
NS8,88.0,45.0,11.0,59.0,45.0,45,4245.0,square4,j,0.213,3,N,8.0
NS8,89.0,42.0,11.0,60.0,47.0,60,4305.0,square3,i,0.104,2,N,8.0
NS8,90.0,40.0,7.0,64.0,49.0,64,4369.0,square3,i,0.0,2,N,8.0
NS8,91.0,42.0,11.0,64.0,48.0,48,4417.0,square4,j,0.324,3,N,8.0
NS8,92.0,43.0,13.0,60.0,43.0,60,4477.0,square3,i,0.106,2,N,8.0
NS8,93.0,44.0,12.0,64.0,45.0,44,4521.0,square1,r,0.067,0,N,8.0
NS8,94.0,45.0,16.0,65.0,49.0,65,4586.0,square3,i,0.062,2,N,8.0
NS8,95.0,45.0,24.0,66.0,42.0,24,4610.0,square2,f,0.129,1,N,8.0
NS8,96.0,53.0,27.0,67.0,44.0,67,4677.0,square3,i,0.046,2,N,8.0
NS8,97.0,50.0,29.0,68.0,43.0,68,4745.0,square3,i,0.104,2,N,8.0
NS8,98.0,52.0,29.0,66.0,37.0,66,4811.0,square3,i,0.0,2,N,8.0
NS8,99.0,53.0,32.0,65.0,37.0,65,4876.0,square3,i,0.065,2,N,8.0
NS11,0.0,78.0,37.0,30.0,78.0,78,78.0,square4,r,0.984,3,N,11.0
NS11,1.0,85.0,34.0,30.0,76.0,30,108.0,square3,f,0.137,2,N,11.0
NS11,2.0,79.0,33.0,36.0,77.0,33,141.0,square2,j,0.08,1,N,11.0
NS11,3.0,82.0,33.0,28.0,72.0,82,223.0,square1,i,0.029,0,N,11.0
NS11,4.0,82.0,34.0,33.0,76.0,76,299.0,square4,r,0.09,3,N,11.0
NS11,5.0,78.0,38.0,32.0,83.0,78,377.0,square1,i,0.04,0,N,11.0
NS11,6.0,78.0,37.0,34.0,77.0,78,455.0,square1,i,0.091,0,N,11.0
NS11,7.0,80.0,30.0,33.0,74.0,80,535.0,square1,i,0.012,0,N,11.0
NS11,8.0,79.0,32.0,30.0,73.0,79,614.0,square1,i,0.005,0,N,11.0
NS11,9.0,81.0,41.0,34.0,61.0,81,695.0,square1,i,0.096,0,N,11.0
NS11,10.0,76.0,38.0,25.0,64.0,76,771.0,square1,i,0.056,0,N,11.0
NS11,11.0,79.0,34.0,27.0,65.0,65,836.0,square4,r,0.16,3,N,11.0
NS11,12.0,81.0,32.0,25.0,68.0,81,917.0,square1,i,0.763,0,N,11.0
NS11,13.0,84.0,36.0,24.0,64.0,84,1001.0,square1,i,0.171,0,N,11.0
NS11,14.0,80.0,30.0,24.0,61.0,80,1081.0,square1,i,0.123,0,N,11.0
NS11,15.0,86.0,33.0,22.0,66.0,86,1167.0,square1,i,0.0,0,N,11.0
NS11,16.0,85.0,32.0,20.0,64.0,85,1252.0,square1,i,0.335,0,N,11.0
NS11,17.0,83.0,32.0,22.0,71.0,83,1335.0,square1,i,0.147,0,N,11.0
NS11,18.0,80.0,31.0,19.0,66.0,19,1354.0,square3,f,0.096,2,N,11.0
NS11,19.0,75.0,40.0,23.0,69.0,40,1394.0,square2,j,0.159,1,N,11.0
NS11,20.0,73.0,37.0,14.0,67.0,67,1461.0,square4,r,0.097,3,N,11.0
NS11,21.0,81.0,34.0,23.0,70.0,81,1542.0,square1,i,0.066,0,N,11.0
NS11,22.0,77.0,39.0,16.0,73.0,77,1619.0,square1,i,0.149,0,N,11.0
NS11,23.0,78.0,30.0,23.0,74.0,78,1697.0,square1,i,0.152,0,N,11.0
NS11,24.0,80.0,32.0,26.0,68.0,80,1777.0,square1,i,0.264,0,N,11.0
NS11,25.0,81.0,29.0,29.0,73.0,81,1858.0,square1,i,0.046,0,N,11.0
NS11,26.0,77.0,31.0,26.0,69.0,77,1935.0,square1,i,0.057,0,N,11.0
NS11,27.0,69.0,47.0,29.0,64.0,69,2004.0,square1,i,0.052,0,N,11.0
NS11,28.0,69.0,39.0,28.0,71.0,69,2073.0,square1,i,0.07,0,N,11.0
NS11,29.0,71.0,41.0,24.0,66.0,71,2144.0,square1,i,0.069,0,N,11.0
NS11,30.0,70.0,40.0,21.0,68.0,68,2212.0,square4,r,0.112,3,N,11.0
NS11,31.0,72.0,44.0,21.0,68.0,72,2284.0,square1,i,0.118,0,N,11.0
NS11,32.0,72.0,41.0,19.0,75.0,72,2356.0,square1,i,0.0,0,N,11.0
NS11,33.0,66.0,48.0,21.0,72.0,66,2422.0,square1,i,0.054,0,N,11.0
NS11,34.0,67.0,48.0,24.0,72.0,67,2489.0,square1,i,0.38,0,N,11.0
NS11,35.0,58.0,52.0,14.0,73.0,58,2547.0,square1,i,0.129,0,N,11.0
NS11,36.0,61.0,52.0,23.0,70.0,70,2617.0,square4,r,1.836,3,N,11.0
NS11,37.0,50.0,55.0,29.0,67.0,67,2684.0,square4,r,0.081,3,N,11.0
NS11,38.0,51.0,54.0,20.0,64.0,64,2748.0,square4,r,0.138,3,N,11.0
NS11,39.0,54.0,49.0,26.0,63.0,63,2811.0,square4,r,0.099,3,N,11.0
NS11,40.0,50.0,47.0,24.0,70.0,70,2881.0,square4,r,0.18,3,N,11.0
NS11,41.0,54.0,46.0,23.0,63.0,63,2944.0,square4,r,0.196,3,N,11.0
NS11,42.0,54.0,47.0,25.0,61.0,54,2998.0,square1,i,0.014,0,N,11.0
NS11,43.0,46.0,49.0,33.0,72.0,33,3031.0,square3,f,0.097,2,N,11.0
NS11,44.0,54.0,50.0,38.0,72.0,50,3081.0,square2,j,0.863,1,N,11.0
NS11,45.0,56.0,53.0,39.0,81.0,81,3162.0,square4,r,0.066,3,N,11.0
NS11,46.0,57.0,55.0,33.0,77.0,77,3239.0,square4,r,0.049,3,N,11.0
NS11,47.0,56.0,51.0,32.0,76.0,76,3315.0,square4,r,0.015,3,N,11.0
NS11,48.0,58.0,49.0,29.0,85.0,85,3400.0,square4,r,0.123,3,N,11.0
NS11,49.0,58.0,53.0,27.0,83.0,83,3483.0,square4,r,0.215,3,N,11.0
NS11,50.0,62.0,49.0,24.0,80.0,80,3563.0,square4,r,0.015,3,N,11.0
NS11,51.0,57.0,55.0,23.0,77.0,77,3640.0,square4,r,0.02,3,N,11.0
NS11,52.0,56.0,55.0,20.0,77.0,77,3717.0,square4,r,0.436,3,N,11.0
NS11,53.0,59.0,56.0,20.0,78.0,78,3795.0,square4,r,0.024,3,N,11.0
NS11,54.0,58.0,57.0,27.0,74.0,74,3869.0,square4,r,0.25,3,N,11.0
NS11,55.0,60.0,55.0,24.0,79.0,60,3929.0,square1,i,0.079,0,N,11.0
NS11,56.0,60.0,52.0,22.0,77.0,77,4006.0,square4,r,0.079,3,N,11.0
NS11,57.0,58.0,55.0,22.0,72.0,72,4078.0,square4,r,0.065,3,N,11.0
NS11,58.0,63.0,52.0,22.0,75.0,75,4153.0,square4,r,0.137,3,N,11.0
NS11,59.0,62.0,56.0,17.0,70.0,70,4223.0,square4,r,0.053,3,N,11.0
NS11,60.0,61.0,55.0,22.0,70.0,70,4293.0,square4,r,0.119,3,N,11.0
NS11,61.0,57.0,52.0,21.0,76.0,76,4369.0,square4,r,0.142,3,N,11.0
NS11,62.0,57.0,48.0,28.0,75.0,75,4444.0,square4,r,0.079,3,N,11.0
NS11,63.0,57.0,58.0,30.0,68.0,57,4501.0,square1,i,0.436,0,N,11.0
NS11,64.0,61.0,61.0,27.0,74.0,74,4575.0,square4,r,0.001,3,N,11.0
NS11,65.0,67.0,63.0,40.0,71.0,40,4615.0,square3,f,0.29,2,N,11.0
NS11,66.0,69.0,55.0,38.0,73.0,55,4670.0,square2,j,0.059,1,N,11.0
NS11,67.0,72.0,57.0,36.0,65.0,65,4735.0,square4,r,0.024,3,N,11.0
NS11,68.0,71.0,61.0,36.0,64.0,64,4799.0,square4,r,0.179,3,N,11.0
NS11,69.0,74.0,66.0,37.0,58.0,74,4873.0,square1,i,0.098,0,N,11.0
NS11,70.0,69.0,60.0,40.0,66.0,69,4942.0,square1,i,0.003,0,N,11.0
NS11,71.0,71.0,58.0,40.0,64.0,71,5013.0,square1,i,0.046,0,N,11.0
NS11,72.0,72.0,58.0,46.0,67.0,72,5085.0,square1,i,0.08,0,N,11.0
NS11,73.0,72.0,56.0,47.0,65.0,72,5157.0,square1,i,0.013,0,N,11.0
NS11,74.0,66.0,54.0,47.0,63.0,54,5211.0,square2,j,0.032,1,N,11.0
NS11,75.0,75.0,53.0,43.0,58.0,43,5254.0,square3,f,0.08,2,N,11.0
NS11,76.0,75.0,48.0,40.0,59.0,75,5329.0,square1,i,0.004,0,N,11.0
NS11,77.0,65.0,48.0,36.0,58.0,58,5387.0,square4,r,0.463,3,N,11.0
NS11,78.0,70.0,45.0,37.0,59.0,70,5457.0,square1,i,0.014,0,N,11.0
NS11,79.0,70.0,41.0,36.0,59.0,70,5527.0,square1,i,0.001,0,N,11.0
NS11,80.0,73.0,43.0,39.0,59.0,73,5600.0,square1,i,0.055,0,N,11.0
NS11,81.0,72.0,39.0,38.0,60.0,72,5672.0,square1,i,0.079,0,N,11.0
NS11,82.0,72.0,39.0,44.0,65.0,72,5744.0,square1,i,0.019,0,N,11.0
NS11,83.0,68.0,38.0,40.0,61.0,68,5812.0,square1,i,0.178,0,N,11.0
NS11,84.0,69.0,36.0,36.0,64.0,69,5881.0,square1,i,0.03,0,N,11.0
NS11,85.0,70.0,34.0,40.0,69.0,70,5951.0,square1,i,0.001,0,N,11.0
NS11,86.0,70.0,32.0,36.0,71.0,71,6022.0,square4,r,0.148,3,N,11.0
NS11,87.0,69.0,31.0,37.0,70.0,70,6092.0,square4,r,0.09,3,N,11.0
NS11,88.0,69.0,34.0,41.0,67.0,41,6133.0,square3,f,0.112,2,N,11.0
NS11,89.0,67.0,39.0,44.0,67.0,39,6172.0,square2,j,0.088,1,N,11.0
NS11,90.0,64.0,33.0,36.0,69.0,69,6241.0,square4,r,0.115,3,N,11.0
NS11,91.0,60.0,33.0,38.0,67.0,67,6308.0,square4,r,0.179,3,N,11.0
NS11,92.0,60.0,33.0,37.0,68.0,68,6376.0,square4,r,0.1,3,N,11.0
NS11,93.0,54.0,36.0,38.0,73.0,54,6430.0,square1,i,0.05,0,N,11.0
NS11,94.0,58.0,35.0,39.0,68.0,68,6498.0,square4,r,0.052,3,N,11.0
NS11,95.0,50.0,38.0,32.0,77.0,77,6575.0,square4,r,0.183,3,N,11.0
NS11,96.0,53.0,42.0,30.0,71.0,71,6646.0,square4,r,0.169,3,N,11.0
NS11,97.0,54.0,38.0,32.0,75.0,75,6721.0,square4,r,0.069,3,N,11.0
NS11,98.0,52.0,48.0,32.0,72.0,72,6793.0,square4,r,0.182,3,N,11.0
NS11,99.0,55.0,45.0,33.0,73.0,73,6866.0,square4,r,0.003,3,N,11.0
NS4,0.0,55.0,53.0,59.0,44.0,53,53.0,square2,r,1.439,1,N,4.0
NS4,1.0,49.0,56.0,64.0,41.0,41,94.0,square4,i,0.809,3,N,4.0
NS4,2.0,50.0,54.0,71.0,48.0,71,165.0,square3,j,0.345,2,N,4.0
NS4,3.0,53.0,58.0,67.0,50.0,53,218.0,square1,f,0.25,0,N,4.0
NS4,4.0,49.0,51.0,70.0,55.0,70,288.0,square3,j,0.268,2,N,4.0
NS4,5.0,55.0,59.0,73.0,58.0,73,361.0,square3,j,0.112,2,N,4.0
NS4,6.0,56.0,54.0,71.0,57.0,71,432.0,square3,j,0.295,2,N,4.0
NS4,7.0,60.0,54.0,75.0,52.0,75,507.0,square3,j,0.132,2,N,4.0
NS4,8.0,58.0,53.0,74.0,52.0,53,560.0,square2,r,0.249,1,N,4.0
NS4,9.0,46.0,48.0,78.0,51.0,51,611.0,square4,i,0.047,3,N,4.0
NS4,10.0,55.0,48.0,78.0,51.0,55,666.0,square1,f,0.033,0,N,4.0
NS4,11.0,55.0,44.0,79.0,49.0,79,745.0,square3,j,0.314,2,N,4.0
NS4,12.0,50.0,40.0,79.0,50.0,79,824.0,square3,j,0.236,2,N,4.0
NS4,13.0,45.0,39.0,79.0,53.0,79,903.0,square3,j,0.025,2,N,4.0
NS4,14.0,44.0,38.0,77.0,56.0,77,980.0,square3,j,0.144,2,N,4.0
NS4,15.0,45.0,32.0,68.0,52.0,68,1048.0,square3,j,0.053,2,N,4.0
NS4,16.0,49.0,32.0,74.0,53.0,74,1122.0,square3,j,0.077,2,N,4.0
NS4,17.0,45.0,32.0,69.0,51.0,69,1191.0,square3,j,0.115,2,N,4.0
NS4,18.0,50.0,34.0,69.0,47.0,69,1260.0,square3,j,0.149,2,N,4.0
NS4,19.0,50.0,36.0,65.0,53.0,53,1313.0,square4,i,0.072,3,N,4.0
NS4,20.0,45.0,36.0,62.0,53.0,45,1358.0,square1,f,0.276,0,N,4.0
NS4,21.0,49.0,35.0,62.0,55.0,35,1393.0,square2,r,0.045,1,N,4.0
NS4,22.0,53.0,32.0,61.0,60.0,61,1454.0,square3,j,0.156,2,N,4.0
NS4,23.0,52.0,33.0,58.0,54.0,58,1512.0,square3,j,0.054,2,N,4.0
NS4,24.0,48.0,32.0,52.0,60.0,52,1564.0,square3,j,0.13,2,N,4.0
NS4,25.0,47.0,30.0,53.0,57.0,53,1617.0,square3,j,0.148,2,N,4.0
NS4,26.0,50.0,30.0,60.0,55.0,55,1672.0,square4,i,0.014,3,N,4.0
NS4,27.0,50.0,28.0,62.0,47.0,50,1722.0,square1,f,0.233,0,N,4.0
NS4,28.0,54.0,28.0,58.0,49.0,28,1750.0,square2,r,0.046,1,N,4.0
NS4,29.0,44.0,29.0,50.0,49.0,49,1799.0,square4,i,0.305,3,N,4.0
NS4,30.0,43.0,26.0,55.0,57.0,57,1856.0,square4,i,0.119,3,N,4.0
NS4,31.0,43.0,25.0,60.0,54.0,60,1916.0,square3,j,0.224,2,N,4.0
NS4,32.0,34.0,27.0,58.0,56.0,58,1974.0,square3,j,0.081,2,N,4.0
NS4,33.0,34.0,20.0,60.0,62.0,60,2034.0,square3,j,0.082,2,N,4.0
NS4,34.0,38.0,28.0,58.0,57.0,58,2092.0,square3,j,0.11,2,N,4.0
NS4,35.0,40.0,24.0,63.0,59.0,63,2155.0,square3,j,0.015,2,N,4.0
NS4,36.0,36.0,30.0,56.0,63.0,56,2211.0,square3,j,0.034,2,N,4.0
NS4,37.0,40.0,29.0,54.0,63.0,40,2251.0,square1,f,0.022,0,N,4.0
NS4,38.0,40.0,33.0,53.0,69.0,33,2284.0,square2,r,0.131,1,N,4.0
NS4,39.0,36.0,30.0,57.0,67.0,67,2351.0,square4,i,0.065,3,N,4.0
NS4,40.0,33.0,33.0,58.0,68.0,58,2409.0,square3,j,0.177,2,N,4.0
NS4,41.0,34.0,28.0,58.0,72.0,72,2481.0,square4,i,0.139,3,N,4.0
NS4,42.0,35.0,30.0,60.0,70.0,70,2551.0,square4,i,0.084,3,N,4.0
NS4,43.0,35.0,34.0,57.0,63.0,63,2614.0,square4,i,0.001,3,N,4.0
NS4,44.0,30.0,32.0,59.0,69.0,69,2683.0,square4,i,0.097,3,N,4.0
NS4,45.0,29.0,31.0,60.0,66.0,66,2749.0,square4,i,0.056,3,N,4.0
NS4,46.0,35.0,34.0,66.0,66.0,66,2815.0,square4,i,0.112,3,N,4.0
NS4,47.0,35.0,28.0,63.0,62.0,62,2877.0,square4,i,0.072,3,N,4.0
NS4,48.0,37.0,37.0,61.0,55.0,55,2932.0,square4,i,0.072,3,N,4.0
NS4,49.0,40.0,34.0,59.0,54.0,54,2986.0,square4,i,0.0,3,N,4.0
NS4,50.0,39.0,38.0,68.0,51.0,51,3037.0,square4,i,0.049,3,N,4.0
NS4,51.0,46.0,28.0,69.0,48.0,48,3085.0,square4,i,0.004,3,N,4.0
NS4,52.0,40.0,34.0,62.0,49.0,62,3147.0,square3,j,0.171,2,N,4.0
NS4,53.0,39.0,34.0,63.0,48.0,63,3210.0,square3,j,0.113,2,N,4.0
NS4,54.0,44.0,31.0,58.0,47.0,58,3268.0,square3,j,0.055,2,N,4.0
NS4,55.0,42.0,30.0,68.0,46.0,68,3336.0,square3,j,0.087,2,N,4.0
NS4,56.0,36.0,25.0,69.0,44.0,69,3405.0,square3,j,0.0,2,N,4.0
NS4,57.0,35.0,29.0,71.0,46.0,71,3476.0,square3,j,0.031,2,N,4.0
NS4,58.0,43.0,28.0,68.0,47.0,68,3544.0,square3,j,0.071,2,N,4.0
NS4,59.0,43.0,27.0,67.0,43.0,67,3611.0,square3,j,0.148,2,N,4.0
NS4,60.0,40.0,25.0,72.0,46.0,72,3683.0,square3,j,0.068,2,N,4.0
NS4,61.0,39.0,32.0,63.0,43.0,63,3746.0,square3,j,0.13,2,N,4.0
NS4,62.0,39.0,29.0,61.0,39.0,61,3807.0,square3,j,0.019,2,N,4.0
NS4,63.0,41.0,28.0,59.0,40.0,59,3866.0,square3,j,0.097,2,N,4.0
NS4,64.0,41.0,31.0,57.0,51.0,57,3923.0,square3,j,0.103,2,N,4.0
NS4,65.0,46.0,36.0,59.0,58.0,46,3969.0,square1,f,0.168,0,N,4.0
NS4,66.0,45.0,36.0,53.0,46.0,36,4005.0,square2,r,0.055,1,N,4.0
NS4,67.0,40.0,34.0,49.0,46.0,46,4051.0,square4,i,0.155,3,N,4.0
NS4,68.0,43.0,37.0,48.0,48.0,48,4099.0,square3,j,0.067,2,N,4.0
NS4,69.0,42.0,36.0,44.0,56.0,56,4155.0,square4,i,0.081,3,N,4.0
NS4,70.0,40.0,38.0,47.0,58.0,58,4213.0,square4,i,0.062,3,N,4.0
NS4,71.0,36.0,34.0,42.0,63.0,63,4276.0,square4,i,0.062,3,N,4.0
NS4,72.0,38.0,36.0,36.0,66.0,66,4342.0,square4,i,0.065,3,N,4.0
NS4,73.0,36.0,40.0,40.0,66.0,36,4378.0,square1,f,0.101,0,N,4.0
NS4,74.0,31.0,38.0,46.0,67.0,67,4445.0,square4,i,0.152,3,N,4.0
NS4,75.0,40.0,33.0,42.0,64.0,64,4509.0,square4,i,0.052,3,N,4.0
NS4,76.0,38.0,35.0,42.0,64.0,64,4573.0,square4,i,0.148,3,N,4.0
NS4,77.0,40.0,35.0,39.0,66.0,66,4639.0,square4,i,0.001,3,N,4.0
NS4,78.0,40.0,33.0,38.0,68.0,68,4707.0,square4,i,0.001,3,N,4.0
NS4,79.0,40.0,38.0,31.0,70.0,70,4777.0,square4,i,0.001,3,N,4.0
NS4,80.0,37.0,35.0,33.0,73.0,73,4850.0,square4,i,0.216,3,N,4.0
NS4,81.0,34.0,35.0,30.0,70.0,70,4920.0,square4,i,0.24,3,N,4.0
NS4,82.0,35.0,37.0,31.0,66.0,66,4986.0,square4,i,0.197,3,N,4.0
NS4,83.0,42.0,32.0,28.0,67.0,67,5053.0,square4,i,0.229,3,N,4.0
NS4,84.0,38.0,35.0,30.0,68.0,68,5121.0,square4,i,0.137,3,N,4.0
NS4,85.0,43.0,35.0,32.0,64.0,64,5185.0,square4,i,0.046,3,N,4.0
NS4,86.0,49.0,35.0,32.0,70.0,70,5255.0,square4,i,0.237,3,N,4.0
NS4,87.0,48.0,34.0,32.0,69.0,69,5324.0,square4,i,0.113,3,N,4.0
NS4,88.0,50.0,35.0,30.0,64.0,64,5388.0,square4,i,0.13,3,N,4.0
NS4,89.0,48.0,34.0,32.0,68.0,68,5456.0,square4,i,0.048,3,N,4.0
NS4,90.0,53.0,29.0,27.0,68.0,27,5483.0,square3,j,0.086,2,N,4.0
NS4,91.0,54.0,27.0,34.0,68.0,54,5537.0,square1,f,1.269,0,N,4.0
NS4,92.0,52.0,20.0,35.0,69.0,20,5557.0,square2,r,0.296,1,N,4.0
NS4,93.0,42.0,15.0,33.0,68.0,68,5625.0,square4,i,0.084,3,N,4.0
NS4,94.0,40.0,24.0,37.0,72.0,72,5697.0,square4,i,0.081,3,N,4.0
NS4,95.0,43.0,25.0,43.0,69.0,69,5766.0,square4,i,0.003,3,N,4.0
NS4,96.0,41.0,29.0,43.0,74.0,74,5840.0,square4,i,0.046,3,N,4.0
NS4,97.0,46.0,32.0,42.0,78.0,78,5918.0,square4,i,0.067,3,N,4.0
NS4,98.0,48.0,26.0,46.0,75.0,75,5993.0,square4,i,0.13,3,N,4.0
NS4,99.0,46.0,27.0,45.0,71.0,71,6064.0,square4,i,0.116,3,N,4.0
V2,0.0,33.0,24.0,43.0,18.0,99999,0.0,invalid,,,-1,V,2.0
V2,1.0,33.0,29.0,42.0,21.0,33,33.0,square1,j,0.719,0,V,2.0
V2,2.0,37.0,26.0,45.0,22.0,22,55.0,square4,f,0.269,3,V,2.0
V2,3.0,39.0,26.0,41.0,20.0,26,81.0,square2,i,0.111,1,V,2.0
V2,4.0,29.0,32.0,45.0,19.0,45,126.0,square3,r,0.004,2,V,2.0
V2,5.0,33.0,28.0,44.0,17.0,33,159.0,square1,j,0.078,0,V,2.0
V2,6.0,32.0,24.0,49.0,20.0,20,179.0,square4,f,0.04,3,V,2.0
V2,7.0,32.0,21.0,42.0,13.0,42,221.0,square3,r,0.112,2,V,2.0
V2,8.0,35.0,23.0,45.0,19.0,19,240.0,square4,f,0.141,3,V,2.0
V2,9.0,33.0,28.0,46.0,17.0,33,273.0,square1,j,0.001,0,V,2.0
V2,10.0,39.0,27.0,45.0,21.0,27,300.0,square2,i,0.147,1,V,2.0
V2,11.0,30.0,23.0,44.0,22.0,44,344.0,square3,r,0.05,2,V,2.0
V2,12.0,31.0,26.0,43.0,16.0,43,387.0,square3,r,0.063,2,V,2.0
V2,13.0,35.0,26.0,43.0,22.0,43,430.0,square3,r,0.169,2,V,2.0
V2,14.0,35.0,29.0,46.0,19.0,35,465.0,square1,j,0.015,0,V,2.0
V2,15.0,36.0,22.0,44.0,20.0,44,509.0,square3,r,0.196,2,V,2.0
V2,16.0,33.0,27.0,45.0,19.0,19,528.0,square4,f,0.037,3,V,2.0
V2,17.0,35.0,25.0,41.0,15.0,25,553.0,square2,i,0.116,1,V,2.0
V2,18.0,37.0,27.0,51.0,21.0,51,604.0,square3,r,0.035,2,V,2.0
V2,19.0,33.0,25.0,43.0,18.0,43,647.0,square3,r,0.196,2,V,2.0
V2,20.0,39.0,25.0,43.0,20.0,43,690.0,square3,r,0.002,2,V,2.0
V2,21.0,27.0,32.0,43.0,24.0,43,733.0,square3,r,0.198,2,V,2.0
V2,22.0,35.0,27.0,50.0,13.0,50,783.0,square3,r,0.082,2,V,2.0
V2,23.0,36.0,25.0,39.0,17.0,39,822.0,square3,r,0.031,2,V,2.0
V2,24.0,32.0,45.0,39.0,59.0,39,861.0,square3,r,0.179,2,V,2.0
V2,25.0,26.0,43.0,37.0,55.0,37,898.0,square3,r,0.078,2,V,2.0
V2,26.0,23.0,45.0,39.0,58.0,39,937.0,square3,r,0.129,2,V,2.0
V2,27.0,30.0,44.0,40.0,56.0,40,977.0,square3,r,0.001,2,V,2.0
V2,28.0,34.0,48.0,41.0,54.0,34,1011.0,square1,j,0.103,0,V,2.0
V2,29.0,29.0,42.0,35.0,54.0,42,1053.0,square2,i,0.012,1,V,2.0
V2,30.0,22.0,39.0,39.0,55.0,55,1108.0,square4,f,0.147,3,V,2.0
V2,31.0,32.0,48.0,35.0,50.0,50,1158.0,square4,f,0.148,3,V,2.0
V2,32.0,27.0,47.0,40.0,58.0,58,1216.0,square4,f,0.182,3,V,2.0
V2,33.0,28.0,46.0,31.0,54.0,54,1270.0,square4,f,0.054,3,V,2.0
V2,34.0,28.0,44.0,41.0,49.0,49,1319.0,square4,f,0.048,3,V,2.0
V2,35.0,31.0,44.0,33.0,59.0,59,1378.0,square4,f,0.011,3,V,2.0
V2,36.0,29.0,48.0,30.0,55.0,55,1433.0,square4,f,0.072,3,V,2.0
V2,37.0,25.0,45.0,32.0,51.0,51,1484.0,square4,f,0.112,3,V,2.0
V2,38.0,29.0,48.0,33.0,54.0,54,1538.0,square4,f,0.233,3,V,2.0
V2,39.0,29.0,44.0,33.0,54.0,33,1571.0,square3,r,0.16,2,V,2.0
V2,40.0,33.0,42.0,37.0,61.0,33,1604.0,square1,j,0.125,0,V,2.0
V2,41.0,28.0,45.0,41.0,57.0,45,1649.0,square2,i,0.001,1,V,2.0
V2,42.0,33.0,46.0,36.0,54.0,54,1703.0,square4,f,0.129,3,V,2.0
V2,43.0,31.0,42.0,40.0,57.0,57,1760.0,square4,f,0.086,3,V,2.0
V2,44.0,27.0,45.0,38.0,56.0,56,1816.0,square4,f,0.054,3,V,2.0
V2,45.0,27.0,44.0,32.0,51.0,51,1867.0,square4,f,0.161,3,V,2.0
V2,46.0,28.0,44.0,39.0,57.0,57,1924.0,square4,f,0.08,3,V,2.0
V2,47.0,30.0,45.0,36.0,56.0,56,1980.0,square4,f,0.186,3,V,2.0
V2,48.0,31.0,47.0,41.0,59.0,59,2039.0,square4,f,0.216,3,V,2.0
V2,49.0,32.0,45.0,33.0,57.0,57,2096.0,square4,f,0.114,3,V,2.0
V2,50.0,24.0,38.0,36.0,52.0,52,2148.0,square4,f,0.113,3,V,2.0
V2,51.0,29.0,48.0,34.0,54.0,54,2202.0,square4,f,0.135,3,V,2.0
V2,52.0,30.0,50.0,38.0,56.0,38,2240.0,square3,r,0.096,2,V,2.0
V2,53.0,27.0,47.0,33.0,55.0,47,2287.0,square2,i,0.109,1,V,2.0
V2,54.0,34.0,21.0,45.0,25.0,34,2321.0,square1,j,0.238,0,V,2.0
V2,55.0,36.0,19.0,39.0,24.0,24,2345.0,square4,f,0.013,3,V,2.0
V2,56.0,29.0,19.0,45.0,18.0,19,2364.0,square2,i,0.146,1,V,2.0
V2,57.0,29.0,20.0,39.0,20.0,39,2403.0,square3,r,0.168,2,V,2.0
V2,58.0,40.0,18.0,42.0,21.0,40,2443.0,square1,j,0.085,0,V,2.0
V2,59.0,31.0,17.0,44.0,23.0,23,2466.0,square4,f,0.099,3,V,2.0
V2,60.0,31.0,19.0,42.0,20.0,19,2485.0,square2,i,0.039,1,V,2.0
V2,61.0,34.0,16.0,41.0,25.0,41,2526.0,square3,r,0.195,2,V,2.0
V2,62.0,28.0,12.0,41.0,22.0,41,2567.0,square3,r,0.062,2,V,2.0
V2,63.0,32.0,14.0,45.0,26.0,45,2612.0,square3,r,0.23,2,V,2.0
V2,64.0,36.0,21.0,41.0,25.0,41,2653.0,square3,r,0.116,2,V,2.0
V2,65.0,32.0,13.0,39.0,24.0,39,2692.0,square3,r,0.013,2,V,2.0
V2,66.0,35.0,15.0,42.0,20.0,42,2734.0,square3,r,0.135,2,V,2.0
V2,67.0,30.0,23.0,47.0,27.0,47,2781.0,square3,r,0.016,2,V,2.0
V2,68.0,31.0,17.0,43.0,24.0,31,2812.0,square1,j,0.083,0,V,2.0
V2,69.0,33.0,20.0,41.0,20.0,20,2832.0,square2,i,0.065,1,V,2.0
V2,70.0,37.0,17.0,43.0,21.0,21,2853.0,square4,f,0.095,3,V,2.0
V2,71.0,45.0,31.0,36.0,58.0,36,2889.0,square3,r,0.138,2,V,2.0
V2,72.0,47.0,31.0,31.0,54.0,31,2920.0,square2,i,0.074,1,V,2.0
V2,73.0,50.0,30.0,33.0,55.0,55,2975.0,square4,f,0.015,3,V,2.0
V2,74.0,45.0,31.0,36.0,51.0,45,3020.0,square1,j,0.068,0,V,2.0
V2,75.0,47.0,28.0,38.0,54.0,54,3074.0,square4,f,0.154,3,V,2.0
V2,76.0,52.0,33.0,35.0,60.0,35,3109.0,square3,r,0.045,2,V,2.0
V2,77.0,41.0,29.0,37.0,53.0,53,3162.0,square4,f,0.062,3,V,2.0
V2,78.0,51.0,24.0,34.0,56.0,56,3218.0,square4,f,0.001,3,V,2.0
V2,79.0,41.0,34.0,36.0,52.0,52,3270.0,square4,f,0.086,3,V,2.0
V2,80.0,48.0,31.0,37.0,51.0,51,3321.0,square4,f,0.114,3,V,2.0
V2,81.0,43.0,32.0,40.0,53.0,53,3374.0,square4,f,0.07,3,V,2.0
V2,82.0,48.0,25.0,37.0,58.0,58,3432.0,square4,f,0.001,3,V,2.0
V2,83.0,45.0,32.0,36.0,61.0,61,3493.0,square4,f,0.165,3,V,2.0
V2,84.0,47.0,29.0,39.0,60.0,60,3553.0,square4,f,0.029,3,V,2.0
V2,85.0,49.0,30.0,39.0,54.0,54,3607.0,square4,f,0.106,3,V,2.0
V2,86.0,46.0,28.0,33.0,51.0,51,3658.0,square4,f,0.172,3,V,2.0
V2,87.0,45.0,24.0,37.0,55.0,55,3713.0,square4,f,0.181,3,V,2.0
V2,88.0,48.0,29.0,42.0,54.0,54,3767.0,square4,f,0.047,3,V,2.0
V2,89.0,43.0,31.0,38.0,52.0,52,3819.0,square4,f,0.083,3,V,2.0
V2,90.0,51.0,33.0,36.0,56.0,56,3875.0,square4,f,0.097,3,V,2.0
V2,91.0,49.0,32.0,37.0,59.0,59,3934.0,square4,f,0.215,3,V,2.0
V2,92.0,47.0,29.0,37.0,56.0,56,3990.0,square4,f,0.097,3,V,2.0
V2,93.0,45.0,27.0,35.0,56.0,56,4046.0,square4,f,0.123,3,V,2.0
V2,94.0,45.0,31.0,31.0,49.0,49,4095.0,square4,f,0.0,3,V,2.0
V2,95.0,47.0,33.0,36.0,52.0,47,4142.0,square1,j,0.404,0,V,2.0
V2,96.0,44.0,28.0,37.0,59.0,28,4170.0,square2,i,0.062,1,V,2.0
V2,97.0,48.0,28.0,33.0,55.0,33,4203.0,square3,r,0.053,2,V,2.0
V2,98.0,49.0,29.0,39.0,60.0,49,4252.0,square1,j,0.014,0,V,2.0
V2,99.0,44.0,30.0,36.0,50.0,50,4302.0,square4,f,0.104,3,V,2.0
V10,0.0,28.0,21.0,37.0,46.0,37,37.0,square3,f,0.832,2,V,10.0
V10,1.0,26.0,19.0,41.0,49.0,26,63.0,square1,i,0.118,0,V,10.0
V10,2.0,29.0,20.0,43.0,48.0,48,111.0,square4,j,0.029,3,V,10.0
V10,3.0,27.0,27.0,37.0,44.0,27,138.0,square2,r,0.18,1,V,10.0
V10,4.0,28.0,16.0,36.0,47.0,47,185.0,square4,j,0.13,3,V,10.0
V10,5.0,33.0,25.0,42.0,54.0,54,239.0,square4,j,0.13,3,V,10.0
V10,6.0,28.0,19.0,35.0,45.0,35,274.0,square3,f,0.146,2,V,10.0
V10,7.0,30.0,24.0,35.0,49.0,30,304.0,square1,i,0.045,0,V,10.0
V10,8.0,37.0,29.0,41.0,47.0,47,351.0,square4,j,0.126,3,V,10.0
V10,9.0,28.0,21.0,41.0,48.0,48,399.0,square4,j,0.102,3,V,10.0
V10,10.0,27.0,22.0,39.0,42.0,42,441.0,square4,j,0.079,3,V,10.0
V10,11.0,32.0,16.0,41.0,48.0,48,489.0,square4,j,0.153,3,V,10.0
V10,12.0,34.0,15.0,33.0,49.0,49,538.0,square4,j,0.047,3,V,10.0
V10,13.0,36.0,19.0,41.0,45.0,45,583.0,square4,j,0.195,3,V,10.0
V10,14.0,28.0,23.0,35.0,53.0,53,636.0,square4,j,0.164,3,V,10.0
V10,15.0,26.0,28.0,40.0,50.0,50,686.0,square4,j,0.111,3,V,10.0
V10,16.0,30.0,25.0,42.0,47.0,47,733.0,square4,j,0.028,3,V,10.0
V10,17.0,31.0,19.0,38.0,50.0,50,783.0,square4,j,0.013,3,V,10.0
V10,18.0,34.0,21.0,35.0,48.0,48,831.0,square4,j,0.163,3,V,10.0
V10,19.0,31.0,24.0,39.0,46.0,46,877.0,square4,j,0.118,3,V,10.0
V10,20.0,28.0,22.0,42.0,47.0,47,924.0,square4,j,0.14,3,V,10.0
V10,21.0,24.0,20.0,41.0,47.0,47,971.0,square4,j,0.02,3,V,10.0
V10,22.0,32.0,22.0,34.0,44.0,34,1005.0,square3,f,0.001,2,V,10.0
V10,23.0,29.0,23.0,37.0,47.0,29,1034.0,square1,i,0.015,0,V,10.0
V10,24.0,25.0,25.0,38.0,46.0,25,1059.0,square2,r,0.055,1,V,10.0
V10,25.0,30.0,24.0,41.0,45.0,45,1104.0,square4,j,0.047,3,V,10.0
V10,26.0,32.0,17.0,38.0,49.0,49,1153.0,square4,j,0.145,3,V,10.0
V10,27.0,34.0,21.0,38.0,47.0,47,1200.0,square4,j,0.149,3,V,10.0
V10,28.0,29.0,21.0,37.0,45.0,45,1245.0,square4,j,0.035,3,V,10.0
V10,29.0,30.0,20.0,31.0,47.0,47,1292.0,square4,j,0.167,3,V,10.0
V10,30.0,28.0,21.0,35.0,44.0,44,1336.0,square4,j,0.063,3,V,10.0
V10,31.0,36.0,25.0,14.0,8.0,8,1344.0,square4,j,0.37,3,V,10.0
V10,32.0,38.0,27.0,19.0,11.0,11,1355.0,square4,j,0.018,3,V,10.0
V10,33.0,39.0,21.0,20.0,13.0,13,1368.0,square4,j,0.014,3,V,10.0
V10,34.0,34.0,24.0,20.0,10.0,34,1402.0,square1,i,0.086,0,V,10.0
V10,35.0,44.0,29.0,17.0,11.0,17,1419.0,square3,f,0.12,2,V,10.0
V10,36.0,33.0,30.0,17.0,9.0,30,1449.0,square2,r,0.065,1,V,10.0
V10,37.0,31.0,27.0,12.0,6.0,31,1480.0,square1,i,0.001,0,V,10.0
V10,38.0,34.0,29.0,15.0,10.0,10,1490.0,square4,j,0.031,3,V,10.0
V10,39.0,35.0,21.0,19.0,5.0,35,1525.0,square1,i,0.028,0,V,10.0
V10,40.0,32.0,26.0,18.0,6.0,32,1557.0,square1,i,0.0,0,V,10.0
V10,41.0,34.0,32.0,13.0,9.0,34,1591.0,square1,i,0.065,0,V,10.0
V10,42.0,35.0,30.0,16.0,8.0,35,1626.0,square1,i,0.135,0,V,10.0
V10,43.0,38.0,32.0,16.0,8.0,38,1664.0,square1,i,0.012,0,V,10.0
V10,44.0,34.0,20.0,18.0,3.0,34,1698.0,square1,i,0.046,0,V,10.0
V10,45.0,38.0,22.0,23.0,9.0,38,1736.0,square1,i,0.036,0,V,10.0
V10,46.0,36.0,28.0,16.0,10.0,36,1772.0,square1,i,0.112,0,V,10.0
V10,47.0,36.0,27.0,13.0,8.0,36,1808.0,square1,i,0.227,0,V,10.0
V10,48.0,35.0,27.0,14.0,12.0,27,1835.0,square2,r,0.136,1,V,10.0
V10,49.0,33.0,28.0,16.0,10.0,16,1851.0,square3,f,0.042,2,V,10.0
V10,50.0,31.0,29.0,19.0,8.0,8,1859.0,square4,j,0.077,3,V,10.0
V10,51.0,32.0,21.0,20.0,12.0,32,1891.0,square1,i,0.185,0,V,10.0
V10,52.0,29.0,25.0,21.0,10.0,29,1920.0,square1,i,0.045,0,V,10.0
V10,53.0,39.0,29.0,23.0,2.0,39,1959.0,square1,i,0.159,0,V,10.0
V10,54.0,33.0,28.0,19.0,7.0,33,1992.0,square1,i,0.079,0,V,10.0
V10,55.0,34.0,24.0,15.0,8.0,34,2026.0,square1,i,0.062,0,V,10.0
V10,56.0,35.0,20.0,21.0,9.0,35,2061.0,square1,i,0.17,0,V,10.0
V10,57.0,33.0,27.0,19.0,7.0,33,2094.0,square1,i,0.001,0,V,10.0
V10,58.0,38.0,24.0,16.0,7.0,38,2132.0,square1,i,0.036,0,V,10.0
V10,59.0,34.0,29.0,15.0,5.0,34,2166.0,square1,i,0.265,0,V,10.0
V10,60.0,34.0,22.0,19.0,9.0,34,2200.0,square1,i,0.001,0,V,10.0
V10,61.0,39.0,31.0,20.0,10.0,10,2210.0,square4,j,0.096,3,V,10.0
V10,62.0,35.0,24.0,18.0,6.0,18,2228.0,square3,f,0.148,2,V,10.0
V10,63.0,35.0,26.0,18.0,9.0,26,2254.0,square2,r,0.084,1,V,10.0
V10,64.0,31.0,55.0,23.0,23.0,31,2285.0,square1,i,0.118,0,V,10.0
V10,65.0,35.0,50.0,22.0,27.0,35,2320.0,square1,i,0.147,0,V,10.0
V10,66.0,35.0,53.0,25.0,29.0,35,2355.0,square1,i,0.031,0,V,10.0
V10,67.0,38.0,44.0,17.0,29.0,38,2393.0,square1,i,0.086,0,V,10.0
V10,68.0,36.0,48.0,22.0,27.0,36,2429.0,square1,i,0.179,0,V,10.0
V10,69.0,41.0,53.0,17.0,28.0,41,2470.0,square1,i,0.199,0,V,10.0
V10,70.0,40.0,48.0,23.0,28.0,40,2510.0,square1,i,0.162,0,V,10.0
V10,71.0,39.0,43.0,24.0,20.0,39,2549.0,square1,i,0.18,0,V,10.0
V10,72.0,36.0,49.0,19.0,25.0,25,2574.0,square4,j,0.146,3,V,10.0
V10,73.0,39.0,49.0,23.0,32.0,23,2597.0,square3,f,0.001,2,V,10.0
V10,74.0,36.0,44.0,17.0,29.0,44,2641.0,square2,r,0.146,1,V,10.0
V10,75.0,37.0,46.0,20.0,30.0,46,2687.0,square2,r,0.688,1,V,10.0
V10,76.0,38.0,47.0,23.0,30.0,47,2734.0,square2,r,0.133,1,V,10.0
V10,77.0,36.0,49.0,22.0,32.0,49,2783.0,square2,r,0.12,1,V,10.0
V10,78.0,41.0,44.0,19.0,27.0,44,2827.0,square2,r,0.064,1,V,10.0
V10,79.0,41.0,48.0,22.0,27.0,48,2875.0,square2,r,0.001,1,V,10.0
V10,80.0,34.0,44.0,26.0,29.0,44,2919.0,square2,r,0.113,1,V,10.0
V10,81.0,38.0,47.0,18.0,29.0,47,2966.0,square2,r,0.05,1,V,10.0
V10,82.0,43.0,43.0,23.0,28.0,43,3009.0,square2,r,0.08,1,V,10.0
V10,83.0,34.0,51.0,23.0,26.0,51,3060.0,square2,r,0.236,1,V,10.0
V10,84.0,36.0,46.0,18.0,25.0,46,3106.0,square2,r,0.0,1,V,10.0
V10,85.0,39.0,46.0,25.0,26.0,46,3152.0,square2,r,0.001,1,V,10.0
V10,86.0,39.0,50.0,27.0,27.0,50,3202.0,square2,r,0.099,1,V,10.0
V10,87.0,38.0,46.0,20.0,30.0,46,3248.0,square2,r,0.158,1,V,10.0
V10,88.0,37.0,49.0,22.0,28.0,37,3285.0,square1,i,0.127,0,V,10.0
V10,89.0,34.0,51.0,25.0,26.0,26,3311.0,square4,j,0.047,3,V,10.0
V10,90.0,41.0,49.0,22.0,29.0,22,3333.0,square3,f,0.145,2,V,10.0
V10,91.0,37.0,45.0,26.0,32.0,45,3378.0,square2,r,0.167,1,V,10.0
V10,92.0,42.0,42.0,27.0,28.0,42,3420.0,square2,r,0.0,1,V,10.0
V10,93.0,41.0,48.0,19.0,36.0,48,3468.0,square2,r,0.162,1,V,10.0
V10,94.0,43.0,49.0,23.0,31.0,49,3517.0,square2,r,0.095,1,V,10.0
V10,95.0,39.0,46.0,18.0,27.0,46,3563.0,square2,r,0.167,1,V,10.0
V10,96.0,37.0,48.0,24.0,27.0,48,3611.0,square2,r,0.125,1,V,10.0
V10,97.0,42.0,50.0,23.0,31.0,50,3661.0,square2,r,0.08,1,V,10.0
V10,98.0,33.0,47.0,25.0,32.0,47,3708.0,square2,r,0.048,1,V,10.0
V10,99.0,39.0,48.0,23.0,32.0,48,3756.0,square2,r,0.118,1,V,10.0
V4,0.0,63.0,38.0,47.0,55.0,63,63.0,square1,f,0.643,0,V,4.0
V4,1.0,66.0,42.0,43.0,59.0,43,106.0,square3,r,0.163,2,V,4.0
V4,2.0,66.0,39.0,57.0,59.0,59,165.0,square4,i,0.001,3,V,4.0
V4,3.0,66.0,37.0,51.0,59.0,37,202.0,square2,j,0.02,1,V,4.0
V4,4.0,69.0,37.0,50.0,55.0,69,271.0,square1,f,0.152,0,V,4.0
V4,5.0,64.0,44.0,46.0,62.0,64,335.0,square1,f,0.046,0,V,4.0
V4,6.0,75.0,43.0,49.0,57.0,75,410.0,square1,f,0.152,0,V,4.0
V4,7.0,62.0,41.0,52.0,59.0,62,472.0,square1,f,0.153,0,V,4.0
V4,8.0,65.0,41.0,44.0,60.0,65,537.0,square1,f,0.18,0,V,4.0
V4,9.0,68.0,35.0,44.0,64.0,68,605.0,square1,f,0.065,0,V,4.0
V4,10.0,67.0,44.0,48.0,61.0,67,672.0,square1,f,0.029,0,V,4.0
V4,11.0,61.0,40.0,48.0,56.0,61,733.0,square1,f,0.144,0,V,4.0
V4,12.0,68.0,41.0,49.0,55.0,68,801.0,square1,f,0.003,0,V,4.0
V4,13.0,63.0,42.0,47.0,60.0,60,861.0,square4,i,0.004,3,V,4.0
V4,14.0,63.0,40.0,51.0,55.0,63,924.0,square1,f,0.097,0,V,4.0
V4,15.0,62.0,41.0,52.0,62.0,62,986.0,square1,f,0.084,0,V,4.0
V4,16.0,69.0,37.0,47.0,60.0,47,1033.0,square3,r,0.24,2,V,4.0
V4,17.0,66.0,40.0,48.0,56.0,40,1073.0,square2,j,0.211,1,V,4.0
V4,18.0,67.0,43.0,47.0,59.0,67,1140.0,square1,f,0.094,0,V,4.0
V4,19.0,64.0,42.0,51.0,59.0,64,1204.0,square1,f,0.019,0,V,4.0
V4,20.0,67.0,40.0,47.0,58.0,67,1271.0,square1,f,0.045,0,V,4.0
V4,21.0,60.0,41.0,50.0,59.0,60,1331.0,square1,f,0.145,0,V,4.0
V4,22.0,66.0,43.0,54.0,55.0,66,1397.0,square1,f,0.044,0,V,4.0
V4,23.0,67.0,37.0,50.0,62.0,67,1464.0,square1,f,0.031,0,V,4.0
V4,24.0,67.0,37.0,49.0,60.0,67,1531.0,square1,f,0.13,0,V,4.0
V4,25.0,67.0,39.0,55.0,52.0,67,1598.0,square1,f,0.101,0,V,4.0
V4,26.0,64.0,39.0,51.0,63.0,64,1662.0,square1,f,0.113,0,V,4.0
V4,27.0,68.0,36.0,55.0,60.0,60,1722.0,square4,i,0.101,3,V,4.0
V4,28.0,67.0,40.0,46.0,54.0,67,1789.0,square1,f,0.026,0,V,4.0
V4,29.0,67.0,41.0,50.0,57.0,67,1856.0,square1,f,0.03,0,V,4.0
V4,30.0,66.0,39.0,49.0,53.0,66,1922.0,square1,f,0.211,0,V,4.0
V4,31.0,70.0,38.0,48.0,58.0,70,1992.0,square1,f,0.019,0,V,4.0
V4,32.0,63.0,40.0,53.0,61.0,63,2055.0,square1,f,0.18,0,V,4.0
V4,33.0,66.0,41.0,51.0,56.0,66,2121.0,square1,f,0.05,0,V,4.0
V4,34.0,64.0,39.0,46.0,57.0,64,2185.0,square1,f,0.347,0,V,4.0
V4,35.0,69.0,36.0,50.0,58.0,69,2254.0,square1,f,0.052,0,V,4.0
V4,36.0,60.0,43.0,53.0,54.0,54,2308.0,square4,i,0.111,3,V,4.0
V4,37.0,52.0,78.0,68.0,66.0,52,2360.0,square1,f,0.195,0,V,4.0
V4,38.0,44.0,81.0,68.0,62.0,62,2422.0,square4,i,0.085,3,V,4.0
V4,39.0,59.0,71.0,70.0,63.0,63,2485.0,square4,i,0.112,3,V,4.0
V4,40.0,53.0,77.0,73.0,59.0,59,2544.0,square4,i,0.11,3,V,4.0
V4,41.0,53.0,76.0,74.0,66.0,76,2620.0,square2,j,0.181,1,V,4.0
V4,42.0,51.0,79.0,73.0,59.0,79,2699.0,square2,j,0.013,1,V,4.0
V4,43.0,48.0,76.0,68.0,65.0,68,2767.0,square3,r,0.061,2,V,4.0
V4,44.0,57.0,83.0,78.0,63.0,83,2850.0,square2,j,0.232,1,V,4.0
V4,45.0,54.0,74.0,69.0,61.0,74,2924.0,square2,j,0.094,1,V,4.0
V4,46.0,53.0,85.0,66.0,62.0,85,3009.0,square2,j,0.131,1,V,4.0
V4,47.0,56.0,83.0,68.0,57.0,83,3092.0,square2,j,0.175,1,V,4.0
V4,48.0,49.0,74.0,73.0,59.0,74,3166.0,square2,j,0.177,1,V,4.0
V4,49.0,54.0,74.0,70.0,60.0,74,3240.0,square2,j,0.003,1,V,4.0
V4,50.0,47.0,83.0,69.0,60.0,83,3323.0,square2,j,0.148,1,V,4.0
V4,51.0,54.0,78.0,73.0,56.0,78,3401.0,square2,j,0.031,1,V,4.0
V4,52.0,52.0,76.0,71.0,58.0,76,3477.0,square2,j,0.098,1,V,4.0
V4,53.0,51.0,82.0,76.0,63.0,82,3559.0,square2,j,0.195,1,V,4.0
V4,54.0,57.0,76.0,69.0,64.0,76,3635.0,square2,j,0.247,1,V,4.0
V4,55.0,49.0,75.0,68.0,59.0,75,3710.0,square2,j,0.031,1,V,4.0
V4,56.0,55.0,81.0,66.0,65.0,81,3791.0,square2,j,0.148,1,V,4.0
V4,57.0,58.0,80.0,72.0,63.0,80,3871.0,square2,j,0.199,1,V,4.0
V4,58.0,49.0,81.0,66.0,62.0,81,3952.0,square2,j,0.097,1,V,4.0
V4,59.0,57.0,78.0,73.0,59.0,78,4030.0,square2,j,0.18,1,V,4.0
V4,60.0,48.0,79.0,66.0,59.0,79,4109.0,square2,j,0.243,1,V,4.0
V4,61.0,53.0,80.0,72.0,60.0,80,4189.0,square2,j,0.237,1,V,4.0
V4,62.0,53.0,79.0,70.0,61.0,79,4268.0,square2,j,0.077,1,V,4.0
V4,63.0,81.0,66.0,90.0,66.0,66,4334.0,square2,j,0.03,1,V,4.0
V4,64.0,80.0,64.0,85.0,76.0,64,4398.0,square2,j,0.147,1,V,4.0
V4,65.0,77.0,61.0,92.0,74.0,77,4475.0,square1,f,0.08,0,V,4.0
V4,66.0,89.0,65.0,91.0,73.0,73,4548.0,square4,i,0.17,3,V,4.0
V4,67.0,86.0,64.0,92.0,70.0,92,4640.0,square3,r,0.102,2,V,4.0
V4,68.0,82.0,60.0,91.0,77.0,91,4731.0,square3,r,0.127,2,V,4.0
V4,69.0,78.0,69.0,90.0,70.0,90,4821.0,square3,r,0.082,2,V,4.0
V4,70.0,85.0,64.0,95.0,73.0,95,4916.0,square3,r,0.069,2,V,4.0
V4,71.0,85.0,61.0,88.0,69.0,88,5004.0,square3,r,0.148,2,V,4.0
V4,72.0,86.0,63.0,87.0,75.0,87,5091.0,square3,r,0.047,2,V,4.0
V4,73.0,86.0,69.0,92.0,70.0,92,5183.0,square3,r,0.195,2,V,4.0
V4,74.0,81.0,62.0,90.0,69.0,90,5273.0,square3,r,0.119,2,V,4.0
V4,75.0,83.0,66.0,88.0,74.0,88,5361.0,square3,r,0.229,2,V,4.0
V4,76.0,80.0,64.0,92.0,75.0,92,5453.0,square3,r,0.162,2,V,4.0
V4,77.0,81.0,65.0,91.0,74.0,91,5544.0,square3,r,0.066,2,V,4.0
V4,78.0,78.0,70.0,89.0,73.0,89,5633.0,square3,r,0.244,2,V,4.0
V4,79.0,84.0,66.0,85.0,75.0,85,5718.0,square3,r,0.181,2,V,4.0
V4,80.0,83.0,65.0,93.0,74.0,93,5811.0,square3,r,0.213,2,V,4.0
V4,81.0,86.0,59.0,91.0,74.0,91,5902.0,square3,r,0.057,2,V,4.0
V4,82.0,87.0,64.0,92.0,73.0,92,5994.0,square3,r,0.061,2,V,4.0
V4,83.0,83.0,68.0,86.0,70.0,86,6080.0,square3,r,0.1,2,V,4.0
V4,84.0,82.0,62.0,87.0,73.0,87,6167.0,square3,r,0.045,2,V,4.0
V4,85.0,85.0,61.0,90.0,70.0,90,6257.0,square3,r,0.072,2,V,4.0
V4,86.0,84.0,66.0,97.0,71.0,84,6341.0,square1,f,0.162,0,V,4.0
V4,87.0,82.0,64.0,87.0,71.0,71,6412.0,square4,i,0.14,3,V,4.0
V4,88.0,80.0,67.0,93.0,72.0,67,6479.0,square2,j,0.143,1,V,4.0
V4,89.0,78.0,64.0,92.0,75.0,92,6571.0,square3,r,0.114,2,V,4.0
V4,90.0,75.0,66.0,88.0,72.0,88,6659.0,square3,r,0.262,2,V,4.0
V4,91.0,82.0,59.0,91.0,76.0,91,6750.0,square3,r,0.23,2,V,4.0
V4,92.0,84.0,62.0,91.0,70.0,91,6841.0,square3,r,0.107,2,V,4.0
V4,93.0,80.0,61.0,94.0,76.0,94,6935.0,square3,r,0.038,2,V,4.0
V4,94.0,83.0,64.0,88.0,72.0,88,7023.0,square3,r,0.129,2,V,4.0
V4,95.0,82.0,60.0,94.0,69.0,94,7117.0,square3,r,0.067,2,V,4.0
V4,96.0,84.0,63.0,92.0,72.0,92,7209.0,square3,r,0.113,2,V,4.0
V4,97.0,84.0,62.0,85.0,70.0,85,7294.0,square3,r,0.16,2,V,4.0
V4,98.0,81.0,64.0,93.0,72.0,93,7387.0,square3,r,0.011,2,V,4.0
V4,99.0,80.0,61.0,92.0,75.0,92,7479.0,square3,r,0.001,2,V,4.0
