block,Trial,square1,square2,square3,square4,currPoints,totalPoints,square,choiceKey.keys,choiceKey.rt,armNum,blockType,blockNum
prac,0.0,100.0,0.0,0.0,0.0,99999,0.0,invalid,,,-1,p,0.0
prac,1.0,100.0,0.0,0.0,0.0,99999,0.0,invalid,,,-1,p,0.0
prac,2.0,100.0,0.0,0.0,0.0,99999,0.0,invalid,,,-1,p,0.0
prac,3.0,100.0,0.0,0.0,0.0,99999,0.0,invalid,,,-1,p,0.0
prac,4.0,100.0,0.0,0.0,0.0,99999,0.0,invalid,,,-1,p,0.0
prac,5.0,100.0,0.0,0.0,0.0,0,0.0,square2,,,1,p,0.0
prac,6.0,100.0,0.0,0.0,0.0,100,100.0,square1,,,0,p,0.0
prac,7.0,100.0,0.0,0.0,0.0,100,200.0,square1,,,0,p,0.0
prac,8.0,100.0,0.0,0.0,0.0,100,300.0,square1,,,0,p,0.0
prac,9.0,100.0,0.0,0.0,0.0,100,400.0,square1,,,0,p,0.0
NS4,0.0,55.0,53.0,59.0,44.0,59,59.0,square3,r,0.7959,2,N,4.0
NS4,1.0,49.0,56.0,64.0,41.0,41,100.0,square4,j,0.705,3,N,4.0
NS4,2.0,50.0,54.0,71.0,48.0,54,154.0,square2,f,0.322,1,N,4.0
NS4,3.0,53.0,58.0,67.0,50.0,58,212.0,square2,f,0.437,1,N,4.0
NS4,4.0,49.0,51.0,70.0,55.0,49,261.0,square1,i,0.4564,0,N,4.0
NS4,5.0,55.0,59.0,73.0,58.0,59,320.0,square2,f,0.3395,1,N,4.0
NS4,6.0,56.0,54.0,71.0,57.0,54,374.0,square2,f,0.3597,1,N,4.0
NS4,7.0,60.0,54.0,75.0,52.0,52,426.0,square4,j,0.3721,3,N,4.0
NS4,8.0,58.0,53.0,74.0,52.0,74,500.0,square3,r,0.305,2,N,4.0
NS4,9.0,46.0,48.0,78.0,51.0,78,578.0,square3,r,0.3999,2,N,4.0
NS4,10.0,55.0,48.0,78.0,51.0,78,656.0,square3,r,0.3386,2,N,4.0
NS4,11.0,55.0,44.0,79.0,49.0,55,711.0,square1,i,0.3039,0,N,4.0
NS4,12.0,50.0,40.0,79.0,50.0,79,790.0,square3,r,0.4813,2,N,4.0
NS4,13.0,45.0,39.0,79.0,53.0,39,829.0,square2,f,0.4044,1,N,4.0
NS4,14.0,44.0,38.0,77.0,56.0,77,906.0,square3,r,0.3604,2,N,4.0
NS4,15.0,45.0,32.0,68.0,52.0,68,974.0,square3,r,0.3975,2,N,4.0
NS4,16.0,49.0,32.0,74.0,53.0,49,1023.0,square1,i,0.1394,0,N,4.0
NS4,17.0,45.0,32.0,69.0,51.0,51,1074.0,square4,j,0.2571,3,N,4.0
NS4,18.0,50.0,34.0,69.0,47.0,47,1121.0,square4,j,0.4601,3,N,4.0
NS4,19.0,50.0,36.0,65.0,53.0,36,1157.0,square2,f,0.2182,1,N,4.0
NS4,20.0,45.0,36.0,62.0,53.0,45,1202.0,square1,i,0.3741,0,N,4.0
NS4,21.0,49.0,35.0,62.0,55.0,49,1251.0,square1,i,0.4068,0,N,4.0
NS4,22.0,53.0,32.0,61.0,60.0,60,1311.0,square4,j,0.1502,3,N,4.0
NS4,23.0,52.0,33.0,58.0,54.0,54,1365.0,square4,j,0.3393,3,N,4.0
NS4,24.0,48.0,32.0,52.0,60.0,52,1417.0,square3,r,0.3046,2,N,4.0
NS4,25.0,47.0,30.0,53.0,57.0,53,1470.0,square3,r,0.3431,2,N,4.0
NS4,26.0,50.0,30.0,60.0,55.0,50,1520.0,square1,i,0.2317,0,N,4.0
NS4,27.0,50.0,28.0,62.0,47.0,50,1570.0,square1,i,0.3384,0,N,4.0
NS4,28.0,54.0,28.0,58.0,49.0,28,1598.0,square2,f,0.3094,1,N,4.0
NS4,29.0,44.0,29.0,50.0,49.0,49,1647.0,square4,j,0.108,3,N,4.0
NS4,30.0,43.0,26.0,55.0,57.0,57,1704.0,square4,j,0.3721,3,N,4.0
NS4,31.0,43.0,25.0,60.0,54.0,54,1758.0,square4,j,0.327,3,N,4.0
NS4,32.0,34.0,27.0,58.0,56.0,34,1792.0,square1,i,0.5715,0,N,4.0
NS4,33.0,34.0,20.0,60.0,62.0,60,1852.0,square3,r,0.2755,2,N,4.0
NS4,34.0,38.0,28.0,58.0,57.0,57,1909.0,square4,j,0.4071,3,N,4.0
NS4,35.0,40.0,24.0,63.0,59.0,59,1968.0,square4,j,0.3304,3,N,4.0
NS4,36.0,36.0,30.0,56.0,63.0,63,2031.0,square4,j,0.3434,3,N,4.0
NS4,37.0,40.0,29.0,54.0,63.0,63,2094.0,square4,j,0.343,3,N,4.0
NS4,38.0,40.0,33.0,53.0,69.0,69,2163.0,square4,j,0.4981,3,N,4.0
NS4,39.0,36.0,30.0,57.0,67.0,67,2230.0,square4,j,0.2402,3,N,4.0
NS4,40.0,33.0,33.0,58.0,68.0,58,2288.0,square3,r,0.2973,2,N,4.0
NS4,41.0,34.0,28.0,58.0,72.0,58,2346.0,square3,r,0.3059,2,N,4.0
NS4,42.0,35.0,30.0,60.0,70.0,60,2406.0,square3,r,0.0039,2,N,4.0
NS4,43.0,35.0,34.0,57.0,63.0,57,2463.0,square3,r,0.465,2,N,4.0
NS4,44.0,30.0,32.0,59.0,69.0,59,2522.0,square3,r,0.1253,2,N,4.0
NS4,45.0,29.0,31.0,60.0,66.0,60,2582.0,square3,r,0.3433,2,N,4.0
NS4,46.0,35.0,34.0,66.0,66.0,66,2648.0,square3,r,0.3442,2,N,4.0
NS4,47.0,35.0,28.0,63.0,62.0,63,2711.0,square3,r,0.407,2,N,4.0
NS4,48.0,37.0,37.0,61.0,55.0,61,2772.0,square3,r,0.1267,2,N,4.0
NS4,49.0,40.0,34.0,59.0,54.0,59,2831.0,square3,r,0.0141,2,N,4.0
NS4,50.0,39.0,38.0,68.0,51.0,68,2899.0,square3,r,0.6266,2,N,4.0
NS4,51.0,46.0,28.0,69.0,48.0,69,2968.0,square3,r,0.7032,2,N,4.0
NS4,52.0,40.0,34.0,62.0,49.0,49,3017.0,square4,j,0.5265,3,N,4.0
NS4,53.0,39.0,34.0,63.0,48.0,63,3080.0,square3,r,0.6382,2,N,4.0
NS4,54.0,44.0,31.0,58.0,47.0,44,3124.0,square1,i,0.4251,0,N,4.0
NS4,55.0,42.0,30.0,68.0,46.0,46,3170.0,square4,j,0.0047,3,N,4.0
NS4,56.0,36.0,25.0,69.0,44.0,25,3195.0,square2,f,0.5233,1,N,4.0
NS4,57.0,35.0,29.0,71.0,46.0,71,3266.0,square3,r,0.3069,2,N,4.0
NS4,58.0,43.0,28.0,68.0,47.0,68,3334.0,square3,r,0.3736,2,N,4.0
NS4,59.0,43.0,27.0,67.0,43.0,67,3401.0,square3,r,0.3737,2,N,4.0
NS4,60.0,40.0,25.0,72.0,46.0,72,3473.0,square3,r,0.2411,2,N,4.0
NS4,61.0,39.0,32.0,63.0,43.0,63,3536.0,square3,r,0.39,2,N,4.0
NS4,62.0,39.0,29.0,61.0,39.0,61,3597.0,square3,r,0.3393,2,N,4.0
NS4,63.0,41.0,28.0,59.0,40.0,59,3656.0,square3,r,0.2469,2,N,4.0
NS4,64.0,41.0,31.0,57.0,51.0,57,3713.0,square3,r,0.192,2,N,4.0
NS4,65.0,46.0,36.0,59.0,58.0,59,3772.0,square3,r,0.1641,2,N,4.0
NS4,66.0,45.0,36.0,53.0,46.0,53,3825.0,square3,r,0.073,2,N,4.0
NS4,67.0,40.0,34.0,49.0,46.0,49,3874.0,square3,r,0.1565,2,N,4.0
NS4,68.0,43.0,37.0,48.0,48.0,48,3922.0,square3,r,0.6659,2,N,4.0
NS4,69.0,42.0,36.0,44.0,56.0,44,3966.0,square3,r,0.0222,2,N,4.0
NS4,70.0,40.0,38.0,47.0,58.0,47,4013.0,square3,r,0.0029,2,N,4.0
NS4,71.0,36.0,34.0,42.0,63.0,42,4055.0,square3,r,0.0005,2,N,4.0
NS4,72.0,38.0,36.0,36.0,66.0,38,4093.0,square1,i,0.7107,0,N,4.0
NS4,73.0,36.0,40.0,40.0,66.0,66,4159.0,square4,j,0.4401,3,N,4.0
NS4,74.0,31.0,38.0,46.0,67.0,67,4226.0,square4,j,0.344,3,N,4.0
NS4,75.0,40.0,33.0,42.0,64.0,64,4290.0,square4,j,0.2603,3,N,4.0
NS4,76.0,38.0,35.0,42.0,64.0,64,4354.0,square4,j,0.2152,3,N,4.0
NS4,77.0,40.0,35.0,39.0,66.0,66,4420.0,square4,j,0.5942,3,N,4.0
NS4,78.0,40.0,33.0,38.0,68.0,68,4488.0,square4,j,0.328,3,N,4.0
NS4,79.0,40.0,38.0,31.0,70.0,70,4558.0,square4,j,0.2721,3,N,4.0
NS4,80.0,37.0,35.0,33.0,73.0,73,4631.0,square4,j,0.4387,3,N,4.0
NS4,81.0,34.0,35.0,30.0,70.0,70,4701.0,square4,j,0.2659,3,N,4.0
NS4,82.0,35.0,37.0,31.0,66.0,66,4767.0,square4,j,0.109,3,N,4.0
NS4,83.0,42.0,32.0,28.0,67.0,67,4834.0,square4,j,0.1741,3,N,4.0
NS4,84.0,38.0,35.0,30.0,68.0,68,4902.0,square4,j,0.7428,3,N,4.0
NS4,85.0,43.0,35.0,32.0,64.0,64,4966.0,square4,j,0.1725,3,N,4.0
NS4,86.0,49.0,35.0,32.0,70.0,70,5036.0,square4,j,0.4501,3,N,4.0
NS4,87.0,48.0,34.0,32.0,69.0,69,5105.0,square4,j,0.2983,3,N,4.0
NS4,88.0,50.0,35.0,30.0,64.0,64,5169.0,square4,j,0.3323,3,N,4.0
NS4,89.0,48.0,34.0,32.0,68.0,68,5237.0,square4,j,0.3437,3,N,4.0
NS4,90.0,53.0,29.0,27.0,68.0,68,5305.0,square4,j,0.3489,3,N,4.0
NS4,91.0,54.0,27.0,34.0,68.0,68,5373.0,square4,j,0.2791,3,N,4.0
NS4,92.0,52.0,20.0,35.0,69.0,69,5442.0,square4,j,0.1937,3,N,4.0
NS4,93.0,42.0,15.0,33.0,68.0,68,5510.0,square4,j,0.2764,3,N,4.0
NS4,94.0,40.0,24.0,37.0,72.0,72,5582.0,square4,j,0.2891,3,N,4.0
NS4,95.0,43.0,25.0,43.0,69.0,69,5651.0,square4,j,0.1269,3,N,4.0
NS4,96.0,41.0,29.0,43.0,74.0,74,5725.0,square4,j,0.6439,3,N,4.0
NS4,97.0,46.0,32.0,42.0,78.0,78,5803.0,square4,j,0.2662,3,N,4.0
NS4,98.0,48.0,26.0,46.0,75.0,75,5878.0,square4,j,0.2664,3,N,4.0
NS4,99.0,46.0,27.0,45.0,71.0,71,5949.0,square4,j,0.3392,3,N,4.0
NS8,0.0,61.0,62.0,34.0,32.0,34,34.0,square3,f,0.8141,2,N,8.0
NS8,1.0,57.0,56.0,38.0,27.0,27,61.0,square4,i,0.2815,3,N,8.0
NS8,2.0,66.0,55.0,42.0,28.0,66,127.0,square1,r,0.044,0,N,8.0
NS8,3.0,67.0,51.0,37.0,28.0,51,178.0,square2,j,0.4477,1,N,8.0
NS8,4.0,65.0,53.0,38.0,32.0,65,243.0,square1,r,0.0979,0,N,8.0
NS8,5.0,67.0,52.0,43.0,33.0,67,310.0,square1,r,0.2798,0,N,8.0
NS8,6.0,56.0,47.0,41.0,36.0,56,366.0,square1,r,0.2892,0,N,8.0
NS8,7.0,58.0,46.0,37.0,31.0,58,424.0,square1,r,0.2944,0,N,8.0
NS8,8.0,60.0,58.0,36.0,35.0,60,484.0,square1,r,0.09,0,N,8.0
NS8,9.0,60.0,66.0,41.0,39.0,60,544.0,square1,r,0.4435,0,N,8.0
NS8,10.0,60.0,60.0,36.0,33.0,60,604.0,square1,r,0.3,0,N,8.0
NS8,11.0,53.0,63.0,32.0,35.0,53,657.0,square1,r,0.2891,0,N,8.0
NS8,12.0,51.0,60.0,32.0,29.0,51,708.0,square1,r,0.21,0,N,8.0
NS8,13.0,53.0,65.0,30.0,32.0,53,761.0,square1,r,0.3137,0,N,8.0
NS8,14.0,56.0,69.0,25.0,33.0,56,817.0,square1,r,0.5932,0,N,8.0
NS8,15.0,57.0,71.0,29.0,35.0,57,874.0,square1,r,0.0629,0,N,8.0
NS8,16.0,55.0,64.0,31.0,33.0,55,929.0,square1,r,0.4726,0,N,8.0
NS8,17.0,48.0,65.0,29.0,32.0,48,977.0,square1,r,0.1754,0,N,8.0
NS8,18.0,44.0,64.0,28.0,34.0,44,1021.0,square1,r,0.5079,0,N,8.0
NS8,19.0,46.0,60.0,26.0,33.0,60,1081.0,square2,j,0.2767,1,N,8.0
NS8,20.0,41.0,58.0,29.0,35.0,58,1139.0,square2,j,0.3295,1,N,8.0
NS8,21.0,45.0,57.0,29.0,35.0,57,1196.0,square2,j,0.2244,1,N,8.0
NS8,22.0,47.0,53.0,32.0,32.0,53,1249.0,square2,j,0.3799,1,N,8.0
NS8,23.0,49.0,52.0,33.0,35.0,52,1301.0,square2,j,0.2905,1,N,8.0
NS8,24.0,56.0,53.0,30.0,37.0,53,1354.0,square2,j,0.2953,1,N,8.0
NS8,25.0,57.0,48.0,28.0,42.0,48,1402.0,square2,j,0.3059,1,N,8.0
NS8,26.0,52.0,48.0,33.0,43.0,43,1445.0,square4,i,0.4432,3,N,8.0
NS8,27.0,53.0,45.0,28.0,47.0,53,1498.0,square1,r,0.2257,0,N,8.0
NS8,28.0,50.0,43.0,27.0,41.0,27,1525.0,square3,f,0.0606,2,N,8.0
NS8,29.0,53.0,52.0,29.0,43.0,43,1568.0,square4,i,0.1479,3,N,8.0
NS8,30.0,54.0,51.0,30.0,41.0,54,1622.0,square1,r,0.3346,0,N,8.0
NS8,31.0,50.0,50.0,31.0,42.0,50,1672.0,square1,r,0.3623,0,N,8.0
NS8,32.0,50.0,50.0,35.0,43.0,50,1722.0,square1,r,0.1487,0,N,8.0
NS8,33.0,46.0,48.0,39.0,41.0,46,1768.0,square1,r,0.1215,0,N,8.0
NS8,34.0,47.0,46.0,41.0,40.0,46,1814.0,square2,j,0.293,1,N,8.0
NS8,35.0,57.0,45.0,36.0,37.0,37,1851.0,square4,i,0.264,3,N,8.0
NS8,36.0,53.0,49.0,41.0,38.0,41,1892.0,square3,f,0.1084,2,N,8.0
NS8,37.0,57.0,50.0,41.0,39.0,41,1933.0,square3,f,0.3891,2,N,8.0
NS8,38.0,61.0,51.0,39.0,43.0,39,1972.0,square3,f,0.338,2,N,8.0
NS8,39.0,59.0,54.0,41.0,36.0,54,2026.0,square2,j,0.222,1,N,8.0
NS8,40.0,53.0,55.0,47.0,40.0,55,2081.0,square2,j,0.3753,1,N,8.0
NS8,41.0,53.0,55.0,43.0,39.0,55,2136.0,square2,j,0.3061,1,N,8.0
NS8,42.0,59.0,55.0,45.0,40.0,55,2191.0,square2,j,0.3311,1,N,8.0
NS8,43.0,54.0,46.0,51.0,37.0,46,2237.0,square2,j,0.3389,1,N,8.0
NS8,44.0,56.0,44.0,50.0,35.0,35,2272.0,square4,i,0.3134,3,N,8.0
NS8,45.0,51.0,46.0,41.0,37.0,51,2323.0,square1,r,0.1595,0,N,8.0
NS8,46.0,52.0,43.0,44.0,34.0,52,2375.0,square1,r,0.4396,0,N,8.0
NS8,47.0,46.0,41.0,36.0,37.0,46,2421.0,square1,r,0.356,0,N,8.0
NS8,48.0,47.0,46.0,39.0,37.0,46,2467.0,square2,j,0.241,1,N,8.0
NS8,49.0,48.0,36.0,38.0,40.0,38,2505.0,square3,f,0.2426,2,N,8.0
NS8,50.0,51.0,37.0,36.0,46.0,46,2551.0,square4,i,0.5231,3,N,8.0
NS8,51.0,53.0,38.0,40.0,43.0,38,2589.0,square2,j,0.2075,1,N,8.0
NS8,52.0,47.0,32.0,37.0,44.0,44,2633.0,square4,i,0.0005,3,N,8.0
NS8,53.0,52.0,31.0,38.0,46.0,46,2679.0,square4,i,0.2063,3,N,8.0
NS8,54.0,44.0,34.0,40.0,45.0,45,2724.0,square4,i,0.2273,3,N,8.0
NS8,55.0,46.0,26.0,37.0,41.0,41,2765.0,square4,i,0.2893,3,N,8.0
NS8,56.0,42.0,29.0,36.0,40.0,42,2807.0,square1,r,0.1148,0,N,8.0
NS8,57.0,39.0,21.0,39.0,40.0,21,2828.0,square2,j,0.2562,1,N,8.0
NS8,58.0,42.0,18.0,39.0,40.0,39,2867.0,square3,f,0.0563,2,N,8.0
NS8,59.0,46.0,16.0,41.0,39.0,46,2913.0,square1,r,0.1553,0,N,8.0
NS8,60.0,45.0,20.0,40.0,39.0,45,2958.0,square1,r,0.0005,0,N,8.0
NS8,61.0,45.0,26.0,42.0,39.0,45,3003.0,square1,r,0.0225,0,N,8.0
NS8,62.0,46.0,21.0,45.0,37.0,46,3049.0,square1,r,0.3608,0,N,8.0
NS8,63.0,50.0,23.0,40.0,38.0,38,3087.0,square4,i,0.3431,3,N,8.0
NS8,64.0,46.0,24.0,41.0,33.0,41,3128.0,square3,f,0.1281,2,N,8.0
NS8,65.0,48.0,28.0,42.0,32.0,48,3176.0,square1,r,0.3773,0,N,8.0
NS8,66.0,47.0,20.0,40.0,35.0,47,3223.0,square1,r,0.3427,0,N,8.0
NS8,67.0,49.0,25.0,46.0,34.0,49,3272.0,square1,r,0.2107,0,N,8.0
NS8,68.0,47.0,24.0,45.0,33.0,47,3319.0,square1,r,0.2737,0,N,8.0
NS8,69.0,45.0,21.0,47.0,35.0,45,3364.0,square1,r,0.2071,0,N,8.0
NS8,70.0,44.0,21.0,47.0,37.0,44,3408.0,square1,r,0.1568,0,N,8.0
NS8,71.0,44.0,15.0,41.0,38.0,44,3452.0,square1,r,0.266,0,N,8.0
NS8,72.0,47.0,19.0,49.0,40.0,40,3492.0,square4,i,0.3773,3,N,8.0
NS8,73.0,39.0,21.0,53.0,38.0,38,3530.0,square4,i,0.3679,3,N,8.0
NS8,74.0,42.0,19.0,53.0,35.0,19,3549.0,square2,j,0.1389,1,N,8.0
NS8,75.0,37.0,18.0,43.0,35.0,43,3592.0,square3,f,0.4063,2,N,8.0
NS8,76.0,35.0,14.0,42.0,38.0,42,3634.0,square3,f,0.3074,2,N,8.0
NS8,77.0,38.0,19.0,47.0,44.0,47,3681.0,square3,f,0.1908,2,N,8.0
NS8,78.0,38.0,18.0,50.0,46.0,50,3731.0,square3,f,0.3148,2,N,8.0
NS8,79.0,33.0,22.0,54.0,44.0,54,3785.0,square3,f,0.007,2,N,8.0
NS8,80.0,38.0,21.0,56.0,52.0,56,3841.0,square3,f,0.0579,2,N,8.0
NS8,81.0,37.0,22.0,56.0,43.0,56,3897.0,square3,f,0.6238,2,N,8.0
NS8,82.0,30.0,26.0,60.0,42.0,60,3957.0,square3,f,0.6443,2,N,8.0
NS8,83.0,38.0,22.0,54.0,46.0,54,4011.0,square3,f,0.3057,2,N,8.0
NS8,84.0,33.0,18.0,52.0,46.0,52,4063.0,square3,f,0.2483,2,N,8.0
NS8,85.0,42.0,12.0,57.0,48.0,57,4120.0,square3,f,0.2638,2,N,8.0
NS8,86.0,45.0,19.0,58.0,42.0,58,4178.0,square3,f,0.2773,2,N,8.0
NS8,87.0,46.0,10.0,65.0,44.0,65,4243.0,square3,f,0.2559,2,N,8.0
NS8,88.0,45.0,11.0,59.0,45.0,59,4302.0,square3,f,0.3398,2,N,8.0
NS8,89.0,42.0,11.0,60.0,47.0,60,4362.0,square3,f,0.3395,2,N,8.0
NS8,90.0,40.0,7.0,64.0,49.0,64,4426.0,square3,f,0.3282,2,N,8.0
NS8,91.0,42.0,11.0,64.0,48.0,64,4490.0,square3,f,0.344,2,N,8.0
NS8,92.0,43.0,13.0,60.0,43.0,60,4550.0,square3,f,0.3328,2,N,8.0
NS8,93.0,44.0,12.0,64.0,45.0,64,4614.0,square3,f,0.356,2,N,8.0
NS8,94.0,45.0,16.0,65.0,49.0,65,4679.0,square3,f,0.326,2,N,8.0
NS8,95.0,45.0,24.0,66.0,42.0,66,4745.0,square3,f,0.3464,2,N,8.0
NS8,96.0,53.0,27.0,67.0,44.0,67,4812.0,square3,f,0.3471,2,N,8.0
NS8,97.0,50.0,29.0,68.0,43.0,68,4880.0,square3,f,0.3434,2,N,8.0
NS8,98.0,52.0,29.0,66.0,37.0,66,4946.0,square3,f,0.3096,2,N,8.0
NS8,99.0,53.0,32.0,65.0,37.0,65,5011.0,square3,f,0.3263,2,N,8.0
NS3,0.0,52.0,26.0,68.0,52.0,52,52.0,square4,r,0.6834,3,N,3.0
NS3,1.0,57.0,23.0,69.0,48.0,48,100.0,square4,r,0.3265,3,N,3.0
NS3,2.0,59.0,26.0,70.0,52.0,52,152.0,square4,r,0.2937,3,N,3.0
NS3,3.0,57.0,24.0,70.0,52.0,52,204.0,square4,r,0.1251,3,N,3.0
NS3,4.0,59.0,30.0,74.0,49.0,49,253.0,square4,r,0.2052,3,N,3.0
NS3,5.0,55.0,24.0,67.0,51.0,51,304.0,square4,r,0.2221,3,N,3.0
NS3,6.0,54.0,27.0,73.0,55.0,55,359.0,square4,r,0.1105,3,N,3.0
NS3,7.0,55.0,28.0,66.0,43.0,43,402.0,square4,r,0.2384,3,N,3.0
NS3,8.0,57.0,30.0,65.0,45.0,45,447.0,square4,r,0.6093,3,N,3.0
NS3,9.0,53.0,33.0,54.0,37.0,37,484.0,square4,r,0.2909,3,N,3.0
NS3,10.0,46.0,27.0,54.0,43.0,27,511.0,square2,i,0.3561,1,N,3.0
NS3,11.0,48.0,31.0,58.0,51.0,48,559.0,square1,f,0.3305,0,N,3.0
NS3,12.0,50.0,27.0,54.0,53.0,50,609.0,square1,f,0.3561,0,N,3.0
NS3,13.0,49.0,28.0,62.0,50.0,49,658.0,square1,f,0.3727,0,N,3.0
NS3,14.0,53.0,28.0,62.0,52.0,53,711.0,square1,f,0.3328,0,N,3.0
NS3,15.0,52.0,25.0,57.0,57.0,52,763.0,square1,f,0.373,0,N,3.0
NS3,16.0,48.0,29.0,56.0,56.0,48,811.0,square1,f,0.3132,0,N,3.0
NS3,17.0,39.0,21.0,58.0,56.0,39,850.0,square1,f,0.3104,0,N,3.0
NS3,18.0,40.0,23.0,58.0,60.0,58,908.0,square3,j,0.3127,2,N,3.0
NS3,19.0,40.0,26.0,63.0,58.0,63,971.0,square3,j,0.3572,2,N,3.0
NS3,20.0,46.0,24.0,60.0,56.0,60,1031.0,square3,j,0.3301,2,N,3.0
NS3,21.0,42.0,27.0,61.0,55.0,61,1092.0,square3,j,0.3057,2,N,3.0
NS3,22.0,45.0,26.0,62.0,56.0,62,1154.0,square3,j,0.3427,2,N,3.0
NS3,23.0,39.0,21.0,64.0,60.0,64,1218.0,square3,j,0.3161,2,N,3.0
NS3,24.0,44.0,21.0,59.0,64.0,59,1277.0,square3,j,0.3057,2,N,3.0
NS3,25.0,44.0,22.0,58.0,65.0,58,1335.0,square3,j,0.3111,2,N,3.0
NS3,26.0,42.0,26.0,60.0,62.0,60,1395.0,square3,j,0.3776,2,N,3.0
NS3,27.0,38.0,18.0,55.0,67.0,55,1450.0,square3,j,0.2737,2,N,3.0
NS3,28.0,41.0,23.0,56.0,60.0,56,1506.0,square3,j,0.2773,2,N,3.0
NS3,29.0,38.0,16.0,52.0,66.0,52,1558.0,square3,j,0.2972,2,N,3.0
NS3,30.0,36.0,13.0,61.0,64.0,61,1619.0,square3,j,0.3061,2,N,3.0
NS3,31.0,42.0,13.0,54.0,63.0,54,1673.0,square3,j,0.3071,2,N,3.0
NS3,32.0,38.0,18.0,50.0,62.0,50,1723.0,square3,j,0.2563,2,N,3.0
NS3,33.0,29.0,20.0,51.0,64.0,51,1774.0,square3,j,0.0381,2,N,3.0
NS3,34.0,32.0,21.0,45.0,63.0,45,1819.0,square3,j,0.2381,2,N,3.0
NS3,35.0,30.0,17.0,46.0,65.0,46,1865.0,square3,j,0.3427,2,N,3.0
NS3,36.0,35.0,16.0,47.0,69.0,47,1912.0,square3,j,0.2724,2,N,3.0
NS3,37.0,34.0,18.0,45.0,68.0,45,1957.0,square3,j,0.3396,2,N,3.0
NS3,38.0,40.0,14.0,50.0,74.0,50,2007.0,square3,j,0.3262,2,N,3.0
NS3,39.0,39.0,15.0,49.0,73.0,49,2056.0,square3,j,0.3376,2,N,3.0
NS3,40.0,42.0,15.0,51.0,74.0,51,2107.0,square3,j,0.3267,2,N,3.0
NS3,41.0,38.0,17.0,43.0,74.0,43,2150.0,square3,j,0.2788,2,N,3.0
NS3,42.0,36.0,16.0,46.0,74.0,46,2196.0,square3,j,0.2946,2,N,3.0
NS3,43.0,41.0,21.0,44.0,76.0,44,2240.0,square3,j,0.2926,2,N,3.0
NS3,44.0,41.0,26.0,35.0,70.0,35,2275.0,square3,j,0.2944,2,N,3.0
NS3,45.0,39.0,27.0,33.0,75.0,27,2302.0,square2,i,0.3397,1,N,3.0
NS3,46.0,45.0,25.0,38.0,77.0,25,2327.0,square2,i,0.3265,1,N,3.0
NS3,47.0,41.0,20.0,34.0,76.0,20,2347.0,square2,i,0.1902,1,N,3.0
NS3,48.0,37.0,25.0,34.0,77.0,77,2424.0,square4,r,0.3401,3,N,3.0
NS3,49.0,41.0,18.0,40.0,78.0,78,2502.0,square4,r,0.3611,3,N,3.0
NS3,50.0,42.0,17.0,41.0,83.0,83,2585.0,square4,r,0.3441,3,N,3.0
NS3,51.0,53.0,18.0,39.0,83.0,83,2668.0,square4,r,0.3443,3,N,3.0
NS3,52.0,55.0,19.0,34.0,82.0,82,2750.0,square4,r,0.3558,3,N,3.0
NS3,53.0,52.0,17.0,39.0,77.0,77,2827.0,square4,r,0.2611,3,N,3.0
NS3,54.0,55.0,21.0,46.0,77.0,55,2882.0,square1,f,0.294,0,N,3.0
NS3,55.0,48.0,21.0,49.0,75.0,75,2957.0,square4,r,0.4228,3,N,3.0
NS3,56.0,50.0,25.0,51.0,74.0,74,3031.0,square4,r,0.3227,3,N,3.0
NS3,57.0,54.0,23.0,46.0,66.0,66,3097.0,square4,r,0.3402,3,N,3.0
NS3,58.0,60.0,25.0,50.0,72.0,72,3169.0,square4,r,0.3088,3,N,3.0
NS3,59.0,54.0,23.0,46.0,72.0,72,3241.0,square4,r,0.8454,3,N,3.0
NS3,60.0,51.0,26.0,50.0,72.0,72,3313.0,square4,r,0.2562,3,N,3.0
NS3,61.0,57.0,27.0,54.0,71.0,71,3384.0,square4,r,0.306,3,N,3.0
NS3,62.0,51.0,27.0,54.0,64.0,64,3448.0,square4,r,0.293,3,N,3.0
NS3,63.0,54.0,25.0,42.0,62.0,62,3510.0,square4,r,0.2108,3,N,3.0
NS3,64.0,54.0,25.0,47.0,62.0,62,3572.0,square4,r,0.2795,3,N,3.0
NS3,65.0,48.0,26.0,45.0,60.0,60,3632.0,square4,r,0.3092,3,N,3.0
NS3,66.0,49.0,22.0,47.0,60.0,60,3692.0,square4,r,0.2321,3,N,3.0
NS3,67.0,49.0,26.0,45.0,65.0,65,3757.0,square4,r,0.3273,3,N,3.0
NS3,68.0,54.0,26.0,47.0,67.0,67,3824.0,square4,r,0.2926,3,N,3.0
NS3,69.0,48.0,22.0,45.0,56.0,56,3880.0,square4,r,0.3261,3,N,3.0
NS3,70.0,55.0,26.0,48.0,61.0,61,3941.0,square4,r,0.3548,3,N,3.0
NS3,71.0,55.0,29.0,43.0,60.0,60,4001.0,square4,r,0.6441,3,N,3.0
NS3,72.0,56.0,30.0,43.0,51.0,51,4052.0,square4,r,0.5593,3,N,3.0
NS3,73.0,55.0,27.0,47.0,56.0,56,4108.0,square4,r,0.5479,3,N,3.0
NS3,74.0,63.0,26.0,44.0,55.0,55,4163.0,square4,r,0.506,3,N,3.0
NS3,75.0,61.0,34.0,45.0,62.0,62,4225.0,square4,r,0.1997,3,N,3.0
NS3,76.0,55.0,28.0,45.0,62.0,62,4287.0,square4,r,0.3559,3,N,3.0
NS3,77.0,58.0,31.0,53.0,66.0,66,4353.0,square4,r,0.3961,3,N,3.0
NS3,78.0,55.0,29.0,51.0,60.0,60,4413.0,square4,r,0.632,3,N,3.0
NS3,79.0,51.0,29.0,52.0,68.0,68,4481.0,square4,r,0.8272,3,N,3.0
NS3,80.0,55.0,31.0,48.0,59.0,59,4540.0,square4,r,0.1772,3,N,3.0
NS3,81.0,56.0,38.0,56.0,64.0,64,4604.0,square4,r,0.3801,3,N,3.0
NS3,82.0,54.0,27.0,54.0,55.0,55,4659.0,square4,r,0.3388,3,N,3.0
NS3,83.0,62.0,30.0,49.0,58.0,62,4721.0,square1,f,0.2955,0,N,3.0
NS3,84.0,64.0,24.0,47.0,62.0,64,4785.0,square1,f,0.404,0,N,3.0
NS3,85.0,65.0,23.0,54.0,63.0,65,4850.0,square1,f,0.2301,0,N,3.0
NS3,86.0,68.0,25.0,56.0,65.0,68,4918.0,square1,f,0.3095,0,N,3.0
NS3,87.0,65.0,22.0,55.0,60.0,65,4983.0,square1,f,0.3227,0,N,3.0
NS3,88.0,64.0,20.0,58.0,65.0,64,5047.0,square1,f,0.3306,0,N,3.0
NS3,89.0,68.0,13.0,62.0,64.0,68,5115.0,square1,f,0.3302,0,N,3.0
NS3,90.0,72.0,13.0,52.0,64.0,72,5187.0,square1,f,0.2432,0,N,3.0
NS3,91.0,67.0,20.0,52.0,69.0,67,5254.0,square1,f,0.305,0,N,3.0
NS3,92.0,72.0,21.0,58.0,64.0,72,5326.0,square1,f,0.4153,0,N,3.0
NS3,93.0,73.0,16.0,54.0,67.0,73,5399.0,square1,f,0.2719,0,N,3.0
NS3,94.0,69.0,17.0,51.0,64.0,69,5468.0,square1,f,0.1591,0,N,3.0
NS3,95.0,62.0,19.0,60.0,62.0,62,5530.0,square1,f,0.0269,0,N,3.0
NS3,96.0,67.0,15.0,56.0,67.0,67,5597.0,square1,f,0.0613,0,N,3.0
NS3,97.0,61.0,17.0,58.0,62.0,61,5658.0,square1,f,0.2894,0,N,3.0
NS3,98.0,59.0,13.0,58.0,58.0,59,5717.0,square1,f,0.2735,0,N,3.0
NS3,99.0,62.0,15.0,51.0,60.0,51,5768.0,square3,j,0.1335,2,N,3.0
V7,0.0,86.0,61.0,78.0,68.0,61,61.0,square2,r,1.8204,1,V,7.0
V7,1.0,95.0,62.0,79.0,70.0,95,156.0,square1,j,0.3279,0,V,7.0
V7,2.0,89.0,67.0,81.0,77.0,89,245.0,square1,j,0.4625,0,V,7.0
V7,3.0,90.0,56.0,85.0,72.0,90,335.0,square1,j,0.311,0,V,7.0
V7,4.0,91.0,65.0,77.0,71.0,91,426.0,square1,j,0.3287,0,V,7.0
V7,5.0,91.0,58.0,84.0,72.0,91,517.0,square1,j,0.2902,0,V,7.0
V7,6.0,94.0,65.0,87.0,72.0,87,604.0,square3,i,0.2648,2,V,7.0
V7,7.0,89.0,67.0,79.0,67.0,67,671.0,square4,f,0.2969,3,V,7.0
V7,8.0,91.0,65.0,84.0,68.0,84,755.0,square3,i,0.2766,2,V,7.0
V7,9.0,92.0,60.0,87.0,69.0,60,815.0,square2,r,0.3104,1,V,7.0
V7,10.0,90.0,67.0,81.0,76.0,90,905.0,square1,j,0.2564,0,V,7.0
V7,11.0,86.0,67.0,83.0,73.0,86,991.0,square1,j,0.3561,0,V,7.0
V7,12.0,90.0,62.0,80.0,72.0,80,1071.0,square3,i,0.3879,2,V,7.0
V7,13.0,84.0,60.0,88.0,71.0,71,1142.0,square4,f,0.383,3,V,7.0
V7,14.0,95.0,64.0,80.0,70.0,95,1237.0,square1,j,0.2727,0,V,7.0
V7,15.0,86.0,60.0,81.0,70.0,86,1323.0,square1,j,0.4561,0,V,7.0
V7,16.0,85.0,65.0,77.0,69.0,85,1408.0,square1,j,0.4187,0,V,7.0
V7,17.0,91.0,65.0,81.0,70.0,91,1499.0,square1,j,0.3423,0,V,7.0
V7,18.0,95.0,61.0,81.0,76.0,95,1594.0,square1,j,0.353,0,V,7.0
V7,19.0,90.0,58.0,79.0,72.0,90,1684.0,square1,j,0.406,0,V,7.0
V7,20.0,94.0,68.0,80.0,79.0,80,1764.0,square3,i,0.2602,2,V,7.0
V7,21.0,92.0,66.0,82.0,70.0,70,1834.0,square4,f,0.2933,3,V,7.0
V7,22.0,92.0,64.0,83.0,72.0,92,1926.0,square1,j,1.4896,0,V,7.0
V7,23.0,91.0,68.0,82.0,73.0,91,2017.0,square1,j,0.4272,0,V,7.0
V7,24.0,87.0,71.0,82.0,72.0,82,2099.0,square3,i,0.1638,2,V,7.0
V7,25.0,91.0,68.0,90.0,74.0,68,2167.0,square2,r,0.2614,1,V,7.0
V7,26.0,89.0,65.0,83.0,72.0,83,2250.0,square3,i,0.4397,2,V,7.0
V7,27.0,91.0,61.0,81.0,73.0,73,2323.0,square4,f,0.3127,3,V,7.0
V7,28.0,90.0,66.0,81.0,72.0,81,2404.0,square3,i,0.2436,2,V,7.0
V7,29.0,89.0,67.0,77.0,71.0,89,2493.0,square1,j,0.2274,0,V,7.0
V7,30.0,95.0,68.0,84.0,71.0,95,2588.0,square1,j,0.324,0,V,7.0
V7,31.0,95.0,61.0,81.0,70.0,95,2683.0,square1,j,0.2809,0,V,7.0
V7,32.0,89.0,65.0,82.0,75.0,89,2772.0,square1,j,0.3293,0,V,7.0
V7,33.0,77.0,50.0,80.0,61.0,77,2849.0,square1,j,0.1734,0,V,7.0
V7,34.0,76.0,54.0,78.0,61.0,76,2925.0,square1,j,0.172,0,V,7.0
V7,35.0,71.0,51.0,80.0,64.0,71,2996.0,square1,j,0.2976,0,V,7.0
V7,36.0,75.0,51.0,80.0,62.0,75,3071.0,square1,j,0.1442,0,V,7.0
V7,37.0,73.0,58.0,86.0,63.0,73,3144.0,square1,j,0.0145,0,V,7.0
V7,38.0,73.0,50.0,86.0,61.0,86,3230.0,square3,i,0.0226,2,V,7.0
V7,39.0,67.0,53.0,78.0,61.0,78,3308.0,square3,i,0.2907,2,V,7.0
V7,40.0,71.0,53.0,84.0,58.0,58,3366.0,square4,f,0.2257,3,V,7.0
V7,41.0,75.0,51.0,83.0,63.0,51,3417.0,square2,r,0.0456,1,V,7.0
V7,42.0,69.0,48.0,87.0,63.0,87,3504.0,square3,i,0.1953,2,V,7.0
V7,43.0,70.0,58.0,81.0,60.0,81,3585.0,square3,i,0.294,2,V,7.0
V7,44.0,68.0,56.0,76.0,63.0,76,3661.0,square3,i,0.0611,2,V,7.0
V7,45.0,74.0,59.0,76.0,56.0,74,3735.0,square1,j,0.2907,0,V,7.0
V7,46.0,72.0,54.0,77.0,61.0,61,3796.0,square4,f,0.2743,3,V,7.0
V7,47.0,69.0,47.0,81.0,62.0,47,3843.0,square2,r,0.8116,1,V,7.0
V7,48.0,75.0,52.0,81.0,57.0,81,3924.0,square3,i,0.356,2,V,7.0
V7,49.0,74.0,55.0,78.0,60.0,78,4002.0,square3,i,0.2562,2,V,7.0
V7,50.0,71.0,51.0,80.0,61.0,61,4063.0,square4,f,0.3448,3,V,7.0
V7,51.0,75.0,55.0,85.0,62.0,85,4148.0,square3,i,0.3234,2,V,7.0
V7,52.0,75.0,59.0,76.0,59.0,76,4224.0,square3,i,0.3395,2,V,7.0
V7,53.0,72.0,53.0,84.0,66.0,84,4308.0,square3,i,0.1395,2,V,7.0
V7,54.0,69.0,51.0,81.0,60.0,81,4389.0,square3,i,0.1717,2,V,7.0
V7,55.0,74.0,56.0,75.0,54.0,75,4464.0,square3,i,0.3301,2,V,7.0
V7,56.0,76.0,51.0,83.0,58.0,76,4540.0,square1,j,0.7167,0,V,7.0
V7,57.0,71.0,53.0,80.0,64.0,64,4604.0,square4,f,0.0225,3,V,7.0
V7,58.0,81.0,56.0,79.0,61.0,79,4683.0,square3,i,0.2538,2,V,7.0
V7,59.0,71.0,55.0,83.0,59.0,83,4766.0,square3,i,0.0773,2,V,7.0
V7,60.0,73.0,53.0,83.0,64.0,83,4849.0,square3,i,0.5935,2,V,7.0
V7,61.0,70.0,53.0,77.0,63.0,77,4926.0,square3,i,0.2773,2,V,7.0
V7,62.0,71.0,54.0,76.0,61.0,71,4997.0,square1,j,0.1107,0,V,7.0
V7,63.0,68.0,45.0,79.0,65.0,68,5065.0,square1,j,0.3389,0,V,7.0
V7,64.0,65.0,55.0,79.0,59.0,65,5130.0,square1,j,0.505,0,V,7.0
V7,65.0,74.0,54.0,81.0,61.0,61,5191.0,square4,f,0.2444,3,V,7.0
V7,66.0,70.0,56.0,81.0,63.0,56,5247.0,square2,r,0.3397,1,V,7.0
V7,67.0,70.0,85.0,64.0,92.0,85,5332.0,square2,r,0.3395,1,V,7.0
V7,68.0,73.0,85.0,68.0,92.0,85,5417.0,square2,r,0.1074,1,V,7.0
V7,69.0,75.0,83.0,70.0,91.0,83,5500.0,square2,r,0.3064,1,V,7.0
V7,70.0,75.0,85.0,69.0,91.0,85,5585.0,square2,r,0.0399,1,V,7.0
V7,71.0,71.0,86.0,65.0,94.0,86,5671.0,square2,r,0.2224,1,V,7.0
V7,72.0,77.0,86.0,65.0,98.0,86,5757.0,square2,r,0.2775,1,V,7.0
V7,73.0,77.0,84.0,63.0,94.0,84,5841.0,square2,r,0.6545,1,V,7.0
V7,74.0,71.0,86.0,64.0,91.0,86,5927.0,square2,r,0.3598,1,V,7.0
V7,75.0,73.0,90.0,60.0,90.0,90,6017.0,square2,r,0.3501,1,V,7.0
V7,76.0,79.0,84.0,68.0,95.0,84,6101.0,square2,r,0.3611,1,V,7.0
V7,77.0,73.0,85.0,66.0,89.0,85,6186.0,square2,r,0.2451,1,V,7.0
V7,78.0,75.0,82.0,67.0,91.0,82,6268.0,square2,r,0.4442,1,V,7.0
V7,79.0,72.0,85.0,60.0,90.0,85,6353.0,square2,r,0.4091,1,V,7.0
V7,80.0,73.0,83.0,66.0,97.0,83,6436.0,square2,r,0.3483,1,V,7.0
V7,81.0,73.0,84.0,67.0,92.0,84,6520.0,square2,r,0.2767,1,V,7.0
V7,82.0,69.0,84.0,65.0,91.0,84,6604.0,square2,r,0.0819,1,V,7.0
V7,83.0,76.0,83.0,72.0,99.0,83,6687.0,square2,r,0.7974,1,V,7.0
V7,84.0,72.0,84.0,70.0,94.0,70,6757.0,square3,i,0.2161,2,V,7.0
V7,85.0,77.0,83.0,67.0,88.0,88,6845.0,square4,f,0.2652,3,V,7.0
V7,86.0,76.0,80.0,67.0,90.0,90,6935.0,square4,f,0.323,3,V,7.0
V7,87.0,70.0,86.0,67.0,95.0,95,7030.0,square4,f,0.4207,3,V,7.0
V7,88.0,76.0,84.0,67.0,100.0,100,7130.0,square4,f,0.2884,3,V,7.0
V7,89.0,71.0,88.0,60.0,97.0,97,7227.0,square4,f,0.3615,3,V,7.0
V7,90.0,69.0,82.0,71.0,95.0,95,7322.0,square4,f,0.028,3,V,7.0
V7,91.0,80.0,84.0,65.0,92.0,92,7414.0,square4,f,0.0231,3,V,7.0
V7,92.0,77.0,85.0,68.0,85.0,85,7499.0,square4,f,0.4822,3,V,7.0
V7,93.0,72.0,84.0,66.0,91.0,91,7590.0,square4,f,0.4274,3,V,7.0
V7,94.0,69.0,83.0,66.0,95.0,95,7685.0,square4,f,0.3828,3,V,7.0
V7,95.0,70.0,86.0,75.0,91.0,91,7776.0,square4,f,0.3886,3,V,7.0
V7,96.0,74.0,85.0,66.0,88.0,88,7864.0,square4,f,0.9894,3,V,7.0
V7,97.0,77.0,82.0,73.0,91.0,91,7955.0,square4,f,0.7773,3,V,7.0
V7,98.0,76.0,91.0,62.0,94.0,94,8049.0,square4,f,1.0242,3,V,7.0
V7,99.0,74.0,84.0,67.0,88.0,88,8137.0,square4,f,0.3271,3,V,7.0
V8,0.0,49.0,55.0,64.0,74.0,49,49.0,square1,r,0.5285,0,V,8.0
V8,1.0,51.0,54.0,70.0,81.0,54,103.0,square2,i,0.2988,1,V,8.0
V8,2.0,46.0,62.0,70.0,77.0,70,173.0,square3,f,0.0453,2,V,8.0
V8,3.0,46.0,56.0,67.0,75.0,75,248.0,square4,j,0.0792,3,V,8.0
V8,4.0,50.0,59.0,67.0,83.0,83,331.0,square4,j,0.2547,3,V,8.0
V8,5.0,51.0,54.0,65.0,78.0,78,409.0,square4,j,0.3266,3,V,8.0
V8,6.0,45.0,57.0,66.0,80.0,80,489.0,square4,j,0.3726,3,V,8.0
V8,7.0,46.0,64.0,68.0,77.0,77,566.0,square4,j,0.3725,3,V,8.0
V8,8.0,50.0,57.0,66.0,73.0,73,639.0,square4,j,0.0556,3,V,8.0
V8,9.0,46.0,56.0,71.0,72.0,72,711.0,square4,j,0.0496,3,V,8.0
V8,10.0,56.0,58.0,67.0,75.0,75,786.0,square4,j,0.0312,3,V,8.0
V8,11.0,50.0,61.0,69.0,74.0,69,855.0,square3,f,0.0294,2,V,8.0
V8,12.0,59.0,59.0,69.0,77.0,77,932.0,square4,j,0.1106,3,V,8.0
V8,13.0,50.0,56.0,72.0,77.0,77,1009.0,square4,j,0.0777,3,V,8.0
V8,14.0,48.0,55.0,65.0,80.0,80,1089.0,square4,j,0.1063,3,V,8.0
V8,15.0,48.0,58.0,65.0,76.0,76,1165.0,square4,j,0.1227,3,V,8.0
V8,16.0,49.0,58.0,67.0,75.0,75,1240.0,square4,j,0.1264,3,V,8.0
V8,17.0,51.0,56.0,68.0,76.0,76,1316.0,square4,j,0.0627,3,V,8.0
V8,18.0,52.0,63.0,69.0,80.0,80,1396.0,square4,j,0.112,3,V,8.0
V8,19.0,54.0,54.0,71.0,79.0,79,1475.0,square4,j,0.111,3,V,8.0
V8,20.0,48.0,53.0,62.0,77.0,77,1552.0,square4,j,0.0974,3,V,8.0
V8,21.0,44.0,61.0,66.0,77.0,77,1629.0,square4,j,0.078,3,V,8.0
V8,22.0,52.0,58.0,64.0,78.0,78,1707.0,square4,j,0.0108,3,V,8.0
V8,23.0,50.0,49.0,67.0,79.0,79,1786.0,square4,j,0.2795,3,V,8.0
V8,24.0,49.0,59.0,69.0,74.0,74,1860.0,square4,j,0.0005,3,V,8.0
V8,25.0,46.0,61.0,65.0,81.0,46,1906.0,square1,r,0.1721,0,V,8.0
V8,26.0,49.0,58.0,63.0,35.0,58,1964.0,square2,i,0.0953,1,V,8.0
V8,27.0,48.0,51.0,66.0,41.0,66,2030.0,square3,f,0.0477,2,V,8.0
V8,28.0,46.0,55.0,65.0,38.0,38,2068.0,square4,j,0.1883,3,V,8.0
V8,29.0,47.0,58.0,69.0,40.0,47,2115.0,square1,r,0.0562,0,V,8.0
V8,30.0,42.0,55.0,67.0,43.0,55,2170.0,square2,i,0.1526,1,V,8.0
V8,31.0,49.0,56.0,64.0,36.0,64,2234.0,square3,f,0.1738,2,V,8.0
V8,32.0,49.0,55.0,69.0,38.0,69,2303.0,square3,f,0.1311,2,V,8.0
V8,33.0,44.0,52.0,65.0,48.0,65,2368.0,square3,f,0.0381,2,V,8.0
V8,34.0,44.0,57.0,70.0,45.0,57,2425.0,square2,i,0.1408,1,V,8.0
V8,35.0,44.0,54.0,68.0,38.0,44,2469.0,square1,r,0.0005,0,V,8.0
V8,36.0,45.0,56.0,64.0,40.0,64,2533.0,square3,f,0.1223,2,V,8.0
V8,37.0,47.0,57.0,66.0,37.0,57,2590.0,square2,i,0.1379,1,V,8.0
V8,38.0,49.0,50.0,66.0,37.0,37,2627.0,square4,j,0.1951,3,V,8.0
V8,39.0,51.0,56.0,61.0,39.0,51,2678.0,square1,r,0.396,0,V,8.0
V8,40.0,47.0,59.0,66.0,41.0,59,2737.0,square2,i,0.4562,1,V,8.0
V8,41.0,42.0,56.0,69.0,42.0,69,2806.0,square3,f,0.0798,2,V,8.0
V8,42.0,47.0,57.0,72.0,35.0,72,2878.0,square3,f,0.1723,2,V,8.0
V8,43.0,47.0,57.0,63.0,44.0,63,2941.0,square3,f,0.0554,2,V,8.0
V8,44.0,45.0,58.0,67.0,42.0,67,3008.0,square3,f,0.0615,2,V,8.0
V8,45.0,44.0,56.0,66.0,43.0,66,3074.0,square3,f,0.0799,2,V,8.0
V8,46.0,46.0,53.0,70.0,37.0,70,3144.0,square3,f,0.1979,2,V,8.0
V8,47.0,54.0,53.0,71.0,41.0,71,3215.0,square3,f,0.1323,2,V,8.0
V8,48.0,49.0,53.0,69.0,37.0,69,3284.0,square3,f,0.0211,2,V,8.0
V8,49.0,39.0,57.0,65.0,47.0,65,3349.0,square3,f,0.3229,2,V,8.0
V8,50.0,48.0,55.0,65.0,41.0,65,3414.0,square3,f,0.2276,2,V,8.0
V8,51.0,45.0,61.0,68.0,43.0,68,3482.0,square3,f,0.0419,2,V,8.0
V8,52.0,53.0,52.0,68.0,37.0,68,3550.0,square3,f,0.1223,2,V,8.0
V8,53.0,47.0,55.0,66.0,46.0,55,3605.0,square2,i,0.0156,1,V,8.0
V8,54.0,49.0,53.0,61.0,39.0,49,3654.0,square1,r,0.1056,0,V,8.0
V8,55.0,53.0,70.0,55.0,72.0,72,3726.0,square4,j,0.6279,3,V,8.0
V8,56.0,57.0,63.0,48.0,73.0,73,3799.0,square4,j,0.3237,3,V,8.0
V8,57.0,53.0,71.0,45.0,80.0,80,3879.0,square4,j,0.3449,3,V,8.0
V8,58.0,57.0,69.0,52.0,73.0,73,3952.0,square4,j,0.689,3,V,8.0
V8,59.0,58.0,67.0,54.0,73.0,73,4025.0,square4,j,0.256,3,V,8.0
V8,60.0,55.0,66.0,47.0,76.0,76,4101.0,square4,j,0.0005,3,V,8.0
V8,61.0,56.0,65.0,54.0,72.0,72,4173.0,square4,j,0.1238,3,V,8.0
V8,62.0,56.0,65.0,49.0,75.0,75,4248.0,square4,j,0.2266,3,V,8.0
V8,63.0,61.0,65.0,44.0,78.0,78,4326.0,square4,j,0.1723,3,V,8.0
V8,64.0,54.0,66.0,48.0,75.0,75,4401.0,square4,j,0.1986,3,V,8.0
V8,65.0,59.0,65.0,46.0,79.0,79,4480.0,square4,j,0.1466,3,V,8.0
V8,66.0,51.0,62.0,46.0,73.0,99999,4480.0,invalid,,,-1,V,8.0
V8,67.0,60.0,70.0,45.0,76.0,76,4556.0,square4,j,0.0664,3,V,8.0
V8,68.0,63.0,64.0,47.0,73.0,73,4629.0,square4,j,0.2268,3,V,8.0
V8,69.0,58.0,66.0,43.0,77.0,77,4706.0,square4,j,0.2783,3,V,8.0
V8,70.0,59.0,65.0,49.0,73.0,65,4771.0,square2,i,0.073,1,V,8.0
V8,71.0,60.0,64.0,49.0,79.0,64,4835.0,square2,i,0.1424,1,V,8.0
V8,72.0,96.0,68.0,78.0,67.0,67,4902.0,square4,j,0.2208,3,V,8.0
V8,73.0,96.0,68.0,79.0,64.0,64,4966.0,square4,j,0.1404,3,V,8.0
V8,74.0,92.0,67.0,81.0,62.0,62,5028.0,square4,j,0.022,3,V,8.0
V8,75.0,96.0,72.0,83.0,62.0,83,5111.0,square3,f,0.2741,2,V,8.0
V8,76.0,94.0,70.0,77.0,57.0,77,5188.0,square3,f,0.1154,2,V,8.0
V8,77.0,91.0,68.0,81.0,59.0,81,5269.0,square3,f,0.1135,2,V,8.0
V8,78.0,90.0,73.0,80.0,63.0,80,5349.0,square3,f,0.0108,2,V,8.0
V8,79.0,90.0,73.0,83.0,61.0,83,5432.0,square3,f,0.0819,2,V,8.0
V8,80.0,95.0,75.0,81.0,66.0,81,5513.0,square3,f,0.1618,2,V,8.0
V8,81.0,92.0,72.0,81.0,57.0,81,5594.0,square3,f,0.0253,2,V,8.0
V8,82.0,91.0,71.0,80.0,61.0,80,5674.0,square3,f,0.0384,2,V,8.0
V8,83.0,90.0,66.0,83.0,62.0,83,5757.0,square3,f,0.1106,2,V,8.0
V8,84.0,93.0,67.0,87.0,65.0,87,5844.0,square3,f,0.0473,2,V,8.0
V8,85.0,85.0,70.0,80.0,62.0,80,5924.0,square3,f,0.0558,2,V,8.0
V8,86.0,84.0,72.0,85.0,62.0,85,6009.0,square3,f,0.1937,2,V,8.0
V8,87.0,91.0,68.0,82.0,65.0,82,6091.0,square3,f,0.1386,2,V,8.0
V8,88.0,93.0,67.0,83.0,61.0,83,6174.0,square3,f,0.2059,2,V,8.0
V8,89.0,95.0,68.0,78.0,66.0,78,6252.0,square3,f,0.2093,2,V,8.0
V8,90.0,91.0,73.0,80.0,60.0,80,6332.0,square3,f,0.0025,2,V,8.0
V8,91.0,93.0,68.0,81.0,64.0,81,6413.0,square3,f,0.2149,2,V,8.0
V8,92.0,90.0,75.0,82.0,67.0,82,6495.0,square3,f,0.2106,2,V,8.0
V8,93.0,92.0,70.0,82.0,66.0,82,6577.0,square3,f,0.0275,2,V,8.0
V8,94.0,90.0,71.0,78.0,63.0,78,6655.0,square3,f,0.014,2,V,8.0
V8,95.0,88.0,65.0,78.0,63.0,78,6733.0,square3,f,0.0297,2,V,8.0
V8,96.0,89.0,72.0,85.0,62.0,85,6818.0,square3,f,0.0037,2,V,8.0
V8,97.0,92.0,72.0,77.0,67.0,77,6895.0,square3,f,0.0558,2,V,8.0
V8,98.0,86.0,63.0,82.0,62.0,82,6977.0,square3,f,0.0006,2,V,8.0
V8,99.0,90.0,66.0,75.0,61.0,75,7052.0,square3,f,0.0229,2,V,8.0
V10,0.0,28.0,21.0,37.0,46.0,46,46.0,square4,r,0.8793,3,V,10.0
V10,1.0,26.0,19.0,41.0,49.0,26,72.0,square1,i,0.2407,0,V,10.0
V10,2.0,29.0,20.0,43.0,48.0,20,92.0,square2,f,0.3053,1,V,10.0
V10,3.0,27.0,27.0,37.0,44.0,37,129.0,square3,j,0.3397,2,V,10.0
V10,4.0,28.0,16.0,36.0,47.0,47,176.0,square4,r,0.0778,3,V,10.0
V10,5.0,33.0,25.0,42.0,54.0,54,230.0,square4,r,0.261,3,V,10.0
V10,6.0,28.0,19.0,35.0,45.0,45,275.0,square4,r,0.3058,3,V,10.0
V10,7.0,30.0,24.0,35.0,49.0,49,324.0,square4,r,0.1942,3,V,10.0
V10,8.0,37.0,29.0,41.0,47.0,47,371.0,square4,r,0.083,3,V,10.0
V10,9.0,28.0,21.0,41.0,48.0,48,419.0,square4,r,0.3272,3,V,10.0
V10,10.0,27.0,22.0,39.0,42.0,42,461.0,square4,r,0.7231,3,V,10.0
V10,11.0,32.0,16.0,41.0,48.0,48,509.0,square4,r,0.3543,3,V,10.0
V10,12.0,34.0,15.0,33.0,49.0,49,558.0,square4,r,0.2608,3,V,10.0
V10,13.0,36.0,19.0,41.0,45.0,36,594.0,square1,i,0.1832,0,V,10.0
V10,14.0,28.0,23.0,35.0,53.0,35,629.0,square3,j,0.0893,2,V,10.0
V10,15.0,26.0,28.0,40.0,50.0,28,657.0,square2,f,0.111,1,V,10.0
V10,16.0,30.0,25.0,42.0,47.0,47,704.0,square4,r,0.5218,3,V,10.0
V10,17.0,31.0,19.0,38.0,50.0,50,754.0,square4,r,0.3233,3,V,10.0
V10,18.0,34.0,21.0,35.0,48.0,48,802.0,square4,r,0.2936,3,V,10.0
V10,19.0,31.0,24.0,39.0,46.0,46,848.0,square4,r,0.4278,3,V,10.0
V10,20.0,28.0,22.0,42.0,47.0,47,895.0,square4,r,0.1558,3,V,10.0
V10,21.0,24.0,20.0,41.0,47.0,47,942.0,square4,r,0.2724,3,V,10.0
V10,22.0,32.0,22.0,34.0,44.0,44,986.0,square4,r,0.0485,3,V,10.0
V10,23.0,29.0,23.0,37.0,47.0,47,1033.0,square4,r,0.0571,3,V,10.0
V10,24.0,25.0,25.0,38.0,46.0,46,1079.0,square4,r,0.103,3,V,10.0
V10,25.0,30.0,24.0,41.0,45.0,45,1124.0,square4,r,0.1399,3,V,10.0
V10,26.0,32.0,17.0,38.0,49.0,49,1173.0,square4,r,0.1769,3,V,10.0
V10,27.0,34.0,21.0,38.0,47.0,47,1220.0,square4,r,0.0893,3,V,10.0
V10,28.0,29.0,21.0,37.0,45.0,45,1265.0,square4,r,0.1104,3,V,10.0
V10,29.0,30.0,20.0,31.0,47.0,47,1312.0,square4,r,0.1059,3,V,10.0
V10,30.0,28.0,21.0,35.0,44.0,44,1356.0,square4,r,0.1772,3,V,10.0
V10,31.0,36.0,25.0,14.0,8.0,8,1364.0,square4,r,0.1387,3,V,10.0
V10,32.0,38.0,27.0,19.0,11.0,11,1375.0,square4,r,0.1767,3,V,10.0
V10,33.0,39.0,21.0,20.0,13.0,13,1388.0,square4,r,0.1552,3,V,10.0
V10,34.0,34.0,24.0,20.0,10.0,10,1398.0,square4,r,0.1951,3,V,10.0
V10,35.0,44.0,29.0,17.0,11.0,11,1409.0,square4,r,0.2325,3,V,10.0
V10,36.0,33.0,30.0,17.0,9.0,9,1418.0,square4,r,0.2613,3,V,10.0
V10,37.0,31.0,27.0,12.0,6.0,6,1424.0,square4,r,0.1757,3,V,10.0
V10,38.0,34.0,29.0,15.0,10.0,10,1434.0,square4,r,0.6084,3,V,10.0
V10,39.0,35.0,21.0,19.0,5.0,5,1439.0,square4,r,0.2116,3,V,10.0
V10,40.0,32.0,26.0,18.0,6.0,6,1445.0,square4,r,0.1817,3,V,10.0
V10,41.0,34.0,32.0,13.0,9.0,32,1477.0,square2,f,0.5057,1,V,10.0
V10,42.0,35.0,30.0,16.0,8.0,30,1507.0,square2,f,0.2481,1,V,10.0
V10,43.0,38.0,32.0,16.0,8.0,32,1539.0,square2,f,0.1236,1,V,10.0
V10,44.0,34.0,20.0,18.0,3.0,20,1559.0,square2,f,0.1236,1,V,10.0
V10,45.0,38.0,22.0,23.0,9.0,38,1597.0,square1,i,0.1561,0,V,10.0
V10,46.0,36.0,28.0,16.0,10.0,36,1633.0,square1,i,0.1037,0,V,10.0
V10,47.0,36.0,27.0,13.0,8.0,36,1669.0,square1,i,0.1304,0,V,10.0
V10,48.0,35.0,27.0,14.0,12.0,14,1683.0,square3,j,0.1938,2,V,10.0
V10,49.0,33.0,28.0,16.0,10.0,33,1716.0,square1,i,0.1316,0,V,10.0
V10,50.0,31.0,29.0,19.0,8.0,31,1747.0,square1,i,0.132,0,V,10.0
V10,51.0,32.0,21.0,20.0,12.0,32,1779.0,square1,i,0.363,0,V,10.0
V10,52.0,29.0,25.0,21.0,10.0,29,1808.0,square1,i,0.1764,0,V,10.0
V10,53.0,39.0,29.0,23.0,2.0,29,1837.0,square2,f,0.1061,1,V,10.0
V10,54.0,33.0,28.0,19.0,7.0,28,1865.0,square2,f,0.0556,1,V,10.0
V10,55.0,34.0,24.0,15.0,8.0,8,1873.0,square4,r,0.0006,3,V,10.0
V10,56.0,35.0,20.0,21.0,9.0,20,1893.0,square2,f,0.0886,1,V,10.0
V10,57.0,33.0,27.0,19.0,7.0,27,1920.0,square2,f,0.1661,1,V,10.0
V10,58.0,38.0,24.0,16.0,7.0,24,1944.0,square2,f,0.0053,1,V,10.0
V10,59.0,34.0,29.0,15.0,5.0,29,1973.0,square2,f,0.1612,1,V,10.0
V10,60.0,34.0,22.0,19.0,9.0,22,1995.0,square2,f,0.055,1,V,10.0
V10,61.0,39.0,31.0,20.0,10.0,31,2026.0,square2,f,0.0173,1,V,10.0
V10,62.0,35.0,24.0,18.0,6.0,24,2050.0,square2,f,0.0139,1,V,10.0
V10,63.0,35.0,26.0,18.0,9.0,35,2085.0,square1,i,0.0774,0,V,10.0
V10,64.0,31.0,55.0,23.0,23.0,31,2116.0,square1,i,0.5056,0,V,10.0
V10,65.0,35.0,50.0,22.0,27.0,35,2151.0,square1,i,0.0724,0,V,10.0
V10,66.0,35.0,53.0,25.0,29.0,35,2186.0,square1,i,0.2833,0,V,10.0
V10,67.0,38.0,44.0,17.0,29.0,38,2224.0,square1,i,0.0006,0,V,10.0
V10,68.0,36.0,48.0,22.0,27.0,36,2260.0,square1,i,0.1566,0,V,10.0
V10,69.0,41.0,53.0,17.0,28.0,17,2277.0,square3,j,0.2919,2,V,10.0
V10,70.0,40.0,48.0,23.0,28.0,99999,2277.0,invalid,,,-1,V,10.0
V10,71.0,39.0,43.0,24.0,20.0,24,2301.0,square3,j,0.1753,2,V,10.0
V10,72.0,36.0,49.0,19.0,25.0,36,2337.0,square1,i,0.0006,0,V,10.0
V10,73.0,39.0,49.0,23.0,32.0,39,2376.0,square1,i,0.2212,0,V,10.0
V10,74.0,36.0,44.0,17.0,29.0,36,2412.0,square1,i,0.1065,0,V,10.0
V10,75.0,37.0,46.0,20.0,30.0,37,2449.0,square1,i,0.1093,0,V,10.0
V10,76.0,38.0,47.0,23.0,30.0,38,2487.0,square1,i,0.0005,0,V,10.0
V10,77.0,36.0,49.0,22.0,32.0,36,2523.0,square1,i,0.1784,0,V,10.0
V10,78.0,41.0,44.0,19.0,27.0,41,2564.0,square1,i,0.2167,0,V,10.0
V10,79.0,41.0,48.0,22.0,27.0,41,2605.0,square1,i,0.0313,0,V,10.0
V10,80.0,34.0,44.0,26.0,29.0,34,2639.0,square1,i,0.1899,0,V,10.0
V10,81.0,38.0,47.0,18.0,29.0,38,2677.0,square1,i,0.6241,0,V,10.0
V10,82.0,43.0,43.0,23.0,28.0,43,2720.0,square1,i,0.1069,0,V,10.0
V10,83.0,34.0,51.0,23.0,26.0,34,2754.0,square1,i,0.0897,0,V,10.0
V10,84.0,36.0,46.0,18.0,25.0,36,2790.0,square1,i,0.0724,0,V,10.0
V10,85.0,39.0,46.0,25.0,26.0,39,2829.0,square1,i,0.1269,0,V,10.0
V10,86.0,39.0,50.0,27.0,27.0,39,2868.0,square1,i,0.2714,0,V,10.0
V10,87.0,38.0,46.0,20.0,30.0,38,2906.0,square1,i,1.9274,0,V,10.0
V10,88.0,37.0,49.0,22.0,28.0,37,2943.0,square1,i,1.3393,0,V,10.0
V10,89.0,34.0,51.0,25.0,26.0,34,2977.0,square1,i,0.5328,0,V,10.0
V10,90.0,41.0,49.0,22.0,29.0,41,3018.0,square1,i,0.0557,0,V,10.0
V10,91.0,37.0,45.0,26.0,32.0,26,3044.0,square3,j,0.0033,2,V,10.0
V10,92.0,42.0,42.0,27.0,28.0,42,3086.0,square1,i,0.6296,0,V,10.0
V10,93.0,41.0,48.0,19.0,36.0,36,3122.0,square4,r,0.1966,3,V,10.0
V10,94.0,43.0,49.0,23.0,31.0,49,3171.0,square2,f,0.4277,1,V,10.0
V10,95.0,39.0,46.0,18.0,27.0,46,3217.0,square2,f,0.1723,1,V,10.0
V10,96.0,37.0,48.0,24.0,27.0,48,3265.0,square2,f,0.1073,1,V,10.0
V10,97.0,42.0,50.0,23.0,31.0,50,3315.0,square2,f,0.1913,1,V,10.0
V10,98.0,33.0,47.0,25.0,32.0,47,3362.0,square2,f,0.2397,1,V,10.0
V10,99.0,39.0,48.0,23.0,32.0,48,3410.0,square2,f,0.0614,1,V,10.0
