block,Trial,square1,square2,square3,square4,currPoints,totalPoints,square,choiceKey.keys,choiceKey.rt,armNum,blockType,blockNum
prac,0.0,100.0,0.0,0.0,0.0,100,100.0,square1,,,0,p,0.0
prac,1.0,100.0,0.0,0.0,0.0,0,100.0,square4,,,3,p,0.0
prac,2.0,100.0,0.0,0.0,0.0,0,100.0,square2,,,1,p,0.0
prac,3.0,100.0,0.0,0.0,0.0,0,100.0,square3,,,2,p,0.0
prac,4.0,100.0,0.0,0.0,0.0,100,200.0,square1,,,0,p,0.0
prac,5.0,100.0,0.0,0.0,0.0,100,300.0,square1,,,0,p,0.0
prac,6.0,100.0,0.0,0.0,0.0,100,400.0,square1,,,0,p,0.0
prac,7.0,100.0,0.0,0.0,0.0,100,500.0,square1,,,0,p,0.0
prac,8.0,100.0,0.0,0.0,0.0,100,600.0,square1,,,0,p,0.0
prac,9.0,100.0,0.0,0.0,0.0,100,700.0,square1,,,0,p,0.0
V12,0.0,47.0,30.0,38.0,55.0,47,47.0,square1,f,0.6394,0,V,12.0
V12,1.0,46.0,33.0,39.0,57.0,39,86.0,square3,i,0.3231,2,V,12.0
V12,2.0,51.0,29.0,42.0,52.0,29,115.0,square2,j,0.1157,1,V,12.0
V12,3.0,52.0,30.0,38.0,62.0,62,177.0,square4,r,0.4115,3,V,12.0
V12,4.0,48.0,30.0,39.0,62.0,62,239.0,square4,r,0.4403,3,V,12.0
V12,5.0,55.0,34.0,43.0,61.0,61,300.0,square4,r,0.1099,3,V,12.0
V12,6.0,45.0,35.0,42.0,56.0,45,345.0,square1,f,0.1053,0,V,12.0
V12,7.0,48.0,29.0,35.0,57.0,57,402.0,square4,r,0.4384,3,V,12.0
V12,8.0,46.0,33.0,38.0,59.0,33,435.0,square2,j,0.3122,1,V,12.0
V12,9.0,44.0,31.0,42.0,56.0,42,477.0,square3,i,0.3011,2,V,12.0
V12,10.0,48.0,34.0,45.0,55.0,55,532.0,square4,r,0.0226,3,V,12.0
V12,11.0,45.0,32.0,41.0,55.0,55,587.0,square4,r,0.2426,3,V,12.0
V12,12.0,52.0,26.0,42.0,57.0,57,644.0,square4,r,0.2551,3,V,12.0
V12,13.0,56.0,31.0,41.0,54.0,54,698.0,square4,r,0.2576,3,V,12.0
V12,14.0,44.0,34.0,40.0,64.0,64,762.0,square4,r,0.1266,3,V,12.0
V12,15.0,48.0,32.0,39.0,61.0,61,823.0,square4,r,0.2978,3,V,12.0
V12,16.0,49.0,33.0,37.0,58.0,58,881.0,square4,r,0.2904,3,V,12.0
V12,17.0,45.0,33.0,43.0,57.0,57,938.0,square4,r,0.2763,3,V,12.0
V12,18.0,45.0,28.0,40.0,58.0,58,996.0,square4,r,0.2321,3,V,12.0
V12,19.0,42.0,33.0,43.0,59.0,59,1055.0,square4,r,0.2992,3,V,12.0
V12,20.0,46.0,30.0,38.0,62.0,62,1117.0,square4,r,0.269,3,V,12.0
V12,21.0,46.0,35.0,40.0,55.0,55,1172.0,square4,r,0.2277,3,V,12.0
V12,22.0,46.0,34.0,36.0,63.0,63,1235.0,square4,r,0.2714,3,V,12.0
V12,23.0,54.0,34.0,42.0,56.0,54,1289.0,square1,f,0.1799,0,V,12.0
V12,24.0,44.0,30.0,41.0,59.0,59,1348.0,square4,r,0.6091,3,V,12.0
V12,25.0,49.0,33.0,37.0,64.0,49,1397.0,square1,f,0.2508,0,V,12.0
V12,26.0,52.0,34.0,39.0,57.0,57,1454.0,square4,r,0.1647,3,V,12.0
V12,27.0,50.0,26.0,37.0,55.0,55,1509.0,square4,r,0.3934,3,V,12.0
V12,28.0,41.0,29.0,46.0,21.0,21,1530.0,square4,r,0.257,3,V,12.0
V12,29.0,41.0,28.0,51.0,20.0,51,1581.0,square3,i,0.2793,2,V,12.0
V12,30.0,32.0,31.0,46.0,22.0,46,1627.0,square3,i,0.4102,2,V,12.0
V12,31.0,38.0,28.0,45.0,22.0,28,1655.0,square2,j,0.2335,1,V,12.0
V12,32.0,35.0,27.0,44.0,16.0,35,1690.0,square1,f,1.281,0,V,12.0
V12,33.0,39.0,29.0,49.0,21.0,49,1739.0,square3,i,0.1302,2,V,12.0
V12,34.0,39.0,28.0,49.0,15.0,49,1788.0,square3,i,0.2389,2,V,12.0
V12,35.0,36.0,29.0,50.0,17.0,50,1838.0,square3,i,0.2451,2,V,12.0
V12,36.0,41.0,28.0,48.0,12.0,48,1886.0,square3,i,0.4268,2,V,12.0
V12,37.0,34.0,29.0,46.0,25.0,46,1932.0,square3,i,0.292,2,V,12.0
V12,38.0,38.0,28.0,51.0,19.0,38,1970.0,square1,f,0.2828,0,V,12.0
V12,39.0,39.0,31.0,45.0,13.0,13,1983.0,square4,r,0.2995,3,V,12.0
V12,40.0,35.0,28.0,46.0,26.0,28,2011.0,square2,j,0.1043,1,V,12.0
V12,41.0,38.0,27.0,46.0,20.0,46,2057.0,square3,i,0.2722,2,V,12.0
V12,42.0,40.0,26.0,50.0,23.0,50,2107.0,square3,i,0.2097,2,V,12.0
V12,43.0,33.0,30.0,45.0,18.0,45,2152.0,square3,i,0.5459,2,V,12.0
V12,44.0,39.0,31.0,46.0,22.0,46,2198.0,square3,i,0.4388,2,V,12.0
V12,45.0,32.0,26.0,42.0,20.0,42,2240.0,square3,i,0.3482,2,V,12.0
V12,46.0,36.0,29.0,43.0,24.0,43,2283.0,square3,i,0.3204,2,V,12.0
V12,47.0,37.0,30.0,46.0,21.0,46,2329.0,square3,i,0.2945,2,V,12.0
V12,48.0,37.0,27.0,44.0,19.0,44,2373.0,square3,i,0.2506,2,V,12.0
V12,49.0,36.0,33.0,55.0,16.0,55,2428.0,square3,i,0.282,2,V,12.0
V12,50.0,45.0,28.0,44.0,18.0,44,2472.0,square3,i,0.0227,2,V,12.0
V12,51.0,35.0,32.0,49.0,19.0,49,2521.0,square3,i,0.2431,2,V,12.0
V12,52.0,36.0,56.0,31.0,52.0,31,2552.0,square3,i,0.3227,2,V,12.0
V12,53.0,36.0,57.0,29.0,45.0,57,2609.0,square2,j,0.2399,1,V,12.0
V12,54.0,38.0,61.0,28.0,51.0,61,2670.0,square2,j,0.242,1,V,12.0
V12,55.0,35.0,60.0,29.0,47.0,60,2730.0,square2,j,0.2613,1,V,12.0
V12,56.0,34.0,62.0,29.0,46.0,62,2792.0,square2,j,0.0004,1,V,12.0
V12,57.0,43.0,57.0,32.0,46.0,57,2849.0,square2,j,0.1232,1,V,12.0
V12,58.0,40.0,59.0,32.0,50.0,59,2908.0,square2,j,0.1199,1,V,12.0
V12,59.0,41.0,62.0,33.0,48.0,62,2970.0,square2,j,1.2386,1,V,12.0
V12,60.0,36.0,61.0,32.0,49.0,61,3031.0,square2,j,1.6079,1,V,12.0
V12,61.0,39.0,56.0,32.0,44.0,56,3087.0,square2,j,0.3801,1,V,12.0
V12,62.0,39.0,57.0,30.0,46.0,57,3144.0,square2,j,0.3913,1,V,12.0
V12,63.0,42.0,53.0,29.0,46.0,53,3197.0,square2,j,0.1099,1,V,12.0
V12,64.0,35.0,57.0,32.0,50.0,57,3254.0,square2,j,0.7218,1,V,12.0
V12,65.0,44.0,58.0,32.0,49.0,58,3312.0,square2,j,0.2094,1,V,12.0
V12,66.0,44.0,56.0,29.0,52.0,56,3368.0,square2,j,0.0305,1,V,12.0
V12,67.0,41.0,60.0,30.0,49.0,60,3428.0,square2,j,0.6777,1,V,12.0
V12,68.0,42.0,58.0,32.0,45.0,58,3486.0,square2,j,0.1289,1,V,12.0
V12,69.0,36.0,60.0,33.0,50.0,60,3546.0,square2,j,0.4767,1,V,12.0
V12,70.0,36.0,57.0,27.0,46.0,57,3603.0,square2,j,0.3056,1,V,12.0
V12,71.0,41.0,59.0,32.0,48.0,59,3662.0,square2,j,0.8888,1,V,12.0
V12,72.0,34.0,59.0,31.0,49.0,59,3721.0,square2,j,0.2557,1,V,12.0
V12,73.0,71.0,53.0,65.0,49.0,53,3774.0,square2,j,0.0945,1,V,12.0
V12,74.0,69.0,49.0,63.0,45.0,49,3823.0,square2,j,0.2221,1,V,12.0
V12,75.0,72.0,51.0,56.0,46.0,51,3874.0,square2,j,0.1397,1,V,12.0
V12,76.0,72.0,48.0,58.0,43.0,48,3922.0,square2,j,0.2502,1,V,12.0
V12,77.0,74.0,57.0,59.0,44.0,57,3979.0,square2,j,0.2632,1,V,12.0
V12,78.0,69.0,55.0,63.0,50.0,55,4034.0,square2,j,0.3076,1,V,12.0
V12,79.0,73.0,53.0,58.0,43.0,53,4087.0,square2,j,0.2692,1,V,12.0
V12,80.0,71.0,47.0,65.0,40.0,47,4134.0,square2,j,0.2386,1,V,12.0
V12,81.0,66.0,49.0,57.0,40.0,49,4183.0,square2,j,0.131,1,V,12.0
V12,82.0,71.0,53.0,57.0,48.0,53,4236.0,square2,j,0.2065,1,V,12.0
V12,83.0,70.0,50.0,56.0,49.0,50,4286.0,square2,j,0.279,1,V,12.0
V12,84.0,69.0,45.0,64.0,43.0,45,4331.0,square2,j,0.2574,1,V,12.0
V12,85.0,64.0,48.0,54.0,42.0,48,4379.0,square2,j,0.8003,1,V,12.0
V12,86.0,71.0,49.0,63.0,44.0,44,4423.0,square4,r,0.5574,3,V,12.0
V12,87.0,72.0,52.0,55.0,42.0,55,4478.0,square3,i,0.3805,2,V,12.0
V12,88.0,64.0,48.0,59.0,44.0,59,4537.0,square3,i,0.2887,2,V,12.0
V12,89.0,69.0,48.0,62.0,45.0,62,4599.0,square3,i,0.0436,2,V,12.0
V12,90.0,68.0,56.0,60.0,42.0,60,4659.0,square3,i,0.6823,2,V,12.0
V12,91.0,69.0,52.0,62.0,45.0,69,4728.0,square1,f,0.1669,0,V,12.0
V12,92.0,65.0,50.0,64.0,47.0,50,4778.0,square2,j,0.5375,1,V,12.0
V12,93.0,68.0,51.0,62.0,43.0,68,4846.0,square1,f,0.2556,0,V,12.0
V12,94.0,68.0,52.0,60.0,38.0,68,4914.0,square1,f,0.2981,0,V,12.0
V12,95.0,71.0,52.0,58.0,47.0,71,4985.0,square1,f,0.3597,0,V,12.0
V12,96.0,66.0,49.0,59.0,44.0,66,5051.0,square1,f,0.4589,0,V,12.0
V12,97.0,74.0,47.0,54.0,47.0,74,5125.0,square1,f,0.39,0,V,12.0
V12,98.0,68.0,43.0,64.0,41.0,68,5193.0,square1,f,0.372,0,V,12.0
V12,99.0,71.0,53.0,62.0,44.0,44,5237.0,square4,r,0.2594,3,V,12.0
V11,0.0,42.0,67.0,57.0,49.0,49,49.0,square4,f,0.8903,3,V,11.0
V11,1.0,42.0,71.0,60.0,53.0,60,109.0,square3,j,0.1601,2,V,11.0
V11,2.0,45.0,76.0,58.0,51.0,58,167.0,square3,j,0.2668,2,V,11.0
V11,3.0,44.0,65.0,60.0,49.0,65,232.0,square2,r,0.1593,1,V,11.0
V11,4.0,46.0,73.0,64.0,51.0,46,278.0,square1,i,0.1454,0,V,11.0
V11,5.0,47.0,67.0,58.0,54.0,67,345.0,square2,r,0.0005,1,V,11.0
V11,6.0,43.0,68.0,58.0,50.0,68,413.0,square2,r,0.1776,1,V,11.0
V11,7.0,42.0,67.0,60.0,58.0,67,480.0,square2,r,0.2227,1,V,11.0
V11,8.0,44.0,67.0,60.0,53.0,67,547.0,square2,r,0.2909,1,V,11.0
V11,9.0,44.0,67.0,59.0,54.0,67,614.0,square2,r,0.2859,1,V,11.0
V11,10.0,49.0,76.0,57.0,52.0,52,666.0,square4,f,0.6057,3,V,11.0
V11,11.0,45.0,71.0,58.0,51.0,71,737.0,square2,r,0.3041,1,V,11.0
V11,12.0,45.0,72.0,58.0,56.0,56,793.0,square4,f,0.3491,3,V,11.0
V11,13.0,49.0,67.0,63.0,54.0,63,856.0,square3,j,0.4569,2,V,11.0
V11,14.0,50.0,75.0,57.0,48.0,75,931.0,square2,r,0.0614,1,V,11.0
V11,15.0,40.0,71.0,61.0,51.0,71,1002.0,square2,r,0.1111,1,V,11.0
V11,16.0,47.0,72.0,56.0,54.0,72,1074.0,square2,r,0.0005,1,V,11.0
V11,17.0,40.0,71.0,61.0,46.0,71,1145.0,square2,r,0.2802,1,V,11.0
V11,18.0,44.0,69.0,59.0,51.0,69,1214.0,square2,r,0.3392,1,V,11.0
V11,19.0,44.0,73.0,59.0,47.0,73,1287.0,square2,r,0.0951,1,V,11.0
V11,20.0,47.0,69.0,64.0,54.0,69,1356.0,square2,r,0.1634,1,V,11.0
V11,21.0,78.0,49.0,70.0,65.0,49,1405.0,square2,r,0.4404,1,V,11.0
V11,22.0,78.0,56.0,73.0,62.0,56,1461.0,square2,r,0.7213,1,V,11.0
V11,23.0,84.0,54.0,71.0,65.0,54,1515.0,square2,r,0.1604,1,V,11.0
V11,24.0,80.0,55.0,72.0,67.0,55,1570.0,square2,r,0.5105,1,V,11.0
V11,25.0,80.0,55.0,75.0,63.0,55,1625.0,square2,r,0.5977,1,V,11.0
V11,26.0,80.0,56.0,67.0,62.0,62,1687.0,square4,f,0.0837,3,V,11.0
V11,27.0,80.0,51.0,68.0,62.0,68,1755.0,square3,j,0.2571,2,V,11.0
V11,28.0,79.0,57.0,67.0,57.0,79,1834.0,square1,i,0.2369,0,V,11.0
V11,29.0,79.0,50.0,67.0,62.0,79,1913.0,square1,i,0.1726,0,V,11.0
V11,30.0,88.0,54.0,74.0,61.0,88,2001.0,square1,i,0.0088,0,V,11.0
V11,31.0,81.0,51.0,75.0,63.0,81,2082.0,square1,i,0.039,0,V,11.0
V11,32.0,76.0,51.0,69.0,65.0,76,2158.0,square1,i,0.2209,0,V,11.0
V11,33.0,78.0,54.0,72.0,64.0,72,2230.0,square3,j,0.0101,2,V,11.0
V11,34.0,77.0,53.0,71.0,62.0,53,2283.0,square2,r,0.8655,1,V,11.0
V11,35.0,74.0,59.0,75.0,62.0,59,2342.0,square2,r,0.1428,1,V,11.0
V11,36.0,79.0,50.0,72.0,62.0,62,2404.0,square4,f,1.2065,3,V,11.0
V11,37.0,74.0,54.0,68.0,62.0,62,2466.0,square4,f,0.3261,3,V,11.0
V11,38.0,80.0,57.0,65.0,58.0,58,2524.0,square4,f,0.3659,3,V,11.0
V11,39.0,73.0,52.0,75.0,66.0,73,2597.0,square1,i,0.0436,0,V,11.0
V11,40.0,82.0,57.0,71.0,57.0,71,2668.0,square3,j,0.0223,2,V,11.0
V11,41.0,78.0,53.0,73.0,64.0,78,2746.0,square1,i,0.4902,0,V,11.0
V11,42.0,72.0,56.0,67.0,59.0,72,2818.0,square1,i,0.045,0,V,11.0
V11,43.0,81.0,54.0,73.0,63.0,81,2899.0,square1,i,0.9888,0,V,11.0
V11,44.0,76.0,54.0,75.0,59.0,76,2975.0,square1,i,0.6766,0,V,11.0
V11,45.0,79.0,59.0,71.0,64.0,71,3046.0,square3,j,0.1932,2,V,11.0
V11,46.0,80.0,55.0,67.0,57.0,80,3126.0,square1,i,0.3227,0,V,11.0
V11,47.0,84.0,53.0,75.0,56.0,84,3210.0,square1,i,0.0005,0,V,11.0
V11,48.0,83.0,57.0,71.0,60.0,83,3293.0,square1,i,0.3164,0,V,11.0
V11,49.0,79.0,52.0,71.0,60.0,79,3372.0,square1,i,0.0482,0,V,11.0
V11,50.0,76.0,50.0,69.0,60.0,76,3448.0,square1,i,0.1377,0,V,11.0
V11,51.0,79.0,54.0,72.0,57.0,79,3527.0,square1,i,0.0556,0,V,11.0
V11,52.0,80.0,54.0,72.0,64.0,80,3607.0,square1,i,0.1288,0,V,11.0
V11,53.0,35.0,50.0,55.0,69.0,35,3642.0,square1,i,0.1232,0,V,11.0
V11,54.0,45.0,48.0,55.0,73.0,48,3690.0,square2,r,0.2622,1,V,11.0
V11,55.0,43.0,53.0,58.0,70.0,70,3760.0,square4,f,0.322,3,V,11.0
V11,56.0,40.0,46.0,60.0,62.0,60,3820.0,square3,j,0.3242,2,V,11.0
V11,57.0,44.0,46.0,53.0,71.0,71,3891.0,square4,f,0.1227,3,V,11.0
V11,58.0,44.0,52.0,55.0,68.0,68,3959.0,square4,f,0.2215,3,V,11.0
V11,59.0,44.0,44.0,57.0,66.0,66,4025.0,square4,f,0.1756,3,V,11.0
V11,60.0,40.0,46.0,57.0,62.0,62,4087.0,square4,f,0.1543,3,V,11.0
V11,61.0,42.0,52.0,58.0,62.0,62,4149.0,square4,f,0.1489,3,V,11.0
V11,62.0,40.0,49.0,56.0,71.0,56,4205.0,square3,j,0.0882,2,V,11.0
V11,63.0,40.0,54.0,60.0,66.0,60,4265.0,square3,j,0.3955,2,V,11.0
V11,64.0,41.0,43.0,51.0,66.0,66,4331.0,square4,f,0.1229,3,V,11.0
V11,65.0,39.0,48.0,59.0,66.0,48,4379.0,square2,r,0.0183,1,V,11.0
V11,66.0,40.0,48.0,59.0,69.0,69,4448.0,square4,f,0.3967,3,V,11.0
V11,67.0,46.0,45.0,58.0,69.0,46,4494.0,square1,i,0.0492,0,V,11.0
V11,68.0,41.0,50.0,56.0,69.0,56,4550.0,square3,j,0.4509,2,V,11.0
V11,69.0,48.0,49.0,57.0,71.0,71,4621.0,square4,f,0.3715,3,V,11.0
V11,70.0,41.0,47.0,58.0,65.0,65,4686.0,square4,f,0.3968,3,V,11.0
V11,71.0,37.0,46.0,58.0,60.0,60,4746.0,square4,f,0.4656,3,V,11.0
V11,72.0,41.0,47.0,54.0,65.0,65,4811.0,square4,f,0.8633,3,V,11.0
V11,73.0,42.0,47.0,60.0,67.0,67,4878.0,square4,f,0.711,3,V,11.0
V11,74.0,43.0,49.0,57.0,64.0,64,4942.0,square4,f,0.3228,3,V,11.0
V11,75.0,38.0,46.0,57.0,66.0,66,5008.0,square4,f,0.9259,3,V,11.0
V11,76.0,42.0,50.0,58.0,68.0,68,5076.0,square4,f,0.5262,3,V,11.0
V11,77.0,36.0,49.0,58.0,64.0,64,5140.0,square4,f,0.7684,3,V,11.0
V11,78.0,40.0,50.0,56.0,67.0,99999,5140.0,invalid,,,-1,V,11.0
V11,79.0,39.0,48.0,56.0,67.0,67,5207.0,square4,f,0.3404,3,V,11.0
V11,80.0,51.0,33.0,30.0,45.0,45,5252.0,square4,f,0.4792,3,V,11.0
V11,81.0,49.0,31.0,23.0,48.0,23,5275.0,square3,j,0.4079,2,V,11.0
V11,82.0,55.0,30.0,25.0,42.0,55,5330.0,square1,i,0.3556,0,V,11.0
V11,83.0,50.0,33.0,27.0,48.0,33,5363.0,square2,r,0.059,1,V,11.0
V11,84.0,52.0,34.0,25.0,43.0,52,5415.0,square1,i,0.4711,0,V,11.0
V11,85.0,49.0,28.0,28.0,44.0,49,5464.0,square1,i,0.2875,0,V,11.0
V11,86.0,57.0,29.0,27.0,48.0,57,5521.0,square1,i,0.3432,0,V,11.0
V11,87.0,49.0,29.0,21.0,38.0,38,5559.0,square4,f,0.2556,3,V,11.0
V11,88.0,55.0,32.0,29.0,46.0,55,5614.0,square1,i,0.3044,0,V,11.0
V11,89.0,50.0,28.0,23.0,43.0,23,5637.0,square3,j,0.003,2,V,11.0
V11,90.0,54.0,34.0,32.0,41.0,34,5671.0,square2,r,0.6227,1,V,11.0
V11,91.0,50.0,34.0,26.0,44.0,50,5721.0,square1,i,0.22,0,V,11.0
V11,92.0,51.0,31.0,27.0,50.0,51,5772.0,square1,i,0.0882,0,V,11.0
V11,93.0,49.0,38.0,28.0,42.0,49,5821.0,square1,i,0.5882,0,V,11.0
V11,94.0,50.0,29.0,25.0,46.0,50,5871.0,square1,i,0.9665,0,V,11.0
V11,95.0,51.0,36.0,22.0,40.0,51,5922.0,square1,i,0.1899,0,V,11.0
V11,96.0,52.0,34.0,32.0,45.0,52,5974.0,square1,i,0.2808,0,V,11.0
V11,97.0,53.0,27.0,32.0,44.0,53,6027.0,square1,i,0.056,0,V,11.0
V11,98.0,60.0,31.0,25.0,48.0,60,6087.0,square1,i,0.2224,0,V,11.0
V11,99.0,53.0,33.0,23.0,42.0,53,6140.0,square1,i,0.4249,0,V,11.0
V2,0.0,33.0,24.0,43.0,18.0,33,33.0,square1,r,1.1181,0,V,2.0
V2,1.0,33.0,29.0,42.0,21.0,21,54.0,square4,i,0.3227,3,V,2.0
V2,2.0,37.0,26.0,45.0,22.0,45,99.0,square3,f,0.3107,2,V,2.0
V2,3.0,39.0,26.0,41.0,20.0,26,125.0,square2,j,0.0048,1,V,2.0
V2,4.0,29.0,32.0,45.0,19.0,45,170.0,square3,f,0.1063,2,V,2.0
V2,5.0,33.0,28.0,44.0,17.0,44,214.0,square3,f,0.1565,2,V,2.0
V2,6.0,32.0,24.0,49.0,20.0,49,263.0,square3,f,0.2223,2,V,2.0
V2,7.0,32.0,21.0,42.0,13.0,42,305.0,square3,f,0.0563,2,V,2.0
V2,8.0,35.0,23.0,45.0,19.0,45,350.0,square3,f,0.0573,2,V,2.0
V2,9.0,33.0,28.0,46.0,17.0,46,396.0,square3,f,0.112,2,V,2.0
V2,10.0,39.0,27.0,45.0,21.0,45,441.0,square3,f,0.1953,2,V,2.0
V2,11.0,30.0,23.0,44.0,22.0,44,485.0,square3,f,0.2961,2,V,2.0
V2,12.0,31.0,26.0,43.0,16.0,43,528.0,square3,f,0.7062,2,V,2.0
V2,13.0,35.0,26.0,43.0,22.0,35,563.0,square1,r,0.3061,0,V,2.0
V2,14.0,35.0,29.0,46.0,19.0,46,609.0,square3,f,0.0937,2,V,2.0
V2,15.0,36.0,22.0,44.0,20.0,44,653.0,square3,f,0.2094,2,V,2.0
V2,16.0,33.0,27.0,45.0,19.0,45,698.0,square3,f,0.4061,2,V,2.0
V2,17.0,35.0,25.0,41.0,15.0,41,739.0,square3,f,0.9955,2,V,2.0
V2,18.0,37.0,27.0,51.0,21.0,51,790.0,square3,f,0.426,2,V,2.0
V2,19.0,33.0,25.0,43.0,18.0,43,833.0,square3,f,0.8399,2,V,2.0
V2,20.0,39.0,25.0,43.0,20.0,20,853.0,square4,i,0.1058,3,V,2.0
V2,21.0,27.0,32.0,43.0,24.0,32,885.0,square2,j,0.0566,1,V,2.0
V2,22.0,35.0,27.0,50.0,13.0,35,920.0,square1,r,0.2724,0,V,2.0
V2,23.0,36.0,25.0,39.0,17.0,39,959.0,square3,f,0.5106,2,V,2.0
V2,24.0,32.0,45.0,39.0,59.0,32,991.0,square1,r,0.9659,0,V,2.0
V2,25.0,26.0,43.0,37.0,55.0,37,1028.0,square3,f,0.2564,2,V,2.0
V2,26.0,23.0,45.0,39.0,58.0,39,1067.0,square3,f,0.323,2,V,2.0
V2,27.0,30.0,44.0,40.0,56.0,40,1107.0,square3,f,0.3402,2,V,2.0
V2,28.0,34.0,48.0,41.0,54.0,41,1148.0,square3,f,0.7793,2,V,2.0
V2,29.0,29.0,42.0,35.0,54.0,35,1183.0,square3,f,0.4269,2,V,2.0
V2,30.0,22.0,39.0,39.0,55.0,39,1222.0,square3,f,0.3555,2,V,2.0
V2,31.0,32.0,48.0,35.0,50.0,35,1257.0,square3,f,0.5222,2,V,2.0
V2,32.0,27.0,47.0,40.0,58.0,40,1297.0,square3,f,0.3106,2,V,2.0
V2,33.0,28.0,46.0,31.0,54.0,31,1328.0,square3,f,0.3718,2,V,2.0
V2,34.0,28.0,44.0,41.0,49.0,41,1369.0,square3,f,0.3383,2,V,2.0
V2,35.0,31.0,44.0,33.0,59.0,44,1413.0,square2,j,0.1418,1,V,2.0
V2,36.0,29.0,48.0,30.0,55.0,48,1461.0,square2,j,0.373,1,V,2.0
V2,37.0,25.0,45.0,32.0,51.0,45,1506.0,square2,j,0.307,1,V,2.0
V2,38.0,29.0,48.0,33.0,54.0,48,1554.0,square2,j,0.2056,1,V,2.0
V2,39.0,29.0,44.0,33.0,54.0,54,1608.0,square4,i,0.0781,3,V,2.0
V2,40.0,33.0,42.0,37.0,61.0,61,1669.0,square4,i,0.5047,3,V,2.0
V2,41.0,28.0,45.0,41.0,57.0,57,1726.0,square4,i,0.0729,3,V,2.0
V2,42.0,33.0,46.0,36.0,54.0,54,1780.0,square4,i,0.0483,3,V,2.0
V2,43.0,31.0,42.0,40.0,57.0,57,1837.0,square4,i,0.0766,3,V,2.0
V2,44.0,27.0,45.0,38.0,56.0,56,1893.0,square4,i,0.0007,3,V,2.0
V2,45.0,27.0,44.0,32.0,51.0,51,1944.0,square4,i,0.1887,3,V,2.0
V2,46.0,28.0,44.0,39.0,57.0,57,2001.0,square4,i,0.2062,3,V,2.0
V2,47.0,30.0,45.0,36.0,56.0,56,2057.0,square4,i,0.3207,3,V,2.0
V2,48.0,31.0,47.0,41.0,59.0,59,2116.0,square4,i,0.0894,3,V,2.0
V2,49.0,32.0,45.0,33.0,57.0,57,2173.0,square4,i,0.1052,3,V,2.0
V2,50.0,24.0,38.0,36.0,52.0,52,2225.0,square4,i,0.1063,3,V,2.0
V2,51.0,29.0,48.0,34.0,54.0,54,2279.0,square4,i,0.1818,3,V,2.0
V2,52.0,30.0,50.0,38.0,56.0,56,2335.0,square4,i,0.1554,3,V,2.0
V2,53.0,27.0,47.0,33.0,55.0,55,2390.0,square4,i,0.0476,3,V,2.0
V2,54.0,34.0,21.0,45.0,25.0,25,2415.0,square4,i,0.3395,3,V,2.0
V2,55.0,36.0,19.0,39.0,24.0,24,2439.0,square4,i,0.1295,3,V,2.0
V2,56.0,29.0,19.0,45.0,18.0,18,2457.0,square4,i,0.2382,3,V,2.0
V2,57.0,29.0,20.0,39.0,20.0,20,2477.0,square4,i,0.1097,3,V,2.0
V2,58.0,40.0,18.0,42.0,21.0,21,2498.0,square4,i,0.1486,3,V,2.0
V2,59.0,31.0,17.0,44.0,23.0,23,2521.0,square4,i,0.0655,3,V,2.0
V2,60.0,31.0,19.0,42.0,20.0,19,2540.0,square2,j,0.7946,1,V,2.0
V2,61.0,34.0,16.0,41.0,25.0,34,2574.0,square1,r,0.3014,0,V,2.0
V2,62.0,28.0,12.0,41.0,22.0,41,2615.0,square3,f,0.6612,2,V,2.0
V2,63.0,32.0,14.0,45.0,26.0,45,2660.0,square3,f,1.2884,2,V,2.0
V2,64.0,36.0,21.0,41.0,25.0,36,2696.0,square1,r,0.7767,0,V,2.0
V2,65.0,32.0,13.0,39.0,24.0,32,2728.0,square1,r,0.3377,0,V,2.0
V2,66.0,35.0,15.0,42.0,20.0,42,2770.0,square3,f,0.1281,2,V,2.0
V2,67.0,30.0,23.0,47.0,27.0,27,2797.0,square4,i,0.7052,3,V,2.0
V2,68.0,31.0,17.0,43.0,24.0,17,2814.0,square2,j,0.1572,1,V,2.0
V2,69.0,33.0,20.0,41.0,20.0,41,2855.0,square3,f,0.5233,2,V,2.0
V2,70.0,37.0,17.0,43.0,21.0,43,2898.0,square3,f,0.1335,2,V,2.0
V2,71.0,45.0,31.0,36.0,58.0,36,2934.0,square3,f,0.1722,2,V,2.0
V2,72.0,47.0,31.0,31.0,54.0,31,2965.0,square3,f,0.0614,2,V,2.0
V2,73.0,50.0,30.0,33.0,55.0,50,3015.0,square1,r,0.0043,0,V,2.0
V2,74.0,45.0,31.0,36.0,51.0,45,3060.0,square1,r,0.0107,0,V,2.0
V2,75.0,47.0,28.0,38.0,54.0,47,3107.0,square1,r,0.1556,0,V,2.0
V2,76.0,52.0,33.0,35.0,60.0,52,3159.0,square1,r,0.0884,0,V,2.0
V2,77.0,41.0,29.0,37.0,53.0,41,3200.0,square1,r,0.2442,0,V,2.0
V2,78.0,51.0,24.0,34.0,56.0,51,3251.0,square1,r,0.2113,0,V,2.0
V2,79.0,41.0,34.0,36.0,52.0,41,3292.0,square1,r,0.171,0,V,2.0
V2,80.0,48.0,31.0,37.0,51.0,48,3340.0,square1,r,1.5394,0,V,2.0
V2,81.0,43.0,32.0,40.0,53.0,43,3383.0,square1,r,0.1398,0,V,2.0
V2,82.0,48.0,25.0,37.0,58.0,48,3431.0,square1,r,0.077,0,V,2.0
V2,83.0,45.0,32.0,36.0,61.0,45,3476.0,square1,r,0.0221,0,V,2.0
V2,84.0,47.0,29.0,39.0,60.0,47,3523.0,square1,r,0.6444,0,V,2.0
V2,85.0,49.0,30.0,39.0,54.0,99999,3523.0,invalid,,,-1,V,2.0
V2,86.0,46.0,28.0,33.0,51.0,46,3569.0,square1,r,0.0447,0,V,2.0
V2,87.0,45.0,24.0,37.0,55.0,45,3614.0,square1,r,0.3136,0,V,2.0
V2,88.0,48.0,29.0,42.0,54.0,48,3662.0,square1,r,0.1097,0,V,2.0
V2,89.0,43.0,31.0,38.0,52.0,43,3705.0,square1,r,0.1814,0,V,2.0
V2,90.0,51.0,33.0,36.0,56.0,51,3756.0,square1,r,0.1555,0,V,2.0
V2,91.0,49.0,32.0,37.0,59.0,49,3805.0,square1,r,0.0158,0,V,2.0
V2,92.0,47.0,29.0,37.0,56.0,47,3852.0,square1,r,0.2233,0,V,2.0
V2,93.0,45.0,27.0,35.0,56.0,45,3897.0,square1,r,0.139,0,V,2.0
V2,94.0,45.0,31.0,31.0,49.0,45,3942.0,square1,r,0.1107,0,V,2.0
V2,95.0,47.0,33.0,36.0,52.0,47,3989.0,square1,r,0.1681,0,V,2.0
V2,96.0,44.0,28.0,37.0,59.0,44,4033.0,square1,r,0.1933,0,V,2.0
V2,97.0,48.0,28.0,33.0,55.0,48,4081.0,square1,r,0.0823,0,V,2.0
V2,98.0,49.0,29.0,39.0,60.0,49,4130.0,square1,r,0.0766,0,V,2.0
V2,99.0,44.0,30.0,36.0,50.0,30,4160.0,square2,j,0.722,1,V,2.0
S6,0.0,40.0,29.0,39.0,26.0,29,29.0,square2,r,1.9408,1,S,6.0
S6,1.0,34.0,40.0,31.0,25.0,31,60.0,square3,i,0.0115,2,S,6.0
S6,2.0,37.0,31.0,25.0,30.0,37,97.0,square1,f,0.0235,0,S,6.0
S6,3.0,39.0,37.0,30.0,27.0,27,124.0,square4,j,0.4964,3,S,6.0
S6,4.0,42.0,40.0,28.0,32.0,42,166.0,square1,f,0.306,0,S,6.0
S6,5.0,35.0,35.0,39.0,29.0,35,201.0,square1,f,0.0801,0,S,6.0
S6,6.0,48.0,30.0,37.0,33.0,37,238.0,square3,i,0.438,2,S,6.0
S6,7.0,47.0,34.0,31.0,29.0,47,285.0,square1,f,0.0555,0,S,6.0
S6,8.0,43.0,35.0,30.0,25.0,43,328.0,square1,f,0.108,0,S,6.0
S6,9.0,36.0,38.0,35.0,35.0,36,364.0,square1,f,0.2627,0,S,6.0
S6,10.0,38.0,35.0,31.0,21.0,38,402.0,square1,f,0.0401,0,S,6.0
S6,11.0,30.0,36.0,31.0,20.0,30,432.0,square1,f,0.2107,0,S,6.0
S6,12.0,37.0,40.0,33.0,22.0,40,472.0,square2,r,0.145,1,S,6.0
S6,13.0,32.0,41.0,35.0,29.0,41,513.0,square2,r,0.3612,1,S,6.0
S6,14.0,41.0,29.0,30.0,32.0,29,542.0,square2,r,0.2818,1,S,6.0
S6,15.0,43.0,37.0,31.0,27.0,31,573.0,square3,i,0.2783,2,S,6.0
S6,16.0,34.0,34.0,35.0,31.0,31,604.0,square4,j,0.1051,3,S,6.0
S6,17.0,47.0,40.0,29.0,28.0,40,644.0,square2,r,0.0388,1,S,6.0
S6,18.0,37.0,38.0,34.0,35.0,38,682.0,square2,r,0.3128,1,S,6.0
S6,19.0,36.0,39.0,31.0,26.0,39,721.0,square2,r,0.3729,1,S,6.0
S6,20.0,44.0,40.0,31.0,25.0,40,761.0,square2,r,0.0021,1,S,6.0
S6,21.0,39.0,41.0,35.0,24.0,41,802.0,square2,r,0.1063,1,S,6.0
S6,22.0,41.0,38.0,41.0,31.0,38,840.0,square2,r,0.1602,1,S,6.0
S6,23.0,37.0,31.0,30.0,32.0,31,871.0,square2,r,0.074,1,S,6.0
S6,24.0,48.0,34.0,34.0,21.0,34,905.0,square2,r,0.1721,1,S,6.0
S6,25.0,42.0,45.0,26.0,29.0,45,950.0,square2,r,0.1948,1,S,6.0
S6,26.0,40.0,39.0,36.0,28.0,39,989.0,square2,r,0.0604,1,S,6.0
S6,27.0,42.0,33.0,29.0,29.0,33,1022.0,square2,r,0.0094,1,S,6.0
S6,28.0,41.0,30.0,29.0,29.0,30,1052.0,square2,r,0.1601,1,S,6.0
S6,29.0,42.0,40.0,32.0,27.0,40,1092.0,square2,r,0.2055,1,S,6.0
S6,30.0,42.0,36.0,30.0,26.0,36,1128.0,square2,r,0.2566,1,S,6.0
S6,31.0,42.0,34.0,35.0,29.0,34,1162.0,square2,r,0.0447,1,S,6.0
S6,32.0,35.0,36.0,31.0,23.0,36,1198.0,square2,r,0.073,1,S,6.0
S6,33.0,35.0,31.0,35.0,30.0,35,1233.0,square1,f,0.4888,0,S,6.0
S6,34.0,40.0,38.0,31.0,27.0,31,1264.0,square3,i,0.0152,2,S,6.0
S6,35.0,42.0,37.0,34.0,34.0,34,1298.0,square4,j,0.1097,3,S,6.0
S6,36.0,37.0,46.0,31.0,34.0,46,1344.0,square2,r,0.3604,1,S,6.0
S6,37.0,38.0,40.0,30.0,26.0,40,1384.0,square2,r,0.0819,1,S,6.0
S6,38.0,36.0,34.0,31.0,33.0,34,1418.0,square2,r,0.2226,1,S,6.0
S6,39.0,44.0,37.0,33.0,31.0,37,1455.0,square2,r,0.1753,1,S,6.0
S6,40.0,40.0,38.0,31.0,25.0,38,1493.0,square2,r,0.2943,1,S,6.0
S6,41.0,49.0,35.0,35.0,28.0,35,1528.0,square2,r,0.1554,1,S,6.0
S6,42.0,44.0,40.0,32.0,28.0,40,1568.0,square2,r,0.0939,1,S,6.0
S6,43.0,43.0,36.0,33.0,26.0,36,1604.0,square2,r,0.1054,1,S,6.0
S6,44.0,38.0,33.0,34.0,26.0,33,1637.0,square2,r,0.2098,1,S,6.0
S6,45.0,32.0,35.0,30.0,28.0,35,1672.0,square2,r,0.1808,1,S,6.0
S6,46.0,38.0,36.0,34.0,30.0,36,1708.0,square2,r,0.0286,1,S,6.0
S6,47.0,44.0,35.0,32.0,31.0,35,1743.0,square2,r,0.0269,1,S,6.0
S6,48.0,40.0,40.0,31.0,33.0,40,1783.0,square2,r,0.0006,1,S,6.0
S6,49.0,41.0,29.0,29.0,29.0,29,1812.0,square2,r,0.0271,1,S,6.0
S3,0.0,38.0,48.0,42.0,57.0,57,57.0,square4,r,0.6636,3,S,3.0
S3,1.0,29.0,43.0,51.0,57.0,43,100.0,square2,f,0.1833,1,S,3.0
S3,2.0,41.0,49.0,46.0,49.0,41,141.0,square1,i,0.5152,0,S,3.0
S3,3.0,44.0,50.0,45.0,52.0,45,186.0,square3,j,0.3053,2,S,3.0
S3,4.0,37.0,51.0,45.0,58.0,58,244.0,square4,r,0.4424,3,S,3.0
S3,5.0,47.0,43.0,42.0,49.0,49,293.0,square4,r,0.0978,3,S,3.0
S3,6.0,44.0,53.0,51.0,58.0,58,351.0,square4,r,0.1393,3,S,3.0
S3,7.0,39.0,47.0,46.0,54.0,54,405.0,square4,r,0.1704,3,S,3.0
S3,8.0,43.0,53.0,41.0,52.0,52,457.0,square4,r,0.0547,3,S,3.0
S3,9.0,42.0,46.0,41.0,53.0,53,510.0,square4,r,0.0473,3,S,3.0
S3,10.0,37.0,49.0,49.0,55.0,55,565.0,square4,r,0.0021,3,S,3.0
S3,11.0,40.0,47.0,36.0,59.0,36,601.0,square3,j,0.2933,2,S,3.0
S3,12.0,46.0,51.0,39.0,56.0,56,657.0,square4,r,0.2068,3,S,3.0
S3,13.0,39.0,48.0,45.0,57.0,57,714.0,square4,r,0.109,3,S,3.0
S3,14.0,39.0,55.0,43.0,47.0,47,761.0,square4,r,0.2126,3,S,3.0
S3,15.0,46.0,46.0,47.0,52.0,46,807.0,square2,f,0.3062,1,S,3.0
S3,16.0,42.0,49.0,50.0,55.0,55,862.0,square4,r,0.2554,3,S,3.0
S3,17.0,45.0,45.0,56.0,47.0,45,907.0,square2,f,0.2394,1,S,3.0
S3,18.0,46.0,43.0,45.0,50.0,50,957.0,square4,r,0.209,3,S,3.0
S3,19.0,41.0,47.0,50.0,55.0,55,1012.0,square4,r,0.2218,3,S,3.0
S3,20.0,45.0,52.0,49.0,52.0,52,1064.0,square4,r,0.096,3,S,3.0
S3,21.0,40.0,43.0,47.0,46.0,46,1110.0,square4,r,0.0568,3,S,3.0
S3,22.0,45.0,46.0,44.0,47.0,47,1157.0,square4,r,0.1971,3,S,3.0
S3,23.0,36.0,50.0,42.0,46.0,46,1203.0,square4,r,0.0381,3,S,3.0
S3,24.0,42.0,54.0,49.0,55.0,55,1258.0,square4,r,0.1613,3,S,3.0
S3,25.0,43.0,51.0,44.0,54.0,54,1312.0,square4,r,0.2952,3,S,3.0
S3,26.0,49.0,50.0,52.0,52.0,52,1364.0,square4,r,0.3595,3,S,3.0
S3,27.0,47.0,52.0,44.0,50.0,50,1414.0,square4,r,0.1882,3,S,3.0
S3,28.0,37.0,48.0,40.0,47.0,47,1461.0,square4,r,0.1217,3,S,3.0
S3,29.0,50.0,43.0,50.0,57.0,57,1518.0,square4,r,0.0562,3,S,3.0
S3,30.0,50.0,50.0,46.0,47.0,47,1565.0,square4,r,0.2603,3,S,3.0
S3,31.0,37.0,53.0,49.0,56.0,56,1621.0,square4,r,0.0007,3,S,3.0
S3,32.0,42.0,50.0,43.0,58.0,58,1679.0,square4,r,0.1049,3,S,3.0
S3,33.0,44.0,49.0,46.0,59.0,59,1738.0,square4,r,0.0434,3,S,3.0
S3,34.0,42.0,50.0,50.0,58.0,58,1796.0,square4,r,0.2264,3,S,3.0
S3,35.0,43.0,46.0,45.0,50.0,50,1846.0,square4,r,0.0394,3,S,3.0
S3,36.0,46.0,52.0,50.0,48.0,48,1894.0,square4,r,0.0018,3,S,3.0
S3,37.0,48.0,50.0,49.0,52.0,52,1946.0,square4,r,0.0027,3,S,3.0
S3,38.0,39.0,43.0,50.0,55.0,55,2001.0,square4,r,0.1808,3,S,3.0
S3,39.0,50.0,53.0,46.0,57.0,57,2058.0,square4,r,0.0006,3,S,3.0
S3,40.0,41.0,46.0,48.0,55.0,55,2113.0,square4,r,0.0267,3,S,3.0
S3,41.0,49.0,49.0,40.0,56.0,56,2169.0,square4,r,0.9059,3,S,3.0
S3,42.0,47.0,49.0,43.0,48.0,48,2217.0,square4,r,0.6214,3,S,3.0
S3,43.0,46.0,43.0,41.0,58.0,58,2275.0,square4,r,0.1433,3,S,3.0
S3,44.0,46.0,52.0,51.0,55.0,55,2330.0,square4,r,0.1222,3,S,3.0
S3,45.0,46.0,41.0,46.0,49.0,49,2379.0,square4,r,0.1454,3,S,3.0
S3,46.0,32.0,56.0,40.0,50.0,50,2429.0,square4,r,0.3067,3,S,3.0
S3,47.0,42.0,49.0,44.0,51.0,51,2480.0,square4,r,0.6601,3,S,3.0
S3,48.0,36.0,45.0,38.0,50.0,50,2530.0,square4,r,1.4706,3,S,3.0
S3,49.0,45.0,48.0,47.0,52.0,52,2582.0,square4,r,0.3108,3,S,3.0
S1,0.0,72.0,58.0,70.0,66.0,70,70.0,square3,r,0.4359,2,S,1.0
S1,1.0,75.0,64.0,66.0,69.0,64,134.0,square2,i,0.0921,1,S,1.0
S1,2.0,75.0,62.0,62.0,79.0,75,209.0,square1,j,0.3593,0,S,1.0
S1,3.0,68.0,62.0,63.0,69.0,63,272.0,square3,r,0.0732,2,S,1.0
S1,4.0,82.0,63.0,64.0,73.0,73,345.0,square4,f,0.3276,3,S,1.0
S1,5.0,66.0,70.0,65.0,73.0,73,418.0,square4,f,0.5409,3,S,1.0
S1,6.0,73.0,65.0,62.0,65.0,65,483.0,square4,f,0.2893,3,S,1.0
S1,7.0,70.0,61.0,65.0,66.0,70,553.0,square1,j,0.2431,0,S,1.0
S1,8.0,78.0,63.0,67.0,68.0,78,631.0,square1,j,0.2716,0,S,1.0
S1,9.0,74.0,67.0,66.0,68.0,74,705.0,square1,j,0.31,0,S,1.0
S1,10.0,73.0,59.0,68.0,68.0,73,778.0,square1,j,0.4621,0,S,1.0
S1,11.0,76.0,65.0,62.0,81.0,76,854.0,square1,j,0.2729,0,S,1.0
S1,12.0,77.0,66.0,69.0,63.0,77,931.0,square1,j,0.1969,0,S,1.0
S1,13.0,75.0,63.0,68.0,73.0,75,1006.0,square1,j,0.3397,0,S,1.0
S1,14.0,67.0,60.0,67.0,69.0,67,1073.0,square1,j,0.4241,0,S,1.0
S1,15.0,70.0,63.0,69.0,73.0,70,1143.0,square1,j,0.2285,0,S,1.0
S1,16.0,69.0,61.0,69.0,69.0,69,1212.0,square1,j,0.0006,0,S,1.0
S1,17.0,73.0,68.0,67.0,73.0,73,1285.0,square1,j,0.0406,0,S,1.0
S1,18.0,70.0,58.0,73.0,66.0,58,1343.0,square2,i,0.4146,1,S,1.0
S1,19.0,75.0,58.0,62.0,68.0,75,1418.0,square1,j,0.2934,0,S,1.0
S1,20.0,76.0,58.0,72.0,67.0,76,1494.0,square1,j,0.5392,0,S,1.0
S1,21.0,69.0,66.0,66.0,67.0,69,1563.0,square1,j,0.5437,0,S,1.0
S1,22.0,70.0,68.0,65.0,65.0,70,1633.0,square1,j,0.0764,0,S,1.0
S1,23.0,71.0,60.0,64.0,64.0,71,1704.0,square1,j,0.3888,0,S,1.0
S1,24.0,70.0,72.0,62.0,67.0,70,1774.0,square1,j,0.533,0,S,1.0
S1,25.0,68.0,60.0,70.0,65.0,68,1842.0,square1,j,0.0733,0,S,1.0
S1,26.0,76.0,64.0,72.0,69.0,76,1918.0,square1,j,0.0006,0,S,1.0
S1,27.0,71.0,56.0,70.0,65.0,71,1989.0,square1,j,0.6138,0,S,1.0
S1,28.0,67.0,67.0,71.0,76.0,67,2056.0,square1,j,0.1231,0,S,1.0
S1,29.0,78.0,64.0,64.0,74.0,78,2134.0,square1,j,0.3602,0,S,1.0
S1,30.0,74.0,63.0,65.0,71.0,74,2208.0,square1,j,1.146,0,S,1.0
S1,31.0,78.0,58.0,69.0,69.0,78,2286.0,square1,j,0.6396,0,S,1.0
S1,32.0,71.0,67.0,68.0,60.0,71,2357.0,square1,j,0.1599,0,S,1.0
S1,33.0,68.0,63.0,65.0,73.0,68,2425.0,square1,j,0.107,0,S,1.0
S1,34.0,71.0,62.0,74.0,73.0,71,2496.0,square1,j,0.226,0,S,1.0
S1,35.0,75.0,59.0,67.0,77.0,75,2571.0,square1,j,0.564,0,S,1.0
S1,36.0,77.0,60.0,66.0,67.0,77,2648.0,square1,j,0.7927,0,S,1.0
S1,37.0,69.0,60.0,69.0,75.0,69,2717.0,square1,j,0.0258,0,S,1.0
S1,38.0,77.0,64.0,62.0,70.0,77,2794.0,square1,j,0.1382,0,S,1.0
S1,39.0,72.0,66.0,69.0,65.0,72,2866.0,square1,j,0.111,0,S,1.0
S1,40.0,69.0,63.0,66.0,69.0,69,2935.0,square1,j,0.1283,0,S,1.0
S1,41.0,72.0,62.0,70.0,70.0,72,3007.0,square1,j,0.1626,0,S,1.0
S1,42.0,78.0,60.0,63.0,62.0,78,3085.0,square1,j,0.1397,0,S,1.0
S1,43.0,71.0,62.0,67.0,73.0,71,3156.0,square1,j,0.2601,0,S,1.0
S1,44.0,75.0,63.0,69.0,73.0,75,3231.0,square1,j,0.1901,0,S,1.0
S1,45.0,66.0,60.0,68.0,73.0,66,3297.0,square1,j,0.1098,0,S,1.0
S1,46.0,74.0,67.0,69.0,71.0,74,3371.0,square1,j,0.2603,0,S,1.0
S1,47.0,71.0,66.0,68.0,70.0,71,3442.0,square1,j,0.1422,0,S,1.0
S1,48.0,72.0,75.0,71.0,77.0,72,3514.0,square1,j,0.1902,0,S,1.0
S1,49.0,65.0,57.0,66.0,75.0,65,3579.0,square1,j,0.0448,0,S,1.0
S4,0.0,18.0,16.0,34.0,20.0,16,16.0,square2,r,1.3048,1,S,4.0
S4,1.0,33.0,26.0,26.0,23.0,33,49.0,square1,i,0.2397,0,S,4.0
S4,2.0,35.0,15.0,33.0,22.0,22,71.0,square4,j,0.0382,3,S,4.0
S4,3.0,28.0,19.0,27.0,27.0,27,98.0,square3,f,0.1595,2,S,4.0
S4,4.0,27.0,16.0,25.0,28.0,25,123.0,square3,f,0.125,2,S,4.0
S4,5.0,23.0,22.0,31.0,24.0,23,146.0,square1,i,0.0555,0,S,4.0
S4,6.0,25.0,20.0,34.0,23.0,25,171.0,square1,i,0.6965,0,S,4.0
S4,7.0,21.0,22.0,30.0,21.0,30,201.0,square3,f,0.4385,2,S,4.0
S4,8.0,33.0,24.0,33.0,17.0,33,234.0,square3,f,0.1383,2,S,4.0
S4,9.0,24.0,18.0,31.0,28.0,31,265.0,square3,f,0.1394,2,S,4.0
S4,10.0,31.0,26.0,35.0,20.0,35,300.0,square3,f,0.0803,2,S,4.0
S4,11.0,25.0,15.0,31.0,25.0,31,331.0,square3,f,0.206,2,S,4.0
S4,12.0,24.0,16.0,29.0,22.0,29,360.0,square3,f,0.1812,2,S,4.0
S4,13.0,28.0,23.0,25.0,17.0,25,385.0,square3,f,0.0389,2,S,4.0
S4,14.0,22.0,23.0,21.0,23.0,21,406.0,square3,f,0.0005,2,S,4.0
S4,15.0,25.0,19.0,28.0,25.0,28,434.0,square3,f,0.2061,2,S,4.0
S4,16.0,26.0,17.0,30.0,21.0,30,464.0,square3,f,0.1558,2,S,4.0
S4,17.0,22.0,21.0,29.0,22.0,29,493.0,square3,f,0.1784,2,S,4.0
S4,18.0,28.0,22.0,32.0,22.0,32,525.0,square3,f,0.041,2,S,4.0
S4,19.0,26.0,19.0,31.0,26.0,31,556.0,square3,f,0.0715,2,S,4.0
S4,20.0,28.0,18.0,28.0,25.0,28,584.0,square3,f,0.0552,2,S,4.0
S4,21.0,33.0,26.0,21.0,29.0,21,605.0,square3,f,0.1389,2,S,4.0
S4,22.0,31.0,19.0,29.0,20.0,29,634.0,square3,f,0.0886,2,S,4.0
S4,23.0,27.0,21.0,36.0,26.0,36,670.0,square3,f,0.642,2,S,4.0
S4,24.0,28.0,15.0,32.0,21.0,32,702.0,square3,f,0.2227,2,S,4.0
S4,25.0,27.0,18.0,28.0,25.0,28,730.0,square3,f,0.0379,2,S,4.0
S4,26.0,26.0,20.0,27.0,14.0,27,757.0,square3,f,0.1874,2,S,4.0
S4,27.0,28.0,19.0,36.0,18.0,36,793.0,square3,f,0.1386,2,S,4.0
S4,28.0,28.0,19.0,28.0,23.0,28,821.0,square3,f,0.0094,2,S,4.0
S4,29.0,25.0,22.0,29.0,23.0,29,850.0,square3,f,0.0399,2,S,4.0
S4,30.0,26.0,16.0,30.0,20.0,30,880.0,square3,f,0.4792,2,S,4.0
S4,31.0,23.0,25.0,26.0,30.0,26,906.0,square3,f,0.3767,2,S,4.0
S4,32.0,21.0,26.0,22.0,23.0,22,928.0,square3,f,0.3225,2,S,4.0
S4,33.0,25.0,22.0,24.0,17.0,24,952.0,square3,f,0.1053,2,S,4.0
S4,34.0,30.0,22.0,33.0,24.0,33,985.0,square3,f,0.0381,2,S,4.0
S4,35.0,23.0,21.0,35.0,26.0,35,1020.0,square3,f,0.2733,2,S,4.0
S4,36.0,19.0,21.0,33.0,24.0,33,1053.0,square3,f,0.2229,2,S,4.0
S4,37.0,20.0,17.0,26.0,26.0,26,1079.0,square3,f,0.1053,2,S,4.0
S4,38.0,28.0,20.0,28.0,26.0,28,1107.0,square3,f,0.0392,2,S,4.0
S4,39.0,28.0,23.0,40.0,27.0,40,1147.0,square3,f,0.0732,2,S,4.0
S4,40.0,25.0,24.0,32.0,22.0,32,1179.0,square3,f,0.0111,2,S,4.0
S4,41.0,23.0,23.0,26.0,17.0,26,1205.0,square3,f,0.1717,2,S,4.0
S4,42.0,26.0,18.0,33.0,22.0,33,1238.0,square3,f,0.105,2,S,4.0
S4,43.0,22.0,21.0,36.0,25.0,36,1274.0,square3,f,0.1568,2,S,4.0
S4,44.0,21.0,18.0,33.0,14.0,33,1307.0,square3,f,0.2079,2,S,4.0
S4,45.0,29.0,19.0,30.0,29.0,30,1337.0,square3,f,0.2101,2,S,4.0
S4,46.0,21.0,16.0,22.0,23.0,22,1359.0,square3,f,0.0038,2,S,4.0
S4,47.0,22.0,18.0,28.0,22.0,28,1387.0,square3,f,0.6397,2,S,4.0
S4,48.0,33.0,21.0,32.0,26.0,32,1419.0,square3,f,0.0627,2,S,4.0
S4,49.0,23.0,17.0,20.0,21.0,20,1439.0,square3,f,0.1143,2,S,4.0
S12,0.0,38.0,42.0,30.0,42.0,42,42.0,square4,i,0.9486,3,S,12.0
S12,1.0,30.0,42.0,28.0,37.0,28,70.0,square3,j,0.2234,2,S,12.0
S12,2.0,34.0,41.0,38.0,43.0,41,111.0,square2,f,0.2723,1,S,12.0
S12,3.0,38.0,51.0,38.0,38.0,38,149.0,square1,r,0.0901,0,S,12.0
S12,4.0,32.0,37.0,33.0,45.0,37,186.0,square2,f,0.0941,1,S,12.0
S12,5.0,38.0,52.0,36.0,35.0,35,221.0,square4,i,0.1059,3,S,12.0
S12,6.0,30.0,43.0,30.0,38.0,30,251.0,square3,j,0.2092,2,S,12.0
S12,7.0,38.0,39.0,30.0,39.0,38,289.0,square1,r,0.1548,0,S,12.0
S12,8.0,37.0,49.0,35.0,38.0,37,326.0,square1,r,0.1072,0,S,12.0
S12,9.0,37.0,44.0,29.0,38.0,29,355.0,square3,j,0.1287,2,S,12.0
S12,10.0,35.0,42.0,30.0,45.0,30,385.0,square3,j,0.0004,2,S,12.0
S12,11.0,34.0,45.0,36.0,32.0,45,430.0,square2,f,0.0064,1,S,12.0
S12,12.0,33.0,45.0,35.0,42.0,45,475.0,square2,f,0.1611,1,S,12.0
S12,13.0,36.0,36.0,29.0,40.0,36,511.0,square2,f,0.1319,1,S,12.0
S12,14.0,36.0,49.0,32.0,42.0,49,560.0,square2,f,0.1609,1,S,12.0
S12,15.0,35.0,43.0,35.0,46.0,43,603.0,square2,f,0.0584,1,S,12.0
S12,16.0,39.0,48.0,41.0,43.0,48,651.0,square2,f,0.0793,1,S,12.0
S12,17.0,35.0,47.0,27.0,38.0,47,698.0,square2,f,0.0922,1,S,12.0
S12,18.0,37.0,51.0,33.0,33.0,51,749.0,square2,f,0.1629,1,S,12.0
S12,19.0,41.0,42.0,33.0,36.0,42,791.0,square2,f,0.2089,1,S,12.0
S12,20.0,34.0,44.0,26.0,41.0,44,835.0,square2,f,0.1041,1,S,12.0
S12,21.0,35.0,37.0,29.0,35.0,37,872.0,square2,f,0.0386,1,S,12.0
S12,22.0,37.0,48.0,31.0,41.0,48,920.0,square2,f,0.906,1,S,12.0
S12,23.0,36.0,43.0,27.0,45.0,43,963.0,square2,f,0.0005,1,S,12.0
S12,24.0,39.0,48.0,38.0,38.0,48,1011.0,square2,f,0.1003,1,S,12.0
S12,25.0,31.0,43.0,30.0,40.0,43,1054.0,square2,f,0.012,1,S,12.0
S12,26.0,35.0,48.0,34.0,33.0,48,1102.0,square2,f,0.0005,1,S,12.0
S12,27.0,46.0,46.0,28.0,38.0,46,1148.0,square2,f,0.0289,1,S,12.0
S12,28.0,32.0,37.0,32.0,40.0,37,1185.0,square2,f,0.0977,1,S,12.0
S12,29.0,38.0,41.0,32.0,44.0,41,1226.0,square2,f,0.2777,1,S,12.0
S12,30.0,32.0,48.0,29.0,42.0,48,1274.0,square2,f,0.0814,1,S,12.0
S12,31.0,34.0,46.0,30.0,42.0,46,1320.0,square2,f,0.0263,1,S,12.0
S12,32.0,39.0,43.0,41.0,40.0,43,1363.0,square2,f,0.1558,1,S,12.0
S12,33.0,36.0,47.0,33.0,46.0,47,1410.0,square2,f,0.0466,1,S,12.0
S12,34.0,36.0,41.0,34.0,41.0,41,1451.0,square2,f,0.1946,1,S,12.0
S12,35.0,34.0,42.0,31.0,43.0,42,1493.0,square2,f,0.9391,1,S,12.0
S12,36.0,39.0,43.0,26.0,33.0,43,1536.0,square2,f,0.3404,1,S,12.0
S12,37.0,39.0,49.0,30.0,42.0,49,1585.0,square2,f,0.161,1,S,12.0
S12,38.0,33.0,47.0,36.0,41.0,99999,1585.0,invalid,,,-1,S,12.0
S12,39.0,29.0,46.0,35.0,36.0,46,1631.0,square2,f,0.1007,1,S,12.0
S12,40.0,39.0,39.0,29.0,36.0,39,1670.0,square2,f,0.082,1,S,12.0
S12,41.0,33.0,44.0,31.0,40.0,44,1714.0,square2,f,0.0263,1,S,12.0
S12,42.0,34.0,46.0,25.0,37.0,46,1760.0,square2,f,0.2224,1,S,12.0
S12,43.0,37.0,42.0,30.0,42.0,42,1802.0,square2,f,0.039,1,S,12.0
S12,44.0,33.0,49.0,36.0,39.0,49,1851.0,square2,f,0.0401,1,S,12.0
S12,45.0,35.0,40.0,30.0,47.0,40,1891.0,square2,f,0.0096,1,S,12.0
S12,46.0,40.0,41.0,29.0,35.0,41,1932.0,square2,f,0.1608,1,S,12.0
S12,47.0,32.0,42.0,28.0,43.0,42,1974.0,square2,f,0.1923,1,S,12.0
S12,48.0,43.0,47.0,31.0,38.0,47,2021.0,square2,f,0.1794,1,S,12.0
S12,49.0,37.0,41.0,35.0,40.0,41,2062.0,square2,f,0.1315,1,S,12.0
S10,0.0,72.0,76.0,80.0,64.0,64,64.0,square4,r,1.0103,3,S,10.0
S10,1.0,76.0,75.0,74.0,65.0,76,140.0,square1,f,0.1894,0,S,10.0
S10,2.0,70.0,72.0,79.0,74.0,74,214.0,square4,r,0.0031,3,S,10.0
S10,3.0,69.0,77.0,76.0,68.0,69,283.0,square1,f,0.0234,0,S,10.0
S10,4.0,72.0,79.0,77.0,70.0,72,355.0,square1,f,0.1719,0,S,10.0
S10,5.0,68.0,74.0,72.0,64.0,64,419.0,square4,r,0.0722,3,S,10.0
S10,6.0,70.0,77.0,72.0,62.0,70,489.0,square1,f,0.1752,0,S,10.0
S10,7.0,78.0,81.0,80.0,74.0,80,569.0,square3,i,0.2239,2,S,10.0
S10,8.0,78.0,78.0,82.0,66.0,82,651.0,square3,i,0.2759,2,S,10.0
S10,9.0,69.0,76.0,77.0,65.0,76,727.0,square2,j,0.5985,1,S,10.0
S10,10.0,72.0,78.0,72.0,75.0,72,799.0,square3,i,0.1561,2,S,10.0
S10,11.0,71.0,76.0,78.0,66.0,78,877.0,square3,i,0.3297,2,S,10.0
S10,12.0,73.0,83.0,79.0,69.0,83,960.0,square2,j,0.0113,1,S,10.0
S10,13.0,68.0,77.0,65.0,65.0,77,1037.0,square2,j,0.1656,1,S,10.0
S10,14.0,69.0,84.0,79.0,65.0,84,1121.0,square2,j,0.4915,1,S,10.0
S10,15.0,72.0,84.0,70.0,71.0,84,1205.0,square2,j,0.2556,1,S,10.0
S10,16.0,79.0,80.0,82.0,67.0,80,1285.0,square2,j,0.0678,1,S,10.0
S10,17.0,69.0,83.0,75.0,70.0,83,1368.0,square2,j,0.0413,1,S,10.0
S10,18.0,69.0,75.0,69.0,68.0,69,1437.0,square3,i,0.039,2,S,10.0
S10,19.0,70.0,83.0,73.0,66.0,73,1510.0,square3,i,0.0628,2,S,10.0
S10,20.0,69.0,83.0,75.0,66.0,75,1585.0,square3,i,0.1729,2,S,10.0
S10,21.0,77.0,70.0,75.0,70.0,70,1655.0,square2,j,0.0139,1,S,10.0
S10,22.0,73.0,77.0,81.0,69.0,81,1736.0,square3,i,0.0723,2,S,10.0
S10,23.0,73.0,78.0,70.0,65.0,70,1806.0,square3,i,0.0587,2,S,10.0
S10,24.0,70.0,80.0,75.0,66.0,80,1886.0,square2,j,0.0656,1,S,10.0
S10,25.0,70.0,80.0,73.0,72.0,80,1966.0,square2,j,0.1634,1,S,10.0
S10,26.0,73.0,75.0,73.0,75.0,75,2041.0,square2,j,0.1549,1,S,10.0
S10,27.0,77.0,81.0,83.0,66.0,81,2122.0,square2,j,0.0949,1,S,10.0
S10,28.0,73.0,79.0,79.0,73.0,79,2201.0,square2,j,0.0297,1,S,10.0
S10,29.0,73.0,79.0,72.0,69.0,79,2280.0,square2,j,0.0886,1,S,10.0
S10,30.0,71.0,85.0,79.0,69.0,85,2365.0,square2,j,0.0565,1,S,10.0
S10,31.0,71.0,85.0,83.0,66.0,85,2450.0,square2,j,0.1303,1,S,10.0
S10,32.0,78.0,79.0,77.0,65.0,79,2529.0,square2,j,0.0029,1,S,10.0
S10,33.0,83.0,79.0,72.0,68.0,72,2601.0,square3,i,0.2886,2,S,10.0
S10,34.0,68.0,74.0,79.0,72.0,79,2680.0,square3,i,0.0398,2,S,10.0
S10,35.0,70.0,83.0,79.0,67.0,83,2763.0,square2,j,0.1739,1,S,10.0
S10,36.0,67.0,76.0,75.0,72.0,76,2839.0,square2,j,0.1142,1,S,10.0
S10,37.0,76.0,82.0,79.0,60.0,82,2921.0,square2,j,0.0944,1,S,10.0
S10,38.0,72.0,75.0,69.0,68.0,75,2996.0,square2,j,0.1549,1,S,10.0
S10,39.0,73.0,78.0,76.0,70.0,78,3074.0,square2,j,0.1788,1,S,10.0
S10,40.0,76.0,77.0,66.0,60.0,77,3151.0,square2,j,0.1541,1,S,10.0
S10,41.0,74.0,83.0,73.0,67.0,83,3234.0,square2,j,0.0992,1,S,10.0
S10,42.0,72.0,69.0,80.0,63.0,69,3303.0,square2,j,0.24,1,S,10.0
S10,43.0,69.0,74.0,72.0,68.0,74,3377.0,square2,j,0.1899,1,S,10.0
S10,44.0,67.0,76.0,70.0,65.0,76,3453.0,square2,j,0.0758,1,S,10.0
S10,45.0,76.0,81.0,74.0,72.0,74,3527.0,square3,i,0.3226,2,S,10.0
S10,46.0,76.0,79.0,76.0,66.0,76,3603.0,square3,i,0.0005,2,S,10.0
S10,47.0,67.0,81.0,84.0,60.0,81,3684.0,square2,j,0.2557,1,S,10.0
S10,48.0,73.0,83.0,75.0,66.0,75,3759.0,square3,i,0.1819,2,S,10.0
S10,49.0,66.0,77.0,74.0,71.0,74,3833.0,square3,i,0.0004,2,S,10.0
