block,Trial,square1,square2,square3,square4,currPoints,totalPoints,square,choiceKey.keys,choiceKey.rt,armNum,blockType,blockNum
prac,0.0,100.0,0.0,0.0,0.0,99999,0.0,invalid,,,-1,p,0.0
prac,1.0,100.0,0.0,0.0,0.0,100,100.0,square1,,,0,p,0.0
prac,2.0,100.0,0.0,0.0,0.0,0,100.0,square2,,,1,p,0.0
prac,3.0,100.0,0.0,0.0,0.0,0,100.0,square3,,,2,p,0.0
prac,4.0,100.0,0.0,0.0,0.0,0,100.0,square4,,,3,p,0.0
prac,5.0,100.0,0.0,0.0,0.0,100,200.0,square1,,,0,p,0.0
prac,6.0,100.0,0.0,0.0,0.0,100,300.0,square1,,,0,p,0.0
prac,7.0,100.0,0.0,0.0,0.0,100,400.0,square1,,,0,p,0.0
prac,8.0,100.0,0.0,0.0,0.0,100,500.0,square1,,,0,p,0.0
prac,9.0,100.0,0.0,0.0,0.0,100,600.0,square1,,,0,p,0.0
NS8,0.0,61.0,62.0,34.0,32.0,32,32.0,square4,r,0.5827,3,N,8.0
NS8,1.0,57.0,56.0,38.0,27.0,38,70.0,square3,f,0.3261,2,N,8.0
NS8,2.0,66.0,55.0,42.0,28.0,55,125.0,square2,j,0.0155,1,N,8.0
NS8,3.0,67.0,51.0,37.0,28.0,67,192.0,square1,i,0.4301,0,N,8.0
NS8,4.0,65.0,53.0,38.0,32.0,65,257.0,square1,i,0.2155,0,N,8.0
NS8,5.0,67.0,52.0,43.0,33.0,52,309.0,square2,j,0.2229,1,N,8.0
NS8,6.0,56.0,47.0,41.0,36.0,56,365.0,square1,i,0.2213,0,N,8.0
NS8,7.0,58.0,46.0,37.0,31.0,37,402.0,square3,f,0.2336,2,N,8.0
NS8,8.0,60.0,58.0,36.0,35.0,35,437.0,square4,r,0.126,3,N,8.0
NS8,9.0,60.0,66.0,41.0,39.0,66,503.0,square2,j,0.356,1,N,8.0
NS8,10.0,60.0,60.0,36.0,33.0,60,563.0,square2,j,0.2082,1,N,8.0
NS8,11.0,53.0,63.0,32.0,35.0,63,626.0,square2,j,0.1534,1,N,8.0
NS8,12.0,51.0,60.0,32.0,29.0,51,677.0,square1,i,0.227,0,N,8.0
NS8,13.0,53.0,65.0,30.0,32.0,65,742.0,square2,j,0.0059,1,N,8.0
NS8,14.0,56.0,69.0,25.0,33.0,69,811.0,square2,j,0.144,1,N,8.0
NS8,15.0,57.0,71.0,29.0,35.0,71,882.0,square2,j,0.1711,1,N,8.0
NS8,16.0,55.0,64.0,31.0,33.0,64,946.0,square2,j,0.1742,1,N,8.0
NS8,17.0,48.0,65.0,29.0,32.0,29,975.0,square3,f,0.1531,2,N,8.0
NS8,18.0,44.0,64.0,28.0,34.0,44,1019.0,square1,i,0.0315,0,N,8.0
NS8,19.0,46.0,60.0,26.0,33.0,46,1065.0,square1,i,0.0919,0,N,8.0
NS8,20.0,41.0,58.0,29.0,35.0,41,1106.0,square1,i,0.0347,0,N,8.0
NS8,21.0,45.0,57.0,29.0,35.0,45,1151.0,square1,i,0.1014,0,N,8.0
NS8,22.0,47.0,53.0,32.0,32.0,32,1183.0,square4,r,0.0256,3,N,8.0
NS8,23.0,49.0,52.0,33.0,35.0,52,1235.0,square2,j,0.3127,1,N,8.0
NS8,24.0,56.0,53.0,30.0,37.0,53,1288.0,square2,j,0.0914,1,N,8.0
NS8,25.0,57.0,48.0,28.0,42.0,48,1336.0,square2,j,0.0474,1,N,8.0
NS8,26.0,52.0,48.0,33.0,43.0,48,1384.0,square2,j,0.0676,1,N,8.0
NS8,27.0,53.0,45.0,28.0,47.0,53,1437.0,square1,i,0.16,0,N,8.0
NS8,28.0,50.0,43.0,27.0,41.0,50,1487.0,square1,i,0.1048,0,N,8.0
NS8,29.0,53.0,52.0,29.0,43.0,52,1539.0,square2,j,0.2732,1,N,8.0
NS8,30.0,54.0,51.0,30.0,41.0,51,1590.0,square2,j,0.2225,1,N,8.0
NS8,31.0,50.0,50.0,31.0,42.0,31,1621.0,square3,f,0.1487,2,N,8.0
NS8,32.0,50.0,50.0,35.0,43.0,50,1671.0,square2,j,0.0919,1,N,8.0
NS8,33.0,46.0,48.0,39.0,41.0,48,1719.0,square2,j,0.0013,1,N,8.0
NS8,34.0,47.0,46.0,41.0,40.0,46,1765.0,square2,j,0.0855,1,N,8.0
NS8,35.0,57.0,45.0,36.0,37.0,45,1810.0,square2,j,0.0769,1,N,8.0
NS8,36.0,53.0,49.0,41.0,38.0,49,1859.0,square2,j,0.0951,1,N,8.0
NS8,37.0,57.0,50.0,41.0,39.0,57,1916.0,square1,i,0.097,0,N,8.0
NS8,38.0,61.0,51.0,39.0,43.0,61,1977.0,square1,i,0.1683,0,N,8.0
NS8,39.0,59.0,54.0,41.0,36.0,59,2036.0,square1,i,0.1231,0,N,8.0
NS8,40.0,53.0,55.0,47.0,40.0,53,2089.0,square1,i,0.0267,0,N,8.0
NS8,41.0,53.0,55.0,43.0,39.0,53,2142.0,square1,i,0.0984,0,N,8.0
NS8,42.0,59.0,55.0,45.0,40.0,59,2201.0,square1,i,0.5603,0,N,8.0
NS8,43.0,54.0,46.0,51.0,37.0,54,2255.0,square1,i,0.2754,0,N,8.0
NS8,44.0,56.0,44.0,50.0,35.0,56,2311.0,square1,i,0.1879,0,N,8.0
NS8,45.0,51.0,46.0,41.0,37.0,51,2362.0,square1,i,0.1297,0,N,8.0
NS8,46.0,52.0,43.0,44.0,34.0,52,2414.0,square1,i,0.0852,0,N,8.0
NS8,47.0,46.0,41.0,36.0,37.0,37,2451.0,square4,r,0.6678,3,N,8.0
NS8,48.0,47.0,46.0,39.0,37.0,47,2498.0,square1,i,0.1269,0,N,8.0
NS8,49.0,48.0,36.0,38.0,40.0,48,2546.0,square1,i,0.2046,0,N,8.0
NS8,50.0,51.0,37.0,36.0,46.0,37,2583.0,square2,j,0.0237,1,N,8.0
NS8,51.0,53.0,38.0,40.0,43.0,40,2623.0,square3,f,0.1878,2,N,8.0
NS8,52.0,47.0,32.0,37.0,44.0,47,2670.0,square1,i,0.0227,0,N,8.0
NS8,53.0,52.0,31.0,38.0,46.0,52,2722.0,square1,i,0.0815,0,N,8.0
NS8,54.0,44.0,34.0,40.0,45.0,44,2766.0,square1,i,0.201,0,N,8.0
NS8,55.0,46.0,26.0,37.0,41.0,46,2812.0,square1,i,0.0002,0,N,8.0
NS8,56.0,42.0,29.0,36.0,40.0,42,2854.0,square1,i,0.1843,0,N,8.0
NS8,57.0,39.0,21.0,39.0,40.0,21,2875.0,square2,j,0.0465,1,N,8.0
NS8,58.0,42.0,18.0,39.0,40.0,40,2915.0,square4,r,0.1712,3,N,8.0
NS8,59.0,46.0,16.0,41.0,39.0,41,2956.0,square3,f,0.1836,2,N,8.0
NS8,60.0,45.0,20.0,40.0,39.0,45,3001.0,square1,i,0.2385,0,N,8.0
NS8,61.0,45.0,26.0,42.0,39.0,45,3046.0,square1,i,0.2398,0,N,8.0
NS8,62.0,46.0,21.0,45.0,37.0,46,3092.0,square1,i,0.0713,0,N,8.0
NS8,63.0,50.0,23.0,40.0,38.0,50,3142.0,square1,i,0.0099,0,N,8.0
NS8,64.0,46.0,24.0,41.0,33.0,46,3188.0,square1,i,0.4034,0,N,8.0
NS8,65.0,48.0,28.0,42.0,32.0,48,3236.0,square1,i,0.2807,0,N,8.0
NS8,66.0,47.0,20.0,40.0,35.0,47,3283.0,square1,i,0.3599,0,N,8.0
NS8,67.0,49.0,25.0,46.0,34.0,49,3332.0,square1,i,0.2613,0,N,8.0
NS8,68.0,47.0,24.0,45.0,33.0,47,3379.0,square1,i,0.2185,0,N,8.0
NS8,69.0,45.0,21.0,47.0,35.0,45,3424.0,square1,i,0.2385,0,N,8.0
NS8,70.0,44.0,21.0,47.0,37.0,21,3445.0,square2,j,0.2156,1,N,8.0
NS8,71.0,44.0,15.0,41.0,38.0,44,3489.0,square1,i,0.1335,0,N,8.0
NS8,72.0,47.0,19.0,49.0,40.0,47,3536.0,square1,i,0.1647,0,N,8.0
NS8,73.0,39.0,21.0,53.0,38.0,39,3575.0,square1,i,0.0818,0,N,8.0
NS8,74.0,42.0,19.0,53.0,35.0,35,3610.0,square4,r,0.1002,3,N,8.0
NS8,75.0,37.0,18.0,43.0,35.0,43,3653.0,square3,f,0.0484,2,N,8.0
NS8,76.0,35.0,14.0,42.0,38.0,42,3695.0,square3,f,0.2619,2,N,8.0
NS8,77.0,38.0,19.0,47.0,44.0,47,3742.0,square3,f,0.164,2,N,8.0
NS8,78.0,38.0,18.0,50.0,46.0,50,3792.0,square3,f,0.1251,2,N,8.0
NS8,79.0,33.0,22.0,54.0,44.0,54,3846.0,square3,f,0.4924,2,N,8.0
NS8,80.0,38.0,21.0,56.0,52.0,56,3902.0,square3,f,0.2059,2,N,8.0
NS8,81.0,37.0,22.0,56.0,43.0,56,3958.0,square3,f,0.0105,2,N,8.0
NS8,82.0,30.0,26.0,60.0,42.0,60,4018.0,square3,f,0.2419,2,N,8.0
NS8,83.0,38.0,22.0,54.0,46.0,54,4072.0,square3,f,0.1898,2,N,8.0
NS8,84.0,33.0,18.0,52.0,46.0,52,4124.0,square3,f,0.1394,2,N,8.0
NS8,85.0,42.0,12.0,57.0,48.0,57,4181.0,square3,f,0.1726,2,N,8.0
NS8,86.0,45.0,19.0,58.0,42.0,58,4239.0,square3,f,0.1592,2,N,8.0
NS8,87.0,46.0,10.0,65.0,44.0,65,4304.0,square3,f,0.2899,2,N,8.0
NS8,88.0,45.0,11.0,59.0,45.0,59,4363.0,square3,f,0.267,2,N,8.0
NS8,89.0,42.0,11.0,60.0,47.0,60,4423.0,square3,f,0.1231,2,N,8.0
NS8,90.0,40.0,7.0,64.0,49.0,64,4487.0,square3,f,0.2476,2,N,8.0
NS8,91.0,42.0,11.0,64.0,48.0,64,4551.0,square3,f,0.2061,2,N,8.0
NS8,92.0,43.0,13.0,60.0,43.0,60,4611.0,square3,f,0.1209,2,N,8.0
NS8,93.0,44.0,12.0,64.0,45.0,64,4675.0,square3,f,0.0411,2,N,8.0
NS8,94.0,45.0,16.0,65.0,49.0,65,4740.0,square3,f,0.1597,2,N,8.0
NS8,95.0,45.0,24.0,66.0,42.0,66,4806.0,square3,f,0.0911,2,N,8.0
NS8,96.0,53.0,27.0,67.0,44.0,67,4873.0,square3,f,0.1938,2,N,8.0
NS8,97.0,50.0,29.0,68.0,43.0,68,4941.0,square3,f,0.2361,2,N,8.0
NS8,98.0,52.0,29.0,66.0,37.0,66,5007.0,square3,f,0.1221,2,N,8.0
NS8,99.0,53.0,32.0,65.0,37.0,65,5072.0,square3,f,0.1448,2,N,8.0
NS4,0.0,55.0,53.0,59.0,44.0,53,53.0,square2,i,0.7819,1,N,4.0
NS4,1.0,49.0,56.0,64.0,41.0,56,109.0,square2,i,0.217,1,N,4.0
NS4,2.0,50.0,54.0,71.0,48.0,54,163.0,square2,i,0.1921,1,N,4.0
NS4,3.0,53.0,58.0,67.0,50.0,53,216.0,square1,f,0.1855,0,N,4.0
NS4,4.0,49.0,51.0,70.0,55.0,55,271.0,square4,j,0.0057,3,N,4.0
NS4,5.0,55.0,59.0,73.0,58.0,73,344.0,square3,r,0.032,2,N,4.0
NS4,6.0,56.0,54.0,71.0,57.0,71,415.0,square3,r,0.2002,2,N,4.0
NS4,7.0,60.0,54.0,75.0,52.0,75,490.0,square3,r,0.0708,2,N,4.0
NS4,8.0,58.0,53.0,74.0,52.0,74,564.0,square3,r,0.3839,2,N,4.0
NS4,9.0,46.0,48.0,78.0,51.0,78,642.0,square3,r,0.3116,2,N,4.0
NS4,10.0,55.0,48.0,78.0,51.0,78,720.0,square3,r,0.1631,2,N,4.0
NS4,11.0,55.0,44.0,79.0,49.0,79,799.0,square3,r,0.1316,2,N,4.0
NS4,12.0,50.0,40.0,79.0,50.0,79,878.0,square3,r,0.1216,2,N,4.0
NS4,13.0,45.0,39.0,79.0,53.0,39,917.0,square2,i,0.1532,1,N,4.0
NS4,14.0,44.0,38.0,77.0,56.0,56,973.0,square4,j,0.3045,3,N,4.0
NS4,15.0,45.0,32.0,68.0,52.0,45,1018.0,square1,f,0.1445,0,N,4.0
NS4,16.0,49.0,32.0,74.0,53.0,74,1092.0,square3,r,0.1964,2,N,4.0
NS4,17.0,45.0,32.0,69.0,51.0,69,1161.0,square3,r,0.0724,2,N,4.0
NS4,18.0,50.0,34.0,69.0,47.0,69,1230.0,square3,r,0.0004,2,N,4.0
NS4,19.0,50.0,36.0,65.0,53.0,65,1295.0,square3,r,0.2377,2,N,4.0
NS4,20.0,45.0,36.0,62.0,53.0,62,1357.0,square3,r,0.1336,2,N,4.0
NS4,21.0,49.0,35.0,62.0,55.0,62,1419.0,square3,r,0.0817,2,N,4.0
NS4,22.0,53.0,32.0,61.0,60.0,32,1451.0,square2,i,0.2071,1,N,4.0
NS4,23.0,52.0,33.0,58.0,54.0,58,1509.0,square3,r,0.2266,2,N,4.0
NS4,24.0,48.0,32.0,52.0,60.0,52,1561.0,square3,r,0.0141,2,N,4.0
NS4,25.0,47.0,30.0,53.0,57.0,57,1618.0,square4,j,0.1972,3,N,4.0
NS4,26.0,50.0,30.0,60.0,55.0,55,1673.0,square4,j,0.1681,3,N,4.0
NS4,27.0,50.0,28.0,62.0,47.0,47,1720.0,square4,j,0.1207,3,N,4.0
NS4,28.0,54.0,28.0,58.0,49.0,54,1774.0,square1,f,0.0925,0,N,4.0
NS4,29.0,44.0,29.0,50.0,49.0,44,1818.0,square1,f,0.1182,0,N,4.0
NS4,30.0,43.0,26.0,55.0,57.0,55,1873.0,square3,r,0.2141,2,N,4.0
NS4,31.0,43.0,25.0,60.0,54.0,25,1898.0,square2,i,0.0684,1,N,4.0
NS4,32.0,34.0,27.0,58.0,56.0,56,1954.0,square4,j,0.0652,3,N,4.0
NS4,33.0,34.0,20.0,60.0,62.0,60,2014.0,square3,r,0.3088,2,N,4.0
NS4,34.0,38.0,28.0,58.0,57.0,58,2072.0,square3,r,0.0997,2,N,4.0
NS4,35.0,40.0,24.0,63.0,59.0,59,2131.0,square4,j,0.0548,3,N,4.0
NS4,36.0,36.0,30.0,56.0,63.0,63,2194.0,square4,j,0.1054,3,N,4.0
NS4,37.0,40.0,29.0,54.0,63.0,54,2248.0,square3,r,0.0592,2,N,4.0
NS4,38.0,40.0,33.0,53.0,69.0,69,2317.0,square4,j,0.1045,3,N,4.0
NS4,39.0,36.0,30.0,57.0,67.0,67,2384.0,square4,j,0.1531,3,N,4.0
NS4,40.0,33.0,33.0,58.0,68.0,68,2452.0,square4,j,0.0476,3,N,4.0
NS4,41.0,34.0,28.0,58.0,72.0,72,2524.0,square4,j,0.0062,3,N,4.0
NS4,42.0,35.0,30.0,60.0,70.0,70,2594.0,square4,j,0.0887,3,N,4.0
NS4,43.0,35.0,34.0,57.0,63.0,63,2657.0,square4,j,0.0362,3,N,4.0
NS4,44.0,30.0,32.0,59.0,69.0,69,2726.0,square4,j,0.0112,3,N,4.0
NS4,45.0,29.0,31.0,60.0,66.0,66,2792.0,square4,j,0.1795,3,N,4.0
NS4,46.0,35.0,34.0,66.0,66.0,35,2827.0,square1,f,0.0405,0,N,4.0
NS4,47.0,35.0,28.0,63.0,62.0,62,2889.0,square4,j,0.1025,3,N,4.0
NS4,48.0,37.0,37.0,61.0,55.0,55,2944.0,square4,j,0.0369,3,N,4.0
NS4,49.0,40.0,34.0,59.0,54.0,54,2998.0,square4,j,0.0223,3,N,4.0
NS4,50.0,39.0,38.0,68.0,51.0,68,3066.0,square3,r,0.0851,2,N,4.0
NS4,51.0,46.0,28.0,69.0,48.0,69,3135.0,square3,r,0.1475,2,N,4.0
NS4,52.0,40.0,34.0,62.0,49.0,62,3197.0,square3,r,0.0974,2,N,4.0
NS4,53.0,39.0,34.0,63.0,48.0,34,3231.0,square2,i,0.1003,1,N,4.0
NS4,54.0,44.0,31.0,58.0,47.0,58,3289.0,square3,r,0.0177,2,N,4.0
NS4,55.0,42.0,30.0,68.0,46.0,68,3357.0,square3,r,0.0651,2,N,4.0
NS4,56.0,36.0,25.0,69.0,44.0,69,3426.0,square3,r,0.0798,2,N,4.0
NS4,57.0,35.0,29.0,71.0,46.0,71,3497.0,square3,r,0.1126,2,N,4.0
NS4,58.0,43.0,28.0,68.0,47.0,68,3565.0,square3,r,0.1636,2,N,4.0
NS4,59.0,43.0,27.0,67.0,43.0,67,3632.0,square3,r,0.104,2,N,4.0
NS4,60.0,40.0,25.0,72.0,46.0,72,3704.0,square3,r,0.1585,2,N,4.0
NS4,61.0,39.0,32.0,63.0,43.0,63,3767.0,square3,r,0.1999,2,N,4.0
NS4,62.0,39.0,29.0,61.0,39.0,61,3828.0,square3,r,0.1475,2,N,4.0
NS4,63.0,41.0,28.0,59.0,40.0,59,3887.0,square3,r,0.1275,2,N,4.0
NS4,64.0,41.0,31.0,57.0,51.0,51,3938.0,square4,j,0.0606,3,N,4.0
NS4,65.0,46.0,36.0,59.0,58.0,46,3984.0,square1,f,0.125,0,N,4.0
NS4,66.0,45.0,36.0,53.0,46.0,36,4020.0,square2,i,0.2392,1,N,4.0
NS4,67.0,40.0,34.0,49.0,46.0,49,4069.0,square3,r,0.077,2,N,4.0
NS4,68.0,43.0,37.0,48.0,48.0,48,4117.0,square4,j,0.1816,3,N,4.0
NS4,69.0,42.0,36.0,44.0,56.0,56,4173.0,square4,j,0.0138,3,N,4.0
NS4,70.0,40.0,38.0,47.0,58.0,58,4231.0,square4,j,0.2299,3,N,4.0
NS4,71.0,36.0,34.0,42.0,63.0,63,4294.0,square4,j,0.102,3,N,4.0
NS4,72.0,38.0,36.0,36.0,66.0,66,4360.0,square4,j,0.0002,3,N,4.0
NS4,73.0,36.0,40.0,40.0,66.0,66,4426.0,square4,j,0.0434,3,N,4.0
NS4,74.0,31.0,38.0,46.0,67.0,67,4493.0,square4,j,0.041,3,N,4.0
NS4,75.0,40.0,33.0,42.0,64.0,40,4533.0,square1,f,0.071,0,N,4.0
NS4,76.0,38.0,35.0,42.0,64.0,35,4568.0,square2,i,0.1015,1,N,4.0
NS4,77.0,40.0,35.0,39.0,66.0,39,4607.0,square3,r,0.0002,2,N,4.0
NS4,78.0,40.0,33.0,38.0,68.0,68,4675.0,square4,j,0.1046,3,N,4.0
NS4,79.0,40.0,38.0,31.0,70.0,70,4745.0,square4,j,0.0251,3,N,4.0
NS4,80.0,37.0,35.0,33.0,73.0,73,4818.0,square4,j,0.0413,3,N,4.0
NS4,81.0,34.0,35.0,30.0,70.0,70,4888.0,square4,j,0.0343,3,N,4.0
NS4,82.0,35.0,37.0,31.0,66.0,66,4954.0,square4,j,0.0975,3,N,4.0
NS4,83.0,42.0,32.0,28.0,67.0,67,5021.0,square4,j,0.1044,3,N,4.0
NS4,84.0,38.0,35.0,30.0,68.0,68,5089.0,square4,j,0.0597,3,N,4.0
NS4,85.0,43.0,35.0,32.0,64.0,64,5153.0,square4,j,0.0834,3,N,4.0
NS4,86.0,49.0,35.0,32.0,70.0,70,5223.0,square4,j,0.0409,3,N,4.0
NS4,87.0,48.0,34.0,32.0,69.0,69,5292.0,square4,j,0.0384,3,N,4.0
NS4,88.0,50.0,35.0,30.0,64.0,50,5342.0,square1,f,0.0151,0,N,4.0
NS4,89.0,48.0,34.0,32.0,68.0,34,5376.0,square2,i,0.0106,1,N,4.0
NS4,90.0,53.0,29.0,27.0,68.0,27,5403.0,square3,r,0.0975,2,N,4.0
NS4,91.0,54.0,27.0,34.0,68.0,68,5471.0,square4,j,0.0863,3,N,4.0
NS4,92.0,52.0,20.0,35.0,69.0,69,5540.0,square4,j,0.0426,3,N,4.0
NS4,93.0,42.0,15.0,33.0,68.0,68,5608.0,square4,j,0.0635,3,N,4.0
NS4,94.0,40.0,24.0,37.0,72.0,72,5680.0,square4,j,0.0606,3,N,4.0
NS4,95.0,43.0,25.0,43.0,69.0,69,5749.0,square4,j,0.1216,3,N,4.0
NS4,96.0,41.0,29.0,43.0,74.0,74,5823.0,square4,j,0.1114,3,N,4.0
NS4,97.0,46.0,32.0,42.0,78.0,78,5901.0,square4,j,0.148,3,N,4.0
NS4,98.0,48.0,26.0,46.0,75.0,75,5976.0,square4,j,0.0643,3,N,4.0
NS4,99.0,46.0,27.0,45.0,71.0,71,6047.0,square4,j,0.1022,3,N,4.0
NS5,0.0,26.0,19.0,54.0,39.0,19,19.0,square2,r,0.6084,1,N,5.0
NS5,1.0,21.0,17.0,51.0,42.0,51,70.0,square3,f,0.0885,2,N,5.0
NS5,2.0,19.0,17.0,52.0,42.0,19,89.0,square1,j,0.0858,0,N,5.0
NS5,3.0,21.0,16.0,55.0,38.0,38,127.0,square4,i,0.0766,3,N,5.0
NS5,4.0,14.0,26.0,52.0,44.0,52,179.0,square3,f,0.0599,2,N,5.0
NS5,5.0,18.0,25.0,47.0,42.0,47,226.0,square3,f,0.2265,2,N,5.0
NS5,6.0,23.0,21.0,54.0,38.0,38,264.0,square4,i,0.1471,3,N,5.0
NS5,7.0,18.0,27.0,56.0,39.0,56,320.0,square3,f,0.0003,2,N,5.0
NS5,8.0,18.0,28.0,57.0,40.0,57,377.0,square3,f,0.0576,2,N,5.0
NS5,9.0,15.0,29.0,53.0,38.0,53,430.0,square3,f,0.1862,2,N,5.0
NS5,10.0,13.0,26.0,56.0,41.0,56,486.0,square3,f,0.0601,2,N,5.0
NS5,11.0,11.0,25.0,58.0,41.0,58,544.0,square3,f,0.0794,2,N,5.0
NS5,12.0,9.0,22.0,53.0,40.0,40,584.0,square4,i,0.0128,3,N,5.0
NS5,13.0,11.0,21.0,55.0,39.0,11,595.0,square1,j,0.1888,0,N,5.0
NS5,14.0,12.0,17.0,49.0,38.0,17,612.0,square2,r,0.1742,1,N,5.0
NS5,15.0,18.0,19.0,52.0,37.0,37,649.0,square4,i,0.0367,3,N,5.0
NS5,16.0,18.0,20.0,49.0,40.0,49,698.0,square3,f,0.0835,2,N,5.0
NS5,17.0,16.0,16.0,50.0,41.0,50,748.0,square3,f,0.059,2,N,5.0
NS5,18.0,16.0,18.0,51.0,43.0,51,799.0,square3,f,0.1559,2,N,5.0
NS5,19.0,14.0,20.0,44.0,45.0,45,844.0,square4,i,0.1863,3,N,5.0
NS5,20.0,19.0,21.0,42.0,48.0,42,886.0,square3,f,0.0616,2,N,5.0
NS5,21.0,19.0,22.0,43.0,47.0,43,929.0,square3,f,0.0752,2,N,5.0
NS5,22.0,17.0,15.0,43.0,47.0,47,976.0,square4,i,0.123,3,N,5.0
NS5,23.0,16.0,28.0,37.0,47.0,47,1023.0,square4,i,0.0147,3,N,5.0
NS5,24.0,20.0,21.0,38.0,49.0,49,1072.0,square4,i,0.0321,3,N,5.0
NS5,25.0,22.0,17.0,34.0,46.0,46,1118.0,square4,i,0.0549,3,N,5.0
NS5,26.0,30.0,16.0,32.0,50.0,50,1168.0,square4,i,0.0622,3,N,5.0
NS5,27.0,21.0,20.0,35.0,42.0,42,1210.0,square4,i,0.1169,3,N,5.0
NS5,28.0,20.0,23.0,39.0,42.0,39,1249.0,square3,f,0.0046,2,N,5.0
NS5,29.0,21.0,18.0,39.0,41.0,18,1267.0,square2,r,0.071,1,N,5.0
NS5,30.0,20.0,11.0,41.0,44.0,20,1287.0,square1,j,0.0886,0,N,5.0
NS5,31.0,20.0,9.0,36.0,43.0,43,1330.0,square4,i,0.1753,3,N,5.0
NS5,32.0,21.0,13.0,35.0,46.0,46,1376.0,square4,i,0.0329,3,N,5.0
NS5,33.0,16.0,22.0,32.0,44.0,44,1420.0,square4,i,0.1376,3,N,5.0
NS5,34.0,20.0,20.0,33.0,37.0,37,1457.0,square4,i,0.1895,3,N,5.0
NS5,35.0,19.0,27.0,34.0,40.0,34,1491.0,square3,f,0.0134,2,N,5.0
NS5,36.0,20.0,23.0,31.0,37.0,20,1511.0,square1,j,0.0626,0,N,5.0
NS5,37.0,15.0,28.0,41.0,40.0,28,1539.0,square2,r,0.1885,1,N,5.0
NS5,38.0,18.0,21.0,45.0,37.0,45,1584.0,square3,f,0.1552,2,N,5.0
NS5,39.0,23.0,22.0,40.0,34.0,34,1618.0,square4,i,0.159,3,N,5.0
NS5,40.0,22.0,25.0,44.0,26.0,44,1662.0,square3,f,0.1087,2,N,5.0
NS5,41.0,28.0,25.0,39.0,29.0,39,1701.0,square3,f,0.1963,2,N,5.0
NS5,42.0,27.0,27.0,42.0,35.0,42,1743.0,square3,f,0.0968,2,N,5.0
NS5,43.0,25.0,25.0,49.0,38.0,49,1792.0,square3,f,0.0043,2,N,5.0
NS5,44.0,24.0,26.0,42.0,30.0,42,1834.0,square3,f,0.1469,2,N,5.0
NS5,45.0,33.0,22.0,43.0,37.0,43,1877.0,square3,f,0.0621,2,N,5.0
NS5,46.0,32.0,24.0,50.0,38.0,50,1927.0,square3,f,0.0185,2,N,5.0
NS5,47.0,39.0,25.0,52.0,29.0,52,1979.0,square3,f,0.1882,2,N,5.0
NS5,48.0,42.0,22.0,46.0,33.0,46,2025.0,square3,f,0.0853,2,N,5.0
NS5,49.0,40.0,26.0,40.0,33.0,33,2058.0,square4,i,0.1277,3,N,5.0
NS5,50.0,34.0,19.0,47.0,33.0,19,2077.0,square2,r,0.1836,1,N,5.0
NS5,51.0,29.0,25.0,45.0,29.0,29,2106.0,square1,j,0.4243,0,N,5.0
NS5,52.0,29.0,24.0,48.0,35.0,48,2154.0,square3,f,0.0691,2,N,5.0
NS5,53.0,24.0,25.0,45.0,40.0,45,2199.0,square3,f,0.202,2,N,5.0
NS5,54.0,26.0,25.0,51.0,36.0,51,2250.0,square3,f,0.1262,2,N,5.0
NS5,55.0,25.0,28.0,56.0,34.0,56,2306.0,square3,f,0.1194,2,N,5.0
NS5,56.0,23.0,27.0,54.0,36.0,54,2360.0,square3,f,0.2465,2,N,5.0
NS5,57.0,19.0,25.0,51.0,31.0,51,2411.0,square3,f,0.109,2,N,5.0
NS5,58.0,20.0,30.0,53.0,29.0,29,2440.0,square4,i,0.1385,3,N,5.0
NS5,59.0,17.0,30.0,52.0,28.0,30,2470.0,square2,r,0.1038,1,N,5.0
NS5,60.0,15.0,30.0,55.0,30.0,15,2485.0,square1,j,0.3987,0,N,5.0
NS5,61.0,22.0,29.0,54.0,30.0,54,2539.0,square3,f,0.1007,2,N,5.0
NS5,62.0,18.0,31.0,55.0,32.0,55,2594.0,square3,f,0.0788,2,N,5.0
NS5,63.0,19.0,31.0,51.0,37.0,51,2645.0,square3,f,0.1726,2,N,5.0
NS5,64.0,20.0,30.0,45.0,35.0,45,2690.0,square3,f,0.1197,2,N,5.0
NS5,65.0,24.0,21.0,55.0,38.0,38,2728.0,square4,i,0.0232,3,N,5.0
NS5,66.0,22.0,29.0,58.0,36.0,29,2757.0,square2,r,0.3055,1,N,5.0
NS5,67.0,22.0,26.0,51.0,36.0,22,2779.0,square1,j,0.2922,0,N,5.0
NS5,68.0,20.0,28.0,52.0,36.0,52,2831.0,square3,f,0.1877,2,N,5.0
NS5,69.0,18.0,27.0,52.0,40.0,52,2883.0,square3,f,0.3272,2,N,5.0
NS5,70.0,22.0,34.0,55.0,39.0,55,2938.0,square3,f,0.0062,2,N,5.0
NS5,71.0,27.0,37.0,59.0,41.0,59,2997.0,square3,f,0.1833,2,N,5.0
NS5,72.0,27.0,37.0,57.0,40.0,57,3054.0,square3,f,0.1641,2,N,5.0
NS5,73.0,35.0,36.0,55.0,38.0,38,3092.0,square4,i,0.1941,3,N,5.0
NS5,74.0,27.0,36.0,52.0,36.0,36,3128.0,square2,r,0.1946,1,N,5.0
NS5,75.0,31.0,40.0,53.0,38.0,31,3159.0,square1,j,0.0693,0,N,5.0
NS5,76.0,33.0,41.0,59.0,35.0,59,3218.0,square3,f,0.2013,2,N,5.0
NS5,77.0,33.0,42.0,56.0,38.0,56,3274.0,square3,f,0.0419,2,N,5.0
NS5,78.0,30.0,42.0,53.0,37.0,53,3327.0,square3,f,0.0051,2,N,5.0
NS5,79.0,27.0,49.0,51.0,44.0,51,3378.0,square3,f,0.2295,2,N,5.0
NS5,80.0,31.0,49.0,45.0,44.0,45,3423.0,square3,f,0.1803,2,N,5.0
NS5,81.0,33.0,51.0,48.0,43.0,43,3466.0,square4,i,0.1466,3,N,5.0
NS5,82.0,31.0,54.0,41.0,43.0,43,3509.0,square4,i,0.1902,3,N,5.0
NS5,83.0,25.0,57.0,42.0,40.0,40,3549.0,square4,i,0.0273,3,N,5.0
NS5,84.0,36.0,57.0,45.0,38.0,45,3594.0,square3,f,0.2086,2,N,5.0
NS5,85.0,36.0,62.0,44.0,42.0,62,3656.0,square2,r,0.0181,1,N,5.0
NS5,86.0,33.0,55.0,48.0,43.0,55,3711.0,square2,r,0.0459,1,N,5.0
NS5,87.0,37.0,53.0,44.0,46.0,37,3748.0,square1,j,0.0595,0,N,5.0
NS5,88.0,36.0,54.0,41.0,48.0,54,3802.0,square2,r,0.2068,1,N,5.0
NS5,89.0,39.0,62.0,47.0,47.0,62,3864.0,square2,r,0.0571,1,N,5.0
NS5,90.0,37.0,62.0,51.0,48.0,62,3926.0,square2,r,0.1115,1,N,5.0
NS5,91.0,40.0,64.0,48.0,53.0,64,3990.0,square2,r,0.0046,1,N,5.0
NS5,92.0,42.0,64.0,51.0,55.0,64,4054.0,square2,r,0.1086,1,N,5.0
NS5,93.0,39.0,63.0,51.0,53.0,53,4107.0,square4,i,0.1753,3,N,5.0
NS5,94.0,41.0,60.0,50.0,58.0,50,4157.0,square3,f,0.0386,2,N,5.0
NS5,95.0,36.0,55.0,53.0,52.0,55,4212.0,square2,r,0.0495,1,N,5.0
NS5,96.0,36.0,56.0,55.0,56.0,56,4268.0,square4,i,0.1335,3,N,5.0
NS5,97.0,28.0,52.0,57.0,53.0,53,4321.0,square4,i,0.1832,3,N,5.0
NS5,98.0,29.0,53.0,53.0,43.0,53,4374.0,square2,r,0.2687,1,N,5.0
NS5,99.0,25.0,55.0,53.0,46.0,53,4427.0,square3,f,0.4839,2,N,5.0
V10,0.0,28.0,21.0,37.0,46.0,37,37.0,square3,i,0.6668,2,V,10.0
V10,1.0,26.0,19.0,41.0,49.0,99999,37.0,invalid,,,-1,V,10.0
V10,2.0,29.0,20.0,43.0,48.0,29,66.0,square1,f,0.6665,0,V,10.0
V10,3.0,27.0,27.0,37.0,44.0,27,93.0,square2,j,0.2113,1,V,10.0
V10,4.0,28.0,16.0,36.0,47.0,47,140.0,square4,r,0.2614,3,V,10.0
V10,5.0,33.0,25.0,42.0,54.0,42,182.0,square3,i,0.0524,2,V,10.0
V10,6.0,28.0,19.0,35.0,45.0,45,227.0,square4,r,0.1848,3,V,10.0
V10,7.0,30.0,24.0,35.0,49.0,30,257.0,square1,f,0.0356,0,V,10.0
V10,8.0,37.0,29.0,41.0,47.0,41,298.0,square3,i,0.057,2,V,10.0
V10,9.0,28.0,21.0,41.0,48.0,41,339.0,square3,i,0.0285,2,V,10.0
V10,10.0,27.0,22.0,39.0,42.0,42,381.0,square4,r,0.0272,3,V,10.0
V10,11.0,32.0,16.0,41.0,48.0,48,429.0,square4,r,0.1808,3,V,10.0
V10,12.0,34.0,15.0,33.0,49.0,33,462.0,square3,i,0.1272,2,V,10.0
V10,13.0,36.0,19.0,41.0,45.0,45,507.0,square4,r,0.1335,3,V,10.0
V10,14.0,28.0,23.0,35.0,53.0,53,560.0,square4,r,0.0639,3,V,10.0
V10,15.0,26.0,28.0,40.0,50.0,50,610.0,square4,r,0.0248,3,V,10.0
V10,16.0,30.0,25.0,42.0,47.0,25,635.0,square2,j,0.0816,1,V,10.0
V10,17.0,31.0,19.0,38.0,50.0,38,673.0,square3,i,0.155,2,V,10.0
V10,18.0,34.0,21.0,35.0,48.0,34,707.0,square1,f,0.1898,0,V,10.0
V10,19.0,31.0,24.0,39.0,46.0,46,753.0,square4,r,0.0919,3,V,10.0
V10,20.0,28.0,22.0,42.0,47.0,47,800.0,square4,r,0.0958,3,V,10.0
V10,21.0,24.0,20.0,41.0,47.0,41,841.0,square3,i,0.0938,2,V,10.0
V10,22.0,32.0,22.0,34.0,44.0,22,863.0,square2,j,0.1556,1,V,10.0
V10,23.0,29.0,23.0,37.0,47.0,29,892.0,square1,f,0.1013,0,V,10.0
V10,24.0,25.0,25.0,38.0,46.0,46,938.0,square4,r,0.1776,3,V,10.0
V10,25.0,30.0,24.0,41.0,45.0,45,983.0,square4,r,0.1189,3,V,10.0
V10,26.0,32.0,17.0,38.0,49.0,49,1032.0,square4,r,0.2048,3,V,10.0
V10,27.0,34.0,21.0,38.0,47.0,47,1079.0,square4,r,0.1749,3,V,10.0
V10,28.0,29.0,21.0,37.0,45.0,37,1116.0,square3,i,0.024,2,V,10.0
V10,29.0,30.0,20.0,31.0,47.0,47,1163.0,square4,r,0.1903,3,V,10.0
V10,30.0,28.0,21.0,35.0,44.0,28,1191.0,square1,f,0.1128,0,V,10.0
V10,31.0,36.0,25.0,14.0,8.0,8,1199.0,square4,r,0.0985,3,V,10.0
V10,32.0,38.0,27.0,19.0,11.0,27,1226.0,square2,j,0.0879,1,V,10.0
V10,33.0,39.0,21.0,20.0,13.0,20,1246.0,square3,i,0.0968,2,V,10.0
V10,34.0,34.0,24.0,20.0,10.0,34,1280.0,square1,f,0.2135,0,V,10.0
V10,35.0,44.0,29.0,17.0,11.0,44,1324.0,square1,f,0.1763,0,V,10.0
V10,36.0,33.0,30.0,17.0,9.0,33,1357.0,square1,f,0.1549,0,V,10.0
V10,37.0,31.0,27.0,12.0,6.0,31,1388.0,square1,f,0.1432,0,V,10.0
V10,38.0,34.0,29.0,15.0,10.0,29,1417.0,square2,j,0.1004,1,V,10.0
V10,39.0,35.0,21.0,19.0,5.0,19,1436.0,square3,i,0.067,2,V,10.0
V10,40.0,32.0,26.0,18.0,6.0,6,1442.0,square4,r,0.0889,3,V,10.0
V10,41.0,34.0,32.0,13.0,9.0,34,1476.0,square1,f,0.1358,0,V,10.0
V10,42.0,35.0,30.0,16.0,8.0,35,1511.0,square1,f,0.1971,0,V,10.0
V10,43.0,38.0,32.0,16.0,8.0,38,1549.0,square1,f,0.1293,0,V,10.0
V10,44.0,34.0,20.0,18.0,3.0,34,1583.0,square1,f,0.1529,0,V,10.0
V10,45.0,38.0,22.0,23.0,9.0,38,1621.0,square1,f,0.0524,0,V,10.0
V10,46.0,36.0,28.0,16.0,10.0,36,1657.0,square1,f,0.1398,0,V,10.0
V10,47.0,36.0,27.0,13.0,8.0,36,1693.0,square1,f,0.2116,0,V,10.0
V10,48.0,35.0,27.0,14.0,12.0,27,1720.0,square2,j,0.1363,1,V,10.0
V10,49.0,33.0,28.0,16.0,10.0,16,1736.0,square3,i,0.1894,2,V,10.0
V10,50.0,31.0,29.0,19.0,8.0,31,1767.0,square1,f,0.0195,0,V,10.0
V10,51.0,32.0,21.0,20.0,12.0,32,1799.0,square1,f,0.1393,0,V,10.0
V10,52.0,29.0,25.0,21.0,10.0,29,1828.0,square1,f,0.1358,0,V,10.0
V10,53.0,39.0,29.0,23.0,2.0,2,1830.0,square4,r,0.1106,3,V,10.0
V10,54.0,33.0,28.0,19.0,7.0,28,1858.0,square2,j,0.0214,1,V,10.0
V10,55.0,34.0,24.0,15.0,8.0,34,1892.0,square1,f,0.0318,0,V,10.0
V10,56.0,35.0,20.0,21.0,9.0,20,1912.0,square2,j,0.0027,1,V,10.0
V10,57.0,33.0,27.0,19.0,7.0,33,1945.0,square1,f,0.021,0,V,10.0
V10,58.0,38.0,24.0,16.0,7.0,16,1961.0,square3,i,0.1366,2,V,10.0
V10,59.0,34.0,29.0,15.0,5.0,34,1995.0,square1,f,0.1884,0,V,10.0
V10,60.0,34.0,22.0,19.0,9.0,22,2017.0,square2,j,0.0295,1,V,10.0
V10,61.0,39.0,31.0,20.0,10.0,39,2056.0,square1,f,0.1015,0,V,10.0
V10,62.0,35.0,24.0,18.0,6.0,24,2080.0,square2,j,0.014,1,V,10.0
V10,63.0,35.0,26.0,18.0,9.0,35,2115.0,square1,f,0.0219,0,V,10.0
V10,64.0,31.0,55.0,23.0,23.0,31,2146.0,square1,f,0.1317,0,V,10.0
V10,65.0,35.0,50.0,22.0,27.0,22,2168.0,square3,i,0.0003,2,V,10.0
V10,66.0,35.0,53.0,25.0,29.0,35,2203.0,square1,f,0.0379,0,V,10.0
V10,67.0,38.0,44.0,17.0,29.0,44,2247.0,square2,j,0.0042,1,V,10.0
V10,68.0,36.0,48.0,22.0,27.0,48,2295.0,square2,j,0.0414,1,V,10.0
V10,69.0,41.0,53.0,17.0,28.0,53,2348.0,square2,j,0.16,1,V,10.0
V10,70.0,40.0,48.0,23.0,28.0,48,2396.0,square2,j,0.0377,1,V,10.0
V10,71.0,39.0,43.0,24.0,20.0,43,2439.0,square2,j,0.0711,1,V,10.0
V10,72.0,36.0,49.0,19.0,25.0,49,2488.0,square2,j,0.0535,1,V,10.0
V10,73.0,39.0,49.0,23.0,32.0,39,2527.0,square1,f,0.1545,0,V,10.0
V10,74.0,36.0,44.0,17.0,29.0,44,2571.0,square2,j,0.0667,1,V,10.0
V10,75.0,37.0,46.0,20.0,30.0,20,2591.0,square3,i,0.1451,2,V,10.0
V10,76.0,38.0,47.0,23.0,30.0,47,2638.0,square2,j,0.1401,1,V,10.0
V10,77.0,36.0,49.0,22.0,32.0,32,2670.0,square4,r,0.1008,3,V,10.0
V10,78.0,41.0,44.0,19.0,27.0,44,2714.0,square2,j,0.1949,1,V,10.0
V10,79.0,41.0,48.0,22.0,27.0,48,2762.0,square2,j,0.1001,1,V,10.0
V10,80.0,34.0,44.0,26.0,29.0,44,2806.0,square2,j,0.1452,1,V,10.0
V10,81.0,38.0,47.0,18.0,29.0,47,2853.0,square2,j,0.1403,1,V,10.0
V10,82.0,43.0,43.0,23.0,28.0,43,2896.0,square1,f,0.0368,0,V,10.0
V10,83.0,34.0,51.0,23.0,26.0,51,2947.0,square2,j,0.0877,1,V,10.0
V10,84.0,36.0,46.0,18.0,25.0,18,2965.0,square3,i,0.0125,2,V,10.0
V10,85.0,39.0,46.0,25.0,26.0,46,3011.0,square2,j,0.2105,1,V,10.0
V10,86.0,39.0,50.0,27.0,27.0,50,3061.0,square2,j,0.0148,1,V,10.0
V10,87.0,38.0,46.0,20.0,30.0,38,3099.0,square1,f,0.2248,0,V,10.0
V10,88.0,37.0,49.0,22.0,28.0,49,3148.0,square2,j,0.0942,1,V,10.0
V10,89.0,34.0,51.0,25.0,26.0,26,3174.0,square4,r,0.2057,3,V,10.0
V10,90.0,41.0,49.0,22.0,29.0,49,3223.0,square2,j,0.0429,1,V,10.0
V10,91.0,37.0,45.0,26.0,32.0,45,3268.0,square2,j,0.0234,1,V,10.0
V10,92.0,42.0,42.0,27.0,28.0,42,3310.0,square2,j,0.0669,1,V,10.0
V10,93.0,41.0,48.0,19.0,36.0,48,3358.0,square2,j,0.0742,1,V,10.0
V10,94.0,43.0,49.0,23.0,31.0,49,3407.0,square2,j,0.1003,1,V,10.0
V10,95.0,39.0,46.0,18.0,27.0,39,3446.0,square1,f,0.2025,0,V,10.0
V10,96.0,37.0,48.0,24.0,27.0,24,3470.0,square3,i,0.1218,2,V,10.0
V10,97.0,42.0,50.0,23.0,31.0,50,3520.0,square2,j,0.1182,1,V,10.0
V10,98.0,33.0,47.0,25.0,32.0,47,3567.0,square2,j,0.0346,1,V,10.0
V10,99.0,39.0,48.0,23.0,32.0,48,3615.0,square2,j,0.0919,1,V,10.0
V8,0.0,49.0,55.0,64.0,74.0,55,55.0,square2,i,0.4971,1,V,8.0
V8,1.0,51.0,54.0,70.0,81.0,51,106.0,square1,j,0.1184,0,V,8.0
V8,2.0,46.0,62.0,70.0,77.0,77,183.0,square4,f,0.1972,3,V,8.0
V8,3.0,46.0,56.0,67.0,75.0,75,258.0,square4,f,0.21,3,V,8.0
V8,4.0,50.0,59.0,67.0,83.0,83,341.0,square4,f,0.0337,3,V,8.0
V8,5.0,51.0,54.0,65.0,78.0,78,419.0,square4,f,0.1191,3,V,8.0
V8,6.0,45.0,57.0,66.0,80.0,66,485.0,square3,r,0.1247,2,V,8.0
V8,7.0,46.0,64.0,68.0,77.0,64,549.0,square2,i,0.0136,1,V,8.0
V8,8.0,50.0,57.0,66.0,73.0,50,599.0,square1,j,0.1569,0,V,8.0
V8,9.0,46.0,56.0,71.0,72.0,72,671.0,square4,f,0.1323,3,V,8.0
V8,10.0,56.0,58.0,67.0,75.0,75,746.0,square4,f,0.0619,3,V,8.0
V8,11.0,50.0,61.0,69.0,74.0,74,820.0,square4,f,0.1137,3,V,8.0
V8,12.0,59.0,59.0,69.0,77.0,77,897.0,square4,f,0.1967,3,V,8.0
V8,13.0,50.0,56.0,72.0,77.0,77,974.0,square4,f,0.1116,3,V,8.0
V8,14.0,48.0,55.0,65.0,80.0,80,1054.0,square4,f,0.2046,3,V,8.0
V8,15.0,48.0,58.0,65.0,76.0,76,1130.0,square4,f,0.1919,3,V,8.0
V8,16.0,49.0,58.0,67.0,75.0,58,1188.0,square2,i,0.1334,1,V,8.0
V8,17.0,51.0,56.0,68.0,76.0,68,1256.0,square3,r,0.1591,2,V,8.0
V8,18.0,52.0,63.0,69.0,80.0,80,1336.0,square4,f,0.1032,3,V,8.0
V8,19.0,54.0,54.0,71.0,79.0,79,1415.0,square4,f,0.0675,3,V,8.0
V8,20.0,48.0,53.0,62.0,77.0,77,1492.0,square4,f,0.094,3,V,8.0
V8,21.0,44.0,61.0,66.0,77.0,44,1536.0,square1,j,0.1242,0,V,8.0
V8,22.0,52.0,58.0,64.0,78.0,78,1614.0,square4,f,0.0352,3,V,8.0
V8,23.0,50.0,49.0,67.0,79.0,49,1663.0,square2,i,0.0644,1,V,8.0
V8,24.0,49.0,59.0,69.0,74.0,74,1737.0,square4,f,0.0132,3,V,8.0
V8,25.0,46.0,61.0,65.0,81.0,81,1818.0,square4,f,0.1016,3,V,8.0
V8,26.0,49.0,58.0,63.0,35.0,35,1853.0,square4,f,0.1272,3,V,8.0
V8,27.0,48.0,51.0,66.0,41.0,66,1919.0,square3,r,0.0757,2,V,8.0
V8,28.0,46.0,55.0,65.0,38.0,55,1974.0,square2,i,0.1655,1,V,8.0
V8,29.0,47.0,58.0,69.0,40.0,47,2021.0,square1,j,0.0814,0,V,8.0
V8,30.0,42.0,55.0,67.0,43.0,67,2088.0,square3,r,0.0569,2,V,8.0
V8,31.0,49.0,56.0,64.0,36.0,64,2152.0,square3,r,0.1231,2,V,8.0
V8,32.0,49.0,55.0,69.0,38.0,69,2221.0,square3,r,0.1611,2,V,8.0
V8,33.0,44.0,52.0,65.0,48.0,65,2286.0,square3,r,0.2002,2,V,8.0
V8,34.0,44.0,57.0,70.0,45.0,70,2356.0,square3,r,0.2305,2,V,8.0
V8,35.0,44.0,54.0,68.0,38.0,68,2424.0,square3,r,0.1488,2,V,8.0
V8,36.0,45.0,56.0,64.0,40.0,64,2488.0,square3,r,0.2337,2,V,8.0
V8,37.0,47.0,57.0,66.0,37.0,66,2554.0,square3,r,0.1606,2,V,8.0
V8,38.0,49.0,50.0,66.0,37.0,66,2620.0,square3,r,0.2157,2,V,8.0
V8,39.0,51.0,56.0,61.0,39.0,56,2676.0,square2,i,0.139,1,V,8.0
V8,40.0,47.0,59.0,66.0,41.0,47,2723.0,square1,j,0.1315,0,V,8.0
V8,41.0,42.0,56.0,69.0,42.0,42,2765.0,square4,f,0.1373,3,V,8.0
V8,42.0,47.0,57.0,72.0,35.0,57,2822.0,square2,i,0.1667,1,V,8.0
V8,43.0,47.0,57.0,63.0,44.0,63,2885.0,square3,r,0.0779,2,V,8.0
V8,44.0,45.0,58.0,67.0,42.0,67,2952.0,square3,r,0.0668,2,V,8.0
V8,45.0,44.0,56.0,66.0,43.0,66,3018.0,square3,r,0.1373,2,V,8.0
V8,46.0,46.0,53.0,70.0,37.0,70,3088.0,square3,r,0.0051,2,V,8.0
V8,47.0,54.0,53.0,71.0,41.0,71,3159.0,square3,r,0.197,2,V,8.0
V8,48.0,49.0,53.0,69.0,37.0,53,3212.0,square2,i,0.0987,1,V,8.0
V8,49.0,39.0,57.0,65.0,47.0,65,3277.0,square3,r,0.2611,2,V,8.0
V8,50.0,48.0,55.0,65.0,41.0,65,3342.0,square3,r,0.1417,2,V,8.0
V8,51.0,45.0,61.0,68.0,43.0,68,3410.0,square3,r,0.1724,2,V,8.0
V8,52.0,53.0,52.0,68.0,37.0,68,3478.0,square3,r,0.2112,2,V,8.0
V8,53.0,47.0,55.0,66.0,46.0,66,3544.0,square3,r,0.0461,2,V,8.0
V8,54.0,49.0,53.0,61.0,39.0,39,3583.0,square4,f,0.0169,3,V,8.0
V8,55.0,53.0,70.0,55.0,72.0,53,3636.0,square1,j,0.2022,0,V,8.0
V8,56.0,57.0,63.0,48.0,73.0,63,3699.0,square2,i,0.0639,1,V,8.0
V8,57.0,53.0,71.0,45.0,80.0,45,3744.0,square3,r,0.1339,2,V,8.0
V8,58.0,57.0,69.0,52.0,73.0,69,3813.0,square2,i,0.0227,1,V,8.0
V8,59.0,58.0,67.0,54.0,73.0,67,3880.0,square2,i,0.0456,1,V,8.0
V8,60.0,55.0,66.0,47.0,76.0,66,3946.0,square2,i,0.2127,1,V,8.0
V8,61.0,56.0,65.0,54.0,72.0,65,4011.0,square2,i,0.1015,1,V,8.0
V8,62.0,56.0,65.0,49.0,75.0,56,4067.0,square1,j,0.159,0,V,8.0
V8,63.0,61.0,65.0,44.0,78.0,65,4132.0,square2,i,0.1682,1,V,8.0
V8,64.0,54.0,66.0,48.0,75.0,66,4198.0,square2,i,0.0963,1,V,8.0
V8,65.0,59.0,65.0,46.0,79.0,65,4263.0,square2,i,0.072,1,V,8.0
V8,66.0,51.0,62.0,46.0,73.0,62,4325.0,square2,i,0.0986,1,V,8.0
V8,67.0,60.0,70.0,45.0,76.0,76,4401.0,square4,f,0.0936,3,V,8.0
V8,68.0,63.0,64.0,47.0,73.0,73,4474.0,square4,f,0.2096,3,V,8.0
V8,69.0,58.0,66.0,43.0,77.0,77,4551.0,square4,f,0.1169,3,V,8.0
V8,70.0,59.0,65.0,49.0,73.0,73,4624.0,square4,f,0.1447,3,V,8.0
V8,71.0,60.0,64.0,49.0,79.0,79,4703.0,square4,f,0.153,3,V,8.0
V8,72.0,96.0,68.0,78.0,67.0,67,4770.0,square4,f,0.2086,3,V,8.0
V8,73.0,96.0,68.0,79.0,64.0,96,4866.0,square1,j,0.1842,0,V,8.0
V8,74.0,92.0,67.0,81.0,62.0,92,4958.0,square1,j,0.1542,0,V,8.0
V8,75.0,96.0,72.0,83.0,62.0,96,5054.0,square1,j,0.1728,0,V,8.0
V8,76.0,94.0,70.0,77.0,57.0,94,5148.0,square1,j,0.1317,0,V,8.0
V8,77.0,91.0,68.0,81.0,59.0,68,5216.0,square2,i,0.0988,1,V,8.0
V8,78.0,90.0,73.0,80.0,63.0,80,5296.0,square3,r,0.0195,2,V,8.0
V8,79.0,90.0,73.0,83.0,61.0,61,5357.0,square4,f,0.0056,3,V,8.0
V8,80.0,95.0,75.0,81.0,66.0,95,5452.0,square1,j,0.196,0,V,8.0
V8,81.0,92.0,72.0,81.0,57.0,92,5544.0,square1,j,0.0053,0,V,8.0
V8,82.0,91.0,71.0,80.0,61.0,91,5635.0,square1,j,0.0063,0,V,8.0
V8,83.0,90.0,66.0,83.0,62.0,83,5718.0,square3,r,0.1427,2,V,8.0
V8,84.0,93.0,67.0,87.0,65.0,93,5811.0,square1,j,0.1064,0,V,8.0
V8,85.0,85.0,70.0,80.0,62.0,70,5881.0,square2,i,0.0279,1,V,8.0
V8,86.0,84.0,72.0,85.0,62.0,84,5965.0,square1,j,0.0154,0,V,8.0
V8,87.0,91.0,68.0,82.0,65.0,65,6030.0,square4,f,0.0292,3,V,8.0
V8,88.0,93.0,67.0,83.0,61.0,83,6113.0,square3,r,0.0334,2,V,8.0
V8,89.0,95.0,68.0,78.0,66.0,95,6208.0,square1,j,0.0961,0,V,8.0
V8,90.0,91.0,73.0,80.0,60.0,91,6299.0,square1,j,0.0345,0,V,8.0
V8,91.0,93.0,68.0,81.0,64.0,93,6392.0,square1,j,0.0325,0,V,8.0
V8,92.0,90.0,75.0,82.0,67.0,90,6482.0,square1,j,0.1126,0,V,8.0
V8,93.0,92.0,70.0,82.0,66.0,82,6564.0,square3,r,0.004,2,V,8.0
V8,94.0,90.0,71.0,78.0,63.0,71,6635.0,square2,i,0.1313,1,V,8.0
V8,95.0,88.0,65.0,78.0,63.0,88,6723.0,square1,j,0.0591,0,V,8.0
V8,96.0,89.0,72.0,85.0,62.0,62,6785.0,square4,f,0.1349,3,V,8.0
V8,97.0,92.0,72.0,77.0,67.0,92,6877.0,square1,j,0.0467,0,V,8.0
V8,98.0,86.0,63.0,82.0,62.0,82,6959.0,square3,r,0.0502,2,V,8.0
V8,99.0,90.0,66.0,75.0,61.0,90,7049.0,square1,j,0.1335,0,V,8.0
V1,0.0,46.0,61.0,52.0,71.0,61,61.0,square2,f,0.5744,1,V,1.0
V1,1.0,45.0,63.0,54.0,78.0,78,139.0,square4,j,0.2387,3,V,1.0
V1,2.0,51.0,58.0,59.0,77.0,51,190.0,square1,r,0.0527,0,V,1.0
V1,3.0,53.0,65.0,56.0,75.0,56,246.0,square3,i,0.0252,2,V,1.0
V1,4.0,49.0,68.0,53.0,72.0,72,318.0,square4,j,0.0782,3,V,1.0
V1,5.0,47.0,70.0,59.0,76.0,76,394.0,square4,j,0.11,3,V,1.0
V1,6.0,55.0,63.0,54.0,76.0,76,470.0,square4,j,0.1259,3,V,1.0
V1,7.0,47.0,67.0,55.0,74.0,74,544.0,square4,j,0.1262,3,V,1.0
V1,8.0,47.0,65.0,46.0,76.0,65,609.0,square2,f,0.0277,1,V,1.0
V1,9.0,46.0,68.0,59.0,78.0,78,687.0,square4,j,0.1933,3,V,1.0
V1,10.0,58.0,67.0,58.0,79.0,58,745.0,square3,i,0.1045,2,V,1.0
V1,11.0,44.0,61.0,54.0,72.0,72,817.0,square4,j,0.0696,3,V,1.0
V1,12.0,44.0,65.0,56.0,75.0,44,861.0,square1,r,0.0805,0,V,1.0
V1,13.0,47.0,63.0,53.0,73.0,73,934.0,square4,j,0.077,3,V,1.0
V1,14.0,49.0,66.0,56.0,75.0,66,1000.0,square2,f,0.1476,1,V,1.0
V1,15.0,49.0,66.0,52.0,79.0,79,1079.0,square4,j,0.1474,3,V,1.0
V1,16.0,51.0,61.0,48.0,72.0,72,1151.0,square4,j,0.0838,3,V,1.0
V1,17.0,46.0,61.0,59.0,71.0,71,1222.0,square4,j,0.0742,3,V,1.0
V1,18.0,45.0,61.0,53.0,72.0,61,1283.0,square2,f,0.0326,1,V,1.0
V1,19.0,49.0,63.0,54.0,76.0,76,1359.0,square4,j,0.1057,3,V,1.0
V1,20.0,46.0,66.0,52.0,72.0,72,1431.0,square4,j,0.0786,3,V,1.0
V1,21.0,50.0,65.0,51.0,73.0,51,1482.0,square3,i,0.2035,2,V,1.0
V1,22.0,56.0,62.0,56.0,77.0,77,1559.0,square4,j,0.0125,3,V,1.0
V1,23.0,45.0,67.0,54.0,83.0,83,1642.0,square4,j,0.0484,3,V,1.0
V1,24.0,46.0,69.0,57.0,71.0,46,1688.0,square1,r,0.1084,0,V,1.0
V1,25.0,41.0,65.0,55.0,76.0,76,1764.0,square4,j,0.0925,3,V,1.0
V1,26.0,51.0,60.0,55.0,74.0,74,1838.0,square4,j,0.0224,3,V,1.0
V1,27.0,52.0,63.0,56.0,73.0,73,1911.0,square4,j,0.0481,3,V,1.0
V1,28.0,50.0,68.0,50.0,76.0,76,1987.0,square4,j,0.1156,3,V,1.0
V1,29.0,51.0,60.0,54.0,74.0,60,2047.0,square2,f,0.0268,1,V,1.0
V1,30.0,35.0,67.0,57.0,40.0,40,2087.0,square4,j,0.1339,3,V,1.0
V1,31.0,38.0,60.0,52.0,35.0,60,2147.0,square2,f,0.1956,1,V,1.0
V1,32.0,37.0,67.0,52.0,41.0,52,2199.0,square3,i,0.1707,2,V,1.0
V1,33.0,37.0,62.0,53.0,42.0,37,2236.0,square1,r,0.0722,0,V,1.0
V1,34.0,35.0,58.0,54.0,43.0,58,2294.0,square2,f,0.1681,1,V,1.0
V1,35.0,40.0,60.0,50.0,44.0,60,2354.0,square2,f,0.1151,1,V,1.0
V1,36.0,39.0,66.0,50.0,39.0,39,2393.0,square4,j,0.1716,3,V,1.0
V1,37.0,32.0,59.0,54.0,38.0,59,2452.0,square2,f,0.0466,1,V,1.0
V1,38.0,32.0,64.0,50.0,39.0,50,2502.0,square3,i,0.1555,2,V,1.0
V1,39.0,37.0,60.0,45.0,40.0,60,2562.0,square2,f,0.0083,1,V,1.0
V1,40.0,35.0,61.0,54.0,43.0,61,2623.0,square2,f,0.0885,1,V,1.0
V1,41.0,33.0,62.0,49.0,42.0,62,2685.0,square2,f,0.1627,1,V,1.0
V1,42.0,31.0,70.0,52.0,42.0,31,2716.0,square1,r,0.0515,0,V,1.0
V1,43.0,37.0,59.0,48.0,41.0,59,2775.0,square2,f,0.1228,1,V,1.0
V1,44.0,39.0,63.0,53.0,44.0,53,2828.0,square3,i,0.1697,2,V,1.0
V1,45.0,37.0,62.0,48.0,41.0,62,2890.0,square2,f,0.1234,1,V,1.0
V1,46.0,34.0,65.0,52.0,39.0,65,2955.0,square2,f,0.085,1,V,1.0
V1,47.0,42.0,59.0,52.0,43.0,59,3014.0,square2,f,0.1681,1,V,1.0
V1,48.0,39.0,62.0,50.0,38.0,62,3076.0,square2,f,0.1984,1,V,1.0
V1,49.0,33.0,63.0,49.0,40.0,63,3139.0,square2,f,0.1751,1,V,1.0
V1,50.0,38.0,66.0,54.0,37.0,54,3193.0,square3,i,0.1419,2,V,1.0
V1,51.0,33.0,66.0,50.0,37.0,37,3230.0,square4,j,0.0192,3,V,1.0
V1,52.0,41.0,65.0,55.0,44.0,41,3271.0,square1,r,0.2641,0,V,1.0
V1,53.0,75.0,50.0,46.0,60.0,46,3317.0,square3,i,0.215,2,V,1.0
V1,54.0,74.0,53.0,45.0,61.0,53,3370.0,square2,f,0.1371,1,V,1.0
V1,55.0,74.0,54.0,43.0,65.0,54,3424.0,square2,f,0.1666,1,V,1.0
V1,56.0,73.0,54.0,44.0,56.0,54,3478.0,square2,f,0.0917,1,V,1.0
V1,57.0,67.0,58.0,52.0,63.0,63,3541.0,square4,j,0.3878,3,V,1.0
V1,58.0,72.0,51.0,43.0,62.0,62,3603.0,square4,j,0.0228,3,V,1.0
V1,59.0,68.0,47.0,49.0,56.0,56,3659.0,square4,j,0.032,3,V,1.0
V1,60.0,72.0,55.0,46.0,65.0,65,3724.0,square4,j,0.2127,3,V,1.0
V1,61.0,76.0,50.0,46.0,62.0,46,3770.0,square3,i,0.1779,2,V,1.0
V1,62.0,77.0,58.0,46.0,66.0,77,3847.0,square1,r,0.0114,0,V,1.0
V1,63.0,72.0,53.0,48.0,66.0,72,3919.0,square1,r,0.0197,0,V,1.0
V1,64.0,70.0,49.0,49.0,60.0,70,3989.0,square1,r,0.1349,0,V,1.0
V1,65.0,68.0,49.0,46.0,66.0,68,4057.0,square1,r,0.1686,0,V,1.0
V1,66.0,77.0,52.0,41.0,64.0,77,4134.0,square1,r,0.0027,0,V,1.0
V1,67.0,74.0,56.0,42.0,69.0,74,4208.0,square1,r,0.2256,0,V,1.0
V1,68.0,77.0,50.0,46.0,68.0,77,4285.0,square1,r,0.0084,0,V,1.0
V1,69.0,76.0,48.0,45.0,63.0,76,4361.0,square1,r,0.2426,0,V,1.0
V1,70.0,71.0,53.0,50.0,65.0,53,4414.0,square2,f,0.0813,1,V,1.0
V1,71.0,70.0,56.0,44.0,59.0,59,4473.0,square4,j,0.1491,3,V,1.0
V1,72.0,74.0,54.0,55.0,61.0,55,4528.0,square3,i,0.1792,2,V,1.0
V1,73.0,73.0,53.0,47.0,61.0,73,4601.0,square1,r,0.2015,0,V,1.0
V1,74.0,71.0,53.0,51.0,65.0,71,4672.0,square1,r,0.1904,0,V,1.0
V1,75.0,72.0,51.0,48.0,64.0,72,4744.0,square1,r,0.1547,0,V,1.0
V1,76.0,72.0,53.0,49.0,62.0,72,4816.0,square1,r,0.1608,0,V,1.0
V1,77.0,62.0,76.0,64.0,86.0,62,4878.0,square1,r,0.2336,0,V,1.0
V1,78.0,61.0,74.0,63.0,87.0,87,4965.0,square4,j,0.059,3,V,1.0
V1,79.0,56.0,78.0,67.0,89.0,89,5054.0,square4,j,0.1667,3,V,1.0
V1,80.0,59.0,75.0,63.0,84.0,84,5138.0,square4,j,0.0514,3,V,1.0
V1,81.0,63.0,74.0,68.0,82.0,82,5220.0,square4,j,0.1168,3,V,1.0
V1,82.0,59.0,75.0,67.0,80.0,80,5300.0,square4,j,0.0869,3,V,1.0
V1,83.0,58.0,77.0,63.0,82.0,82,5382.0,square4,j,0.0814,3,V,1.0
V1,84.0,57.0,76.0,64.0,87.0,76,5458.0,square2,f,0.1948,1,V,1.0
V1,85.0,61.0,73.0,66.0,83.0,66,5524.0,square3,i,0.0876,2,V,1.0
V1,86.0,60.0,71.0,66.0,85.0,60,5584.0,square1,r,0.0291,0,V,1.0
V1,87.0,61.0,80.0,73.0,84.0,84,5668.0,square4,j,0.1073,3,V,1.0
V1,88.0,67.0,77.0,67.0,85.0,85,5753.0,square4,j,0.1334,3,V,1.0
V1,89.0,60.0,79.0,63.0,86.0,86,5839.0,square4,j,0.0781,3,V,1.0
V1,90.0,60.0,74.0,66.0,88.0,74,5913.0,square2,f,0.1544,1,V,1.0
V1,91.0,57.0,81.0,61.0,79.0,61,5974.0,square3,i,0.1858,2,V,1.0
V1,92.0,61.0,78.0,61.0,84.0,84,6058.0,square4,j,0.1739,3,V,1.0
V1,93.0,64.0,72.0,69.0,83.0,72,6130.0,square2,f,0.1904,1,V,1.0
V1,94.0,64.0,73.0,68.0,83.0,64,6194.0,square1,r,0.0726,0,V,1.0
V1,95.0,61.0,69.0,68.0,87.0,87,6281.0,square4,j,0.1469,3,V,1.0
V1,96.0,55.0,77.0,65.0,88.0,88,6369.0,square4,j,0.0389,3,V,1.0
V1,97.0,61.0,75.0,63.0,82.0,75,6444.0,square2,f,0.1438,1,V,1.0
V1,98.0,59.0,71.0,66.0,82.0,66,6510.0,square3,i,0.2847,2,V,1.0
V1,99.0,61.0,69.0,67.0,84.0,84,6594.0,square4,j,0.0094,3,V,1.0
