block,Trial,square1,square2,square3,square4,currPoints,totalPoints,square,choiceKey.keys,choiceKey.rt,armNum,blockType,blockNum
prac,0.0,100.0,0.0,0.0,0.0,99999,0.0,invalid,,,-1,p,0.0
prac,1.0,100.0,0.0,0.0,0.0,99999,0.0,invalid,,,-1,p,0.0
prac,2.0,100.0,0.0,0.0,0.0,99999,0.0,invalid,,,-1,p,0.0
prac,3.0,100.0,0.0,0.0,0.0,99999,0.0,invalid,,,-1,p,0.0
prac,4.0,100.0,0.0,0.0,0.0,99999,0.0,invalid,,,-1,p,0.0
prac,5.0,100.0,0.0,0.0,0.0,99999,0.0,invalid,,,-1,p,0.0
prac,6.0,100.0,0.0,0.0,0.0,100,100.0,square1,,,0,p,0.0
prac,7.0,100.0,0.0,0.0,0.0,99999,100.0,invalid,,,-1,p,0.0
prac,8.0,100.0,0.0,0.0,0.0,99999,100.0,invalid,,,-1,p,0.0
prac,9.0,100.0,0.0,0.0,0.0,99999,100.0,invalid,,,-1,p,0.0
V11,0.0,42.0,67.0,57.0,49.0,67,67.0,square2,r,0.5864,1,V,11.0
V11,1.0,42.0,71.0,60.0,53.0,60,127.0,square3,f,0.4967,2,V,11.0
V11,2.0,45.0,76.0,58.0,51.0,51,178.0,square4,j,0.8234,3,V,11.0
V11,3.0,44.0,65.0,60.0,49.0,44,222.0,square1,i,0.2407,0,V,11.0
V11,4.0,46.0,73.0,64.0,51.0,73,295.0,square2,r,0.271,1,V,11.0
V11,5.0,47.0,67.0,58.0,54.0,67,362.0,square2,r,0.2845,1,V,11.0
V11,6.0,43.0,68.0,58.0,50.0,43,405.0,square1,i,0.6896,0,V,11.0
V11,7.0,42.0,67.0,60.0,58.0,60,465.0,square3,f,0.2664,2,V,11.0
V11,8.0,44.0,67.0,60.0,53.0,67,532.0,square2,r,0.046,1,V,11.0
V11,9.0,44.0,67.0,59.0,54.0,67,599.0,square2,r,0.1779,1,V,11.0
V11,10.0,49.0,76.0,57.0,52.0,76,675.0,square2,r,0.0645,1,V,11.0
V11,11.0,45.0,71.0,58.0,51.0,71,746.0,square2,r,0.2726,1,V,11.0
V11,12.0,45.0,72.0,58.0,56.0,72,818.0,square2,r,0.2441,1,V,11.0
V11,13.0,49.0,67.0,63.0,54.0,67,885.0,square2,r,0.0612,1,V,11.0
V11,14.0,50.0,75.0,57.0,48.0,75,960.0,square2,r,0.0893,1,V,11.0
V11,15.0,40.0,71.0,61.0,51.0,51,1011.0,square4,j,0.2686,3,V,11.0
V11,16.0,47.0,72.0,56.0,54.0,72,1083.0,square2,r,0.0592,1,V,11.0
V11,17.0,40.0,71.0,61.0,46.0,71,1154.0,square2,r,0.1247,1,V,11.0
V11,18.0,44.0,69.0,59.0,51.0,69,1223.0,square2,r,0.1104,1,V,11.0
V11,19.0,44.0,73.0,59.0,47.0,73,1296.0,square2,r,0.241,1,V,11.0
V11,20.0,47.0,69.0,64.0,54.0,69,1365.0,square2,r,0.043,1,V,11.0
V11,21.0,78.0,49.0,70.0,65.0,49,1414.0,square2,r,0.0948,1,V,11.0
V11,22.0,78.0,56.0,73.0,62.0,56,1470.0,square2,r,0.0588,1,V,11.0
V11,23.0,84.0,54.0,71.0,65.0,54,1524.0,square2,r,0.5742,1,V,11.0
V11,24.0,80.0,55.0,72.0,67.0,55,1579.0,square2,r,0.1128,1,V,11.0
V11,25.0,80.0,55.0,75.0,63.0,75,1654.0,square3,f,0.0225,2,V,11.0
V11,26.0,80.0,56.0,67.0,62.0,67,1721.0,square3,f,0.2236,2,V,11.0
V11,27.0,80.0,51.0,68.0,62.0,68,1789.0,square3,f,0.1585,2,V,11.0
V11,28.0,79.0,57.0,67.0,57.0,67,1856.0,square3,f,0.1482,2,V,11.0
V11,29.0,79.0,50.0,67.0,62.0,67,1923.0,square3,f,0.1725,2,V,11.0
V11,30.0,88.0,54.0,74.0,61.0,74,1997.0,square3,f,0.0628,2,V,11.0
V11,31.0,81.0,51.0,75.0,63.0,75,2072.0,square3,f,0.144,2,V,11.0
V11,32.0,76.0,51.0,69.0,65.0,69,2141.0,square3,f,0.0755,2,V,11.0
V11,33.0,78.0,54.0,72.0,64.0,72,2213.0,square3,f,0.2078,2,V,11.0
V11,34.0,77.0,53.0,71.0,62.0,62,2275.0,square4,j,0.3286,3,V,11.0
V11,35.0,74.0,59.0,75.0,62.0,74,2349.0,square1,i,0.0782,0,V,11.0
V11,36.0,79.0,50.0,72.0,62.0,79,2428.0,square1,i,0.1082,0,V,11.0
V11,37.0,74.0,54.0,68.0,62.0,74,2502.0,square1,i,0.2377,0,V,11.0
V11,38.0,80.0,57.0,65.0,58.0,80,2582.0,square1,i,0.026,0,V,11.0
V11,39.0,73.0,52.0,75.0,66.0,73,2655.0,square1,i,0.0244,0,V,11.0
V11,40.0,82.0,57.0,71.0,57.0,57,2712.0,square2,r,0.0806,1,V,11.0
V11,41.0,78.0,53.0,73.0,64.0,64,2776.0,square4,j,0.0049,3,V,11.0
V11,42.0,72.0,56.0,67.0,59.0,67,2843.0,square3,f,0.0263,2,V,11.0
V11,43.0,81.0,54.0,73.0,63.0,81,2924.0,square1,i,0.3048,0,V,11.0
V11,44.0,76.0,54.0,75.0,59.0,76,3000.0,square1,i,0.2648,0,V,11.0
V11,45.0,79.0,59.0,71.0,64.0,79,3079.0,square1,i,0.1459,0,V,11.0
V11,46.0,80.0,55.0,67.0,57.0,80,3159.0,square1,i,0.133,0,V,11.0
V11,47.0,84.0,53.0,75.0,56.0,84,3243.0,square1,i,0.1474,0,V,11.0
V11,48.0,83.0,57.0,71.0,60.0,83,3326.0,square1,i,0.5882,0,V,11.0
V11,49.0,79.0,52.0,71.0,60.0,79,3405.0,square1,i,0.2458,0,V,11.0
V11,50.0,76.0,50.0,69.0,60.0,76,3481.0,square1,i,0.0005,0,V,11.0
V11,51.0,79.0,54.0,72.0,57.0,79,3560.0,square1,i,0.2903,0,V,11.0
V11,52.0,80.0,54.0,72.0,64.0,80,3640.0,square1,i,0.5585,0,V,11.0
V11,53.0,35.0,50.0,55.0,69.0,55,3695.0,square3,f,0.0636,2,V,11.0
V11,54.0,45.0,48.0,55.0,73.0,48,3743.0,square2,r,0.8637,1,V,11.0
V11,55.0,43.0,53.0,58.0,70.0,70,3813.0,square4,j,0.0948,3,V,11.0
V11,56.0,40.0,46.0,60.0,62.0,40,3853.0,square1,i,0.1774,0,V,11.0
V11,57.0,44.0,46.0,53.0,71.0,71,3924.0,square4,j,0.0397,3,V,11.0
V11,58.0,44.0,52.0,55.0,68.0,68,3992.0,square4,j,0.0072,3,V,11.0
V11,59.0,44.0,44.0,57.0,66.0,66,4058.0,square4,j,0.0646,3,V,11.0
V11,60.0,40.0,46.0,57.0,62.0,62,4120.0,square4,j,0.0334,3,V,11.0
V11,61.0,42.0,52.0,58.0,62.0,62,4182.0,square4,j,0.352,3,V,11.0
V11,62.0,40.0,49.0,56.0,71.0,71,4253.0,square4,j,0.2181,3,V,11.0
V11,63.0,40.0,54.0,60.0,66.0,66,4319.0,square4,j,0.1966,3,V,11.0
V11,64.0,41.0,43.0,51.0,66.0,43,4362.0,square2,r,0.0389,1,V,11.0
V11,65.0,39.0,48.0,59.0,66.0,59,4421.0,square3,f,0.0785,2,V,11.0
V11,66.0,40.0,48.0,59.0,69.0,40,4461.0,square1,i,0.7733,0,V,11.0
V11,67.0,46.0,45.0,58.0,69.0,69,4530.0,square4,j,0.1291,3,V,11.0
V11,68.0,41.0,50.0,56.0,69.0,69,4599.0,square4,j,0.073,3,V,11.0
V11,69.0,48.0,49.0,57.0,71.0,71,4670.0,square4,j,0.2302,3,V,11.0
V11,70.0,41.0,47.0,58.0,65.0,65,4735.0,square4,j,0.0798,3,V,11.0
V11,71.0,37.0,46.0,58.0,60.0,60,4795.0,square4,j,0.0531,3,V,11.0
V11,72.0,41.0,47.0,54.0,65.0,65,4860.0,square4,j,0.1051,3,V,11.0
V11,73.0,42.0,47.0,60.0,67.0,67,4927.0,square4,j,0.0224,3,V,11.0
V11,74.0,43.0,49.0,57.0,64.0,64,4991.0,square4,j,0.0241,3,V,11.0
V11,75.0,38.0,46.0,57.0,66.0,57,5048.0,square3,f,0.2475,2,V,11.0
V11,76.0,42.0,50.0,58.0,68.0,68,5116.0,square4,j,0.1132,3,V,11.0
V11,77.0,36.0,49.0,58.0,64.0,64,5180.0,square4,j,0.0295,3,V,11.0
V11,78.0,40.0,50.0,56.0,67.0,67,5247.0,square4,j,0.4851,3,V,11.0
V11,79.0,39.0,48.0,56.0,67.0,67,5314.0,square4,j,0.1182,3,V,11.0
V11,80.0,51.0,33.0,30.0,45.0,45,5359.0,square4,j,0.2257,3,V,11.0
V11,81.0,49.0,31.0,23.0,48.0,23,5382.0,square3,f,0.4248,2,V,11.0
V11,82.0,55.0,30.0,25.0,42.0,55,5437.0,square1,i,0.0286,0,V,11.0
V11,83.0,50.0,33.0,27.0,48.0,33,5470.0,square2,r,0.0314,1,V,11.0
V11,84.0,52.0,34.0,25.0,43.0,43,5513.0,square4,j,0.3862,3,V,11.0
V11,85.0,49.0,28.0,28.0,44.0,44,5557.0,square4,j,0.341,3,V,11.0
V11,86.0,57.0,29.0,27.0,48.0,27,5584.0,square3,f,0.2236,2,V,11.0
V11,87.0,49.0,29.0,21.0,38.0,49,5633.0,square1,i,0.2461,0,V,11.0
V11,88.0,55.0,32.0,29.0,46.0,32,5665.0,square2,r,0.2777,1,V,11.0
V11,89.0,50.0,28.0,23.0,43.0,50,5715.0,square1,i,0.4417,0,V,11.0
V11,90.0,54.0,34.0,32.0,41.0,54,5769.0,square1,i,0.3627,0,V,11.0
V11,91.0,50.0,34.0,26.0,44.0,50,5819.0,square1,i,0.0671,0,V,11.0
V11,92.0,51.0,31.0,27.0,50.0,51,5870.0,square1,i,0.1488,0,V,11.0
V11,93.0,49.0,38.0,28.0,42.0,49,5919.0,square1,i,0.18,0,V,11.0
V11,94.0,50.0,29.0,25.0,46.0,46,5965.0,square4,j,0.1253,3,V,11.0
V11,95.0,51.0,36.0,22.0,40.0,51,6016.0,square1,i,0.0605,0,V,11.0
V11,96.0,52.0,34.0,32.0,45.0,52,6068.0,square1,i,0.0428,0,V,11.0
V11,97.0,53.0,27.0,32.0,44.0,53,6121.0,square1,i,0.3927,0,V,11.0
V11,98.0,60.0,31.0,25.0,48.0,60,6181.0,square1,i,0.0591,0,V,11.0
V11,99.0,53.0,33.0,23.0,42.0,53,6234.0,square1,i,0.1921,0,V,11.0
V4,0.0,63.0,38.0,47.0,55.0,47,47.0,square3,r,1.121,2,V,4.0
V4,1.0,66.0,42.0,43.0,59.0,42,89.0,square2,i,0.1471,1,V,4.0
V4,2.0,66.0,39.0,57.0,59.0,59,148.0,square4,f,0.2714,3,V,4.0
V4,3.0,66.0,37.0,51.0,59.0,66,214.0,square1,j,0.2319,0,V,4.0
V4,4.0,69.0,37.0,50.0,55.0,69,283.0,square1,j,0.0256,0,V,4.0
V4,5.0,64.0,44.0,46.0,62.0,64,347.0,square1,j,0.148,0,V,4.0
V4,6.0,75.0,43.0,49.0,57.0,75,422.0,square1,j,0.0006,0,V,4.0
V4,7.0,62.0,41.0,52.0,59.0,62,484.0,square1,j,0.0065,0,V,4.0
V4,8.0,65.0,41.0,44.0,60.0,65,549.0,square1,j,0.2454,0,V,4.0
V4,9.0,68.0,35.0,44.0,64.0,68,617.0,square1,j,0.1175,0,V,4.0
V4,10.0,67.0,44.0,48.0,61.0,67,684.0,square1,j,0.11,0,V,4.0
V4,11.0,61.0,40.0,48.0,56.0,40,724.0,square2,i,0.157,1,V,4.0
V4,12.0,68.0,41.0,49.0,55.0,49,773.0,square3,r,0.1581,2,V,4.0
V4,13.0,63.0,42.0,47.0,60.0,60,833.0,square4,f,0.013,3,V,4.0
V4,14.0,63.0,40.0,51.0,55.0,63,896.0,square1,j,0.1351,0,V,4.0
V4,15.0,62.0,41.0,52.0,62.0,62,958.0,square1,j,0.1634,0,V,4.0
V4,16.0,69.0,37.0,47.0,60.0,69,1027.0,square1,j,0.1234,0,V,4.0
V4,17.0,66.0,40.0,48.0,56.0,66,1093.0,square1,j,0.1382,0,V,4.0
V4,18.0,67.0,43.0,47.0,59.0,67,1160.0,square1,j,0.0332,0,V,4.0
V4,19.0,64.0,42.0,51.0,59.0,64,1224.0,square1,j,0.0107,0,V,4.0
V4,20.0,67.0,40.0,47.0,58.0,67,1291.0,square1,j,0.0006,0,V,4.0
V4,21.0,60.0,41.0,50.0,59.0,60,1351.0,square1,j,0.2251,0,V,4.0
V4,22.0,66.0,43.0,54.0,55.0,66,1417.0,square1,j,0.0281,0,V,4.0
V4,23.0,67.0,37.0,50.0,62.0,67,1484.0,square1,j,0.0007,0,V,4.0
V4,24.0,67.0,37.0,49.0,60.0,67,1551.0,square1,j,0.0379,0,V,4.0
V4,25.0,67.0,39.0,55.0,52.0,67,1618.0,square1,j,0.0179,0,V,4.0
V4,26.0,64.0,39.0,51.0,63.0,64,1682.0,square1,j,0.1953,0,V,4.0
V4,27.0,68.0,36.0,55.0,60.0,68,1750.0,square1,j,0.0546,0,V,4.0
V4,28.0,67.0,40.0,46.0,54.0,67,1817.0,square1,j,0.1513,0,V,4.0
V4,29.0,67.0,41.0,50.0,57.0,57,1874.0,square4,f,0.1913,3,V,4.0
V4,30.0,66.0,39.0,49.0,53.0,66,1940.0,square1,j,0.0009,0,V,4.0
V4,31.0,70.0,38.0,48.0,58.0,70,2010.0,square1,j,0.1494,0,V,4.0
V4,32.0,63.0,40.0,53.0,61.0,63,2073.0,square1,j,0.0608,0,V,4.0
V4,33.0,66.0,41.0,51.0,56.0,66,2139.0,square1,j,0.2617,0,V,4.0
V4,34.0,64.0,39.0,46.0,57.0,64,2203.0,square1,j,0.2008,0,V,4.0
V4,35.0,69.0,36.0,50.0,58.0,69,2272.0,square1,j,0.3069,0,V,4.0
V4,36.0,60.0,43.0,53.0,54.0,60,2332.0,square1,j,0.5646,0,V,4.0
V4,37.0,52.0,78.0,68.0,66.0,52,2384.0,square1,j,0.0936,0,V,4.0
V4,38.0,44.0,81.0,68.0,62.0,44,2428.0,square1,j,0.2378,0,V,4.0
V4,39.0,59.0,71.0,70.0,63.0,59,2487.0,square1,j,0.1275,0,V,4.0
V4,40.0,53.0,77.0,73.0,59.0,53,2540.0,square1,j,0.0074,0,V,4.0
V4,41.0,53.0,76.0,74.0,66.0,53,2593.0,square1,j,0.1587,0,V,4.0
V4,42.0,51.0,79.0,73.0,59.0,51,2644.0,square1,j,0.1554,0,V,4.0
V4,43.0,48.0,76.0,68.0,65.0,48,2692.0,square1,j,0.0005,0,V,4.0
V4,44.0,57.0,83.0,78.0,63.0,57,2749.0,square1,j,0.1779,0,V,4.0
V4,45.0,54.0,74.0,69.0,61.0,54,2803.0,square1,j,0.1308,0,V,4.0
V4,46.0,53.0,85.0,66.0,62.0,62,2865.0,square4,f,0.2801,3,V,4.0
V4,47.0,56.0,83.0,68.0,57.0,57,2922.0,square4,f,0.238,3,V,4.0
V4,48.0,49.0,74.0,73.0,59.0,59,2981.0,square4,f,0.0596,3,V,4.0
V4,49.0,54.0,74.0,70.0,60.0,70,3051.0,square3,r,0.1259,2,V,4.0
V4,50.0,47.0,83.0,69.0,60.0,69,3120.0,square3,r,0.1281,2,V,4.0
V4,51.0,54.0,78.0,73.0,56.0,73,3193.0,square3,r,0.122,2,V,4.0
V4,52.0,52.0,76.0,71.0,58.0,71,3264.0,square3,r,0.1085,2,V,4.0
V4,53.0,51.0,82.0,76.0,63.0,76,3340.0,square3,r,0.1114,2,V,4.0
V4,54.0,57.0,76.0,69.0,64.0,69,3409.0,square3,r,0.0311,2,V,4.0
V4,55.0,49.0,75.0,68.0,59.0,68,3477.0,square3,r,0.0798,2,V,4.0
V4,56.0,55.0,81.0,66.0,65.0,66,3543.0,square3,r,0.1236,2,V,4.0
V4,57.0,58.0,80.0,72.0,63.0,72,3615.0,square3,r,0.0416,2,V,4.0
V4,58.0,49.0,81.0,66.0,62.0,66,3681.0,square3,r,0.1301,2,V,4.0
V4,59.0,57.0,78.0,73.0,59.0,78,3759.0,square2,i,0.2431,1,V,4.0
V4,60.0,48.0,79.0,66.0,59.0,79,3838.0,square2,i,0.0443,1,V,4.0
V4,61.0,53.0,80.0,72.0,60.0,80,3918.0,square2,i,0.191,1,V,4.0
V4,62.0,53.0,79.0,70.0,61.0,79,3997.0,square2,i,0.0071,1,V,4.0
V4,63.0,81.0,66.0,90.0,66.0,66,4063.0,square2,i,0.031,1,V,4.0
V4,64.0,80.0,64.0,85.0,76.0,80,4143.0,square1,j,0.125,0,V,4.0
V4,65.0,77.0,61.0,92.0,74.0,77,4220.0,square1,j,0.0005,0,V,4.0
V4,66.0,89.0,65.0,91.0,73.0,89,4309.0,square1,j,0.1473,0,V,4.0
V4,67.0,86.0,64.0,92.0,70.0,86,4395.0,square1,j,0.3039,0,V,4.0
V4,68.0,82.0,60.0,91.0,77.0,82,4477.0,square1,j,0.0123,0,V,4.0
V4,69.0,78.0,69.0,90.0,70.0,78,4555.0,square1,j,0.0282,0,V,4.0
V4,70.0,85.0,64.0,95.0,73.0,73,4628.0,square4,f,0.1049,3,V,4.0
V4,71.0,85.0,61.0,88.0,69.0,69,4697.0,square4,f,0.1275,3,V,4.0
V4,72.0,86.0,63.0,87.0,75.0,86,4783.0,square1,j,0.079,0,V,4.0
V4,73.0,86.0,69.0,92.0,70.0,86,4869.0,square1,j,0.1978,0,V,4.0
V4,74.0,81.0,62.0,90.0,69.0,81,4950.0,square1,j,0.1423,0,V,4.0
V4,75.0,83.0,66.0,88.0,74.0,83,5033.0,square1,j,0.0618,0,V,4.0
V4,76.0,80.0,64.0,92.0,75.0,80,5113.0,square1,j,0.0124,0,V,4.0
V4,77.0,81.0,65.0,91.0,74.0,81,5194.0,square1,j,0.0876,0,V,4.0
V4,78.0,78.0,70.0,89.0,73.0,78,5272.0,square1,j,0.0932,0,V,4.0
V4,79.0,84.0,66.0,85.0,75.0,75,5347.0,square4,f,0.1756,3,V,4.0
V4,80.0,83.0,65.0,93.0,74.0,74,5421.0,square4,f,0.0098,3,V,4.0
V4,81.0,86.0,59.0,91.0,74.0,86,5507.0,square1,j,0.0281,0,V,4.0
V4,82.0,87.0,64.0,92.0,73.0,87,5594.0,square1,j,0.0797,0,V,4.0
V4,83.0,83.0,68.0,86.0,70.0,83,5677.0,square1,j,0.1084,0,V,4.0
V4,84.0,82.0,62.0,87.0,73.0,82,5759.0,square1,j,0.0311,0,V,4.0
V4,85.0,85.0,61.0,90.0,70.0,85,5844.0,square1,j,0.1616,0,V,4.0
V4,86.0,84.0,66.0,97.0,71.0,84,5928.0,square1,j,0.0006,0,V,4.0
V4,87.0,82.0,64.0,87.0,71.0,82,6010.0,square1,j,0.056,0,V,4.0
V4,88.0,80.0,67.0,93.0,72.0,80,6090.0,square1,j,0.0748,0,V,4.0
V4,89.0,78.0,64.0,92.0,75.0,78,6168.0,square1,j,0.0902,0,V,4.0
V4,90.0,75.0,66.0,88.0,72.0,75,6243.0,square1,j,0.0058,0,V,4.0
V4,91.0,82.0,59.0,91.0,76.0,82,6325.0,square1,j,0.0734,0,V,4.0
V4,92.0,84.0,62.0,91.0,70.0,84,6409.0,square1,j,0.0987,0,V,4.0
V4,93.0,80.0,61.0,94.0,76.0,80,6489.0,square1,j,0.1733,0,V,4.0
V4,94.0,83.0,64.0,88.0,72.0,83,6572.0,square1,j,0.0174,0,V,4.0
V4,95.0,82.0,60.0,94.0,69.0,82,6654.0,square1,j,0.1267,0,V,4.0
V4,96.0,84.0,63.0,92.0,72.0,84,6738.0,square1,j,0.0284,0,V,4.0
V4,97.0,84.0,62.0,85.0,70.0,84,6822.0,square1,j,0.4787,0,V,4.0
V4,98.0,81.0,64.0,93.0,72.0,81,6903.0,square1,j,0.1748,0,V,4.0
V4,99.0,80.0,61.0,92.0,75.0,75,6978.0,square4,f,0.0932,3,V,4.0
V1,0.0,46.0,61.0,52.0,71.0,61,61.0,square2,r,1.4314,1,V,1.0
V1,1.0,45.0,63.0,54.0,78.0,45,106.0,square1,i,0.0886,0,V,1.0
V1,2.0,51.0,58.0,59.0,77.0,77,183.0,square4,j,0.0289,3,V,1.0
V1,3.0,53.0,65.0,56.0,75.0,56,239.0,square3,f,0.0217,2,V,1.0
V1,4.0,49.0,68.0,53.0,72.0,72,311.0,square4,j,0.7447,3,V,1.0
V1,5.0,47.0,70.0,59.0,76.0,76,387.0,square4,j,0.1768,3,V,1.0
V1,6.0,55.0,63.0,54.0,76.0,76,463.0,square4,j,0.0287,3,V,1.0
V1,7.0,47.0,67.0,55.0,74.0,74,537.0,square4,j,0.0802,3,V,1.0
V1,8.0,47.0,65.0,46.0,76.0,76,613.0,square4,j,0.1236,3,V,1.0
V1,9.0,46.0,68.0,59.0,78.0,78,691.0,square4,j,0.2271,3,V,1.0
V1,10.0,58.0,67.0,58.0,79.0,79,770.0,square4,j,0.1592,3,V,1.0
V1,11.0,44.0,61.0,54.0,72.0,72,842.0,square4,j,0.0721,3,V,1.0
V1,12.0,44.0,65.0,56.0,75.0,75,917.0,square4,j,0.032,3,V,1.0
V1,13.0,47.0,63.0,53.0,73.0,53,970.0,square3,f,0.2405,2,V,1.0
V1,14.0,49.0,66.0,56.0,75.0,66,1036.0,square2,r,0.1256,1,V,1.0
V1,15.0,49.0,66.0,52.0,79.0,49,1085.0,square1,i,0.0065,0,V,1.0
V1,16.0,51.0,61.0,48.0,72.0,72,1157.0,square4,j,0.0305,3,V,1.0
V1,17.0,46.0,61.0,59.0,71.0,71,1228.0,square4,j,0.3174,3,V,1.0
V1,18.0,45.0,61.0,53.0,72.0,72,1300.0,square4,j,0.1449,3,V,1.0
V1,19.0,49.0,63.0,54.0,76.0,76,1376.0,square4,j,0.1281,3,V,1.0
V1,20.0,46.0,66.0,52.0,72.0,72,1448.0,square4,j,0.1088,3,V,1.0
V1,21.0,50.0,65.0,51.0,73.0,73,1521.0,square4,j,0.0907,3,V,1.0
V1,22.0,56.0,62.0,56.0,77.0,77,1598.0,square4,j,0.2931,3,V,1.0
V1,23.0,45.0,67.0,54.0,83.0,83,1681.0,square4,j,0.0613,3,V,1.0
V1,24.0,46.0,69.0,57.0,71.0,71,1752.0,square4,j,0.0006,3,V,1.0
V1,25.0,41.0,65.0,55.0,76.0,76,1828.0,square4,j,0.1615,3,V,1.0
V1,26.0,51.0,60.0,55.0,74.0,74,1902.0,square4,j,0.1051,3,V,1.0
V1,27.0,52.0,63.0,56.0,73.0,63,1965.0,square2,r,0.1301,1,V,1.0
V1,28.0,50.0,68.0,50.0,76.0,50,2015.0,square1,i,0.0574,0,V,1.0
V1,29.0,51.0,60.0,54.0,74.0,54,2069.0,square3,f,0.1485,2,V,1.0
V1,30.0,35.0,67.0,57.0,40.0,40,2109.0,square4,j,0.1615,3,V,1.0
V1,31.0,38.0,60.0,52.0,35.0,35,2144.0,square4,j,0.7846,3,V,1.0
V1,32.0,37.0,67.0,52.0,41.0,67,2211.0,square2,r,0.2843,1,V,1.0
V1,33.0,37.0,62.0,53.0,42.0,62,2273.0,square2,r,0.3624,1,V,1.0
V1,34.0,35.0,58.0,54.0,43.0,54,2327.0,square3,f,0.097,2,V,1.0
V1,35.0,40.0,60.0,50.0,44.0,40,2367.0,square1,i,0.0788,0,V,1.0
V1,36.0,39.0,66.0,50.0,39.0,66,2433.0,square2,r,0.0112,1,V,1.0
V1,37.0,32.0,59.0,54.0,38.0,59,2492.0,square2,r,0.1133,1,V,1.0
V1,38.0,32.0,64.0,50.0,39.0,64,2556.0,square2,r,0.0449,1,V,1.0
V1,39.0,37.0,60.0,45.0,40.0,60,2616.0,square2,r,0.2712,1,V,1.0
V1,40.0,35.0,61.0,54.0,43.0,61,2677.0,square2,r,0.1296,1,V,1.0
V1,41.0,33.0,62.0,49.0,42.0,62,2739.0,square2,r,0.1255,1,V,1.0
V1,42.0,31.0,70.0,52.0,42.0,70,2809.0,square2,r,0.1575,1,V,1.0
V1,43.0,37.0,59.0,48.0,41.0,59,2868.0,square2,r,0.0006,1,V,1.0
V1,44.0,39.0,63.0,53.0,44.0,63,2931.0,square2,r,0.0989,1,V,1.0
V1,45.0,37.0,62.0,48.0,41.0,62,2993.0,square2,r,0.2135,1,V,1.0
V1,46.0,34.0,65.0,52.0,39.0,65,3058.0,square2,r,0.1478,1,V,1.0
V1,47.0,42.0,59.0,52.0,43.0,59,3117.0,square2,r,0.1006,1,V,1.0
V1,48.0,39.0,62.0,50.0,38.0,62,3179.0,square2,r,0.1115,1,V,1.0
V1,49.0,33.0,63.0,49.0,40.0,40,3219.0,square4,j,0.0224,3,V,1.0
V1,50.0,38.0,66.0,54.0,37.0,38,3257.0,square1,i,0.0643,0,V,1.0
V1,51.0,33.0,66.0,50.0,37.0,50,3307.0,square3,f,0.0782,2,V,1.0
V1,52.0,41.0,65.0,55.0,44.0,65,3372.0,square2,r,0.1763,1,V,1.0
V1,53.0,75.0,50.0,46.0,60.0,50,3422.0,square2,r,0.0641,1,V,1.0
V1,54.0,74.0,53.0,45.0,61.0,53,3475.0,square2,r,0.1785,1,V,1.0
V1,55.0,74.0,54.0,43.0,65.0,54,3529.0,square2,r,0.2454,1,V,1.0
V1,56.0,73.0,54.0,44.0,56.0,54,3583.0,square2,r,0.1421,1,V,1.0
V1,57.0,67.0,58.0,52.0,63.0,58,3641.0,square2,r,0.1306,1,V,1.0
V1,58.0,72.0,51.0,43.0,62.0,43,3684.0,square3,f,0.1328,2,V,1.0
V1,59.0,68.0,47.0,49.0,56.0,68,3752.0,square1,i,0.2408,0,V,1.0
V1,60.0,72.0,55.0,46.0,65.0,65,3817.0,square4,j,0.2452,3,V,1.0
V1,61.0,76.0,50.0,46.0,62.0,76,3893.0,square1,i,0.028,0,V,1.0
V1,62.0,77.0,58.0,46.0,66.0,77,3970.0,square1,i,0.0006,0,V,1.0
V1,63.0,72.0,53.0,48.0,66.0,72,4042.0,square1,i,0.0736,0,V,1.0
V1,64.0,70.0,49.0,49.0,60.0,70,4112.0,square1,i,0.1485,0,V,1.0
V1,65.0,68.0,49.0,46.0,66.0,68,4180.0,square1,i,0.0805,0,V,1.0
V1,66.0,77.0,52.0,41.0,64.0,77,4257.0,square1,i,0.2617,0,V,1.0
V1,67.0,74.0,56.0,42.0,69.0,74,4331.0,square1,i,0.197,0,V,1.0
V1,68.0,77.0,50.0,46.0,68.0,77,4408.0,square1,i,0.1093,0,V,1.0
V1,69.0,76.0,48.0,45.0,63.0,76,4484.0,square1,i,0.1643,0,V,1.0
V1,70.0,71.0,53.0,50.0,65.0,71,4555.0,square1,i,0.2445,0,V,1.0
V1,71.0,70.0,56.0,44.0,59.0,70,4625.0,square1,i,0.0456,0,V,1.0
V1,72.0,74.0,54.0,55.0,61.0,74,4699.0,square1,i,0.123,0,V,1.0
V1,73.0,73.0,53.0,47.0,61.0,73,4772.0,square1,i,0.1276,0,V,1.0
V1,74.0,71.0,53.0,51.0,65.0,71,4843.0,square1,i,0.0587,0,V,1.0
V1,75.0,72.0,51.0,48.0,64.0,72,4915.0,square1,i,0.0259,0,V,1.0
V1,76.0,72.0,53.0,49.0,62.0,72,4987.0,square1,i,0.2057,0,V,1.0
V1,77.0,62.0,76.0,64.0,86.0,62,5049.0,square1,i,0.0627,0,V,1.0
V1,78.0,61.0,74.0,63.0,87.0,61,5110.0,square1,i,0.1458,0,V,1.0
V1,79.0,56.0,78.0,67.0,89.0,67,5177.0,square3,f,0.0832,2,V,1.0
V1,80.0,59.0,75.0,63.0,84.0,63,5240.0,square3,f,0.0473,2,V,1.0
V1,81.0,63.0,74.0,68.0,82.0,68,5308.0,square3,f,0.0118,2,V,1.0
V1,82.0,59.0,75.0,67.0,80.0,59,5367.0,square1,i,0.0537,0,V,1.0
V1,83.0,58.0,77.0,63.0,82.0,77,5444.0,square2,r,0.1155,1,V,1.0
V1,84.0,57.0,76.0,64.0,87.0,87,5531.0,square4,j,0.0801,3,V,1.0
V1,85.0,61.0,73.0,66.0,83.0,83,5614.0,square4,j,0.1127,3,V,1.0
V1,86.0,60.0,71.0,66.0,85.0,85,5699.0,square4,j,0.2559,3,V,1.0
V1,87.0,61.0,80.0,73.0,84.0,84,5783.0,square4,j,0.0891,3,V,1.0
V1,88.0,67.0,77.0,67.0,85.0,85,5868.0,square4,j,0.1066,3,V,1.0
V1,89.0,60.0,79.0,63.0,86.0,86,5954.0,square4,j,0.226,3,V,1.0
V1,90.0,60.0,74.0,66.0,88.0,88,6042.0,square4,j,0.1594,3,V,1.0
V1,91.0,57.0,81.0,61.0,79.0,79,6121.0,square4,j,0.411,3,V,1.0
V1,92.0,61.0,78.0,61.0,84.0,84,6205.0,square4,j,0.062,3,V,1.0
V1,93.0,64.0,72.0,69.0,83.0,83,6288.0,square4,j,0.4517,3,V,1.0
V1,94.0,64.0,73.0,68.0,83.0,83,6371.0,square4,j,0.3746,3,V,1.0
V1,95.0,61.0,69.0,68.0,87.0,87,6458.0,square4,j,0.3586,3,V,1.0
V1,96.0,55.0,77.0,65.0,88.0,88,6546.0,square4,j,0.1209,3,V,1.0
V1,97.0,61.0,75.0,63.0,82.0,82,6628.0,square4,j,0.0783,3,V,1.0
V1,98.0,59.0,71.0,66.0,82.0,82,6710.0,square4,j,0.2571,3,V,1.0
V1,99.0,61.0,69.0,67.0,84.0,84,6794.0,square4,j,0.0164,3,V,1.0
NS3,0.0,52.0,26.0,68.0,52.0,52,52.0,square4,r,0.6854,3,N,3.0
NS3,1.0,57.0,23.0,69.0,48.0,23,75.0,square2,i,0.539,1,N,3.0
NS3,2.0,59.0,26.0,70.0,52.0,70,145.0,square3,j,0.0142,2,N,3.0
NS3,3.0,57.0,24.0,70.0,52.0,70,215.0,square3,j,0.1795,2,N,3.0
NS3,4.0,59.0,30.0,74.0,49.0,59,274.0,square1,f,0.0947,0,N,3.0
NS3,5.0,55.0,24.0,67.0,51.0,67,341.0,square3,j,0.0405,2,N,3.0
NS3,6.0,54.0,27.0,73.0,55.0,55,396.0,square4,r,0.1968,3,N,3.0
NS3,7.0,55.0,28.0,66.0,43.0,66,462.0,square3,j,0.0457,2,N,3.0
NS3,8.0,57.0,30.0,65.0,45.0,65,527.0,square3,j,0.2641,2,N,3.0
NS3,9.0,53.0,33.0,54.0,37.0,54,581.0,square3,j,0.1953,2,N,3.0
NS3,10.0,46.0,27.0,54.0,43.0,43,624.0,square4,r,0.3618,3,N,3.0
NS3,11.0,48.0,31.0,58.0,51.0,31,655.0,square2,i,0.1218,1,N,3.0
NS3,12.0,50.0,27.0,54.0,53.0,50,705.0,square1,f,0.0059,0,N,3.0
NS3,13.0,49.0,28.0,62.0,50.0,62,767.0,square3,j,0.1283,2,N,3.0
NS3,14.0,53.0,28.0,62.0,52.0,62,829.0,square3,j,0.1676,2,N,3.0
NS3,15.0,52.0,25.0,57.0,57.0,57,886.0,square3,j,0.0941,2,N,3.0
NS3,16.0,48.0,29.0,56.0,56.0,56,942.0,square3,j,0.0454,2,N,3.0
NS3,17.0,39.0,21.0,58.0,56.0,58,1000.0,square3,j,0.1561,2,N,3.0
NS3,18.0,40.0,23.0,58.0,60.0,58,1058.0,square3,j,0.128,2,N,3.0
NS3,19.0,40.0,26.0,63.0,58.0,63,1121.0,square3,j,0.1454,2,N,3.0
NS3,20.0,46.0,24.0,60.0,56.0,46,1167.0,square1,f,0.1664,0,N,3.0
NS3,21.0,42.0,27.0,61.0,55.0,61,1228.0,square3,j,0.0747,2,N,3.0
NS3,22.0,45.0,26.0,62.0,56.0,56,1284.0,square4,r,0.0172,3,N,3.0
NS3,23.0,39.0,21.0,64.0,60.0,21,1305.0,square2,i,0.0131,1,N,3.0
NS3,24.0,44.0,21.0,59.0,64.0,59,1364.0,square3,j,0.0774,2,N,3.0
NS3,25.0,44.0,22.0,58.0,65.0,58,1422.0,square3,j,0.0538,2,N,3.0
NS3,26.0,42.0,26.0,60.0,62.0,60,1482.0,square3,j,0.0396,2,N,3.0
NS3,27.0,38.0,18.0,55.0,67.0,55,1537.0,square3,j,0.289,2,N,3.0
NS3,28.0,41.0,23.0,56.0,60.0,56,1593.0,square3,j,0.062,2,N,3.0
NS3,29.0,38.0,16.0,52.0,66.0,52,1645.0,square3,j,0.2801,2,N,3.0
NS3,30.0,36.0,13.0,61.0,64.0,61,1706.0,square3,j,0.0578,2,N,3.0
NS3,31.0,42.0,13.0,54.0,63.0,54,1760.0,square3,j,0.1584,2,N,3.0
NS3,32.0,38.0,18.0,50.0,62.0,50,1810.0,square3,j,0.025,2,N,3.0
NS3,33.0,29.0,20.0,51.0,64.0,51,1861.0,square3,j,0.2148,2,N,3.0
NS3,34.0,32.0,21.0,45.0,63.0,45,1906.0,square3,j,0.1082,2,N,3.0
NS3,35.0,30.0,17.0,46.0,65.0,46,1952.0,square3,j,0.13,2,N,3.0
NS3,36.0,35.0,16.0,47.0,69.0,69,2021.0,square4,r,0.081,3,N,3.0
NS3,37.0,34.0,18.0,45.0,68.0,68,2089.0,square4,r,0.0059,3,N,3.0
NS3,38.0,40.0,14.0,50.0,74.0,74,2163.0,square4,r,0.0565,3,N,3.0
NS3,39.0,39.0,15.0,49.0,73.0,73,2236.0,square4,r,0.2721,3,N,3.0
NS3,40.0,42.0,15.0,51.0,74.0,74,2310.0,square4,r,0.2119,3,N,3.0
NS3,41.0,38.0,17.0,43.0,74.0,74,2384.0,square4,r,0.3803,3,N,3.0
NS3,42.0,36.0,16.0,46.0,74.0,74,2458.0,square4,r,0.1242,3,N,3.0
NS3,43.0,41.0,21.0,44.0,76.0,76,2534.0,square4,r,0.0006,3,N,3.0
NS3,44.0,41.0,26.0,35.0,70.0,70,2604.0,square4,r,0.2779,3,N,3.0
NS3,45.0,39.0,27.0,33.0,75.0,75,2679.0,square4,r,0.0006,3,N,3.0
NS3,46.0,45.0,25.0,38.0,77.0,77,2756.0,square4,r,0.114,3,N,3.0
NS3,47.0,41.0,20.0,34.0,76.0,76,2832.0,square4,r,0.0006,3,N,3.0
NS3,48.0,37.0,25.0,34.0,77.0,77,2909.0,square4,r,0.2934,3,N,3.0
NS3,49.0,41.0,18.0,40.0,78.0,78,2987.0,square4,r,0.2584,3,N,3.0
NS3,50.0,42.0,17.0,41.0,83.0,83,3070.0,square4,r,0.0289,3,N,3.0
NS3,51.0,53.0,18.0,39.0,83.0,83,3153.0,square4,r,0.5818,3,N,3.0
NS3,52.0,55.0,19.0,34.0,82.0,82,3235.0,square4,r,0.0808,3,N,3.0
NS3,53.0,52.0,17.0,39.0,77.0,77,3312.0,square4,r,0.4389,3,N,3.0
NS3,54.0,55.0,21.0,46.0,77.0,21,3333.0,square2,i,0.2651,1,N,3.0
NS3,55.0,48.0,21.0,49.0,75.0,48,3381.0,square1,f,0.1119,0,N,3.0
NS3,56.0,50.0,25.0,51.0,74.0,74,3455.0,square4,r,0.1307,3,N,3.0
NS3,57.0,54.0,23.0,46.0,66.0,46,3501.0,square3,j,0.1746,2,N,3.0
NS3,58.0,60.0,25.0,50.0,72.0,72,3573.0,square4,r,0.063,3,N,3.0
NS3,59.0,54.0,23.0,46.0,72.0,72,3645.0,square4,r,0.1428,3,N,3.0
NS3,60.0,51.0,26.0,50.0,72.0,72,3717.0,square4,r,0.3394,3,N,3.0
NS3,61.0,57.0,27.0,54.0,71.0,71,3788.0,square4,r,0.0027,3,N,3.0
NS3,62.0,51.0,27.0,54.0,64.0,64,3852.0,square4,r,0.0546,3,N,3.0
NS3,63.0,54.0,25.0,42.0,62.0,62,3914.0,square4,r,0.1454,3,N,3.0
NS3,64.0,54.0,25.0,47.0,62.0,62,3976.0,square4,r,0.2229,3,N,3.0
NS3,65.0,48.0,26.0,45.0,60.0,60,4036.0,square4,r,0.0095,3,N,3.0
NS3,66.0,49.0,22.0,47.0,60.0,60,4096.0,square4,r,0.1837,3,N,3.0
NS3,67.0,49.0,26.0,45.0,65.0,65,4161.0,square4,r,0.0505,3,N,3.0
NS3,68.0,54.0,26.0,47.0,67.0,67,4228.0,square4,r,0.1393,3,N,3.0
NS3,69.0,48.0,22.0,45.0,56.0,56,4284.0,square4,r,0.1486,3,N,3.0
NS3,70.0,55.0,26.0,48.0,61.0,61,4345.0,square4,r,0.1381,3,N,3.0
NS3,71.0,55.0,29.0,43.0,60.0,43,4388.0,square3,j,1.0829,2,N,3.0
NS3,72.0,56.0,30.0,43.0,51.0,51,4439.0,square4,r,0.1283,3,N,3.0
NS3,73.0,55.0,27.0,47.0,56.0,55,4494.0,square1,f,0.3786,0,N,3.0
NS3,74.0,63.0,26.0,44.0,55.0,26,4520.0,square2,i,0.0895,1,N,3.0
NS3,75.0,61.0,34.0,45.0,62.0,62,4582.0,square4,r,0.0126,3,N,3.0
NS3,76.0,55.0,28.0,45.0,62.0,62,4644.0,square4,r,0.1614,3,N,3.0
NS3,77.0,58.0,31.0,53.0,66.0,66,4710.0,square4,r,0.1117,3,N,3.0
NS3,78.0,55.0,29.0,51.0,60.0,60,4770.0,square4,r,0.0058,3,N,3.0
NS3,79.0,51.0,29.0,52.0,68.0,68,4838.0,square4,r,0.0718,3,N,3.0
NS3,80.0,55.0,31.0,48.0,59.0,59,4897.0,square4,r,0.164,3,N,3.0
NS3,81.0,56.0,38.0,56.0,64.0,64,4961.0,square4,r,0.0046,3,N,3.0
NS3,82.0,54.0,27.0,54.0,55.0,55,5016.0,square4,r,0.1051,3,N,3.0
NS3,83.0,62.0,30.0,49.0,58.0,58,5074.0,square4,r,0.0776,3,N,3.0
NS3,84.0,64.0,24.0,47.0,62.0,62,5136.0,square4,r,0.1176,3,N,3.0
NS3,85.0,65.0,23.0,54.0,63.0,63,5199.0,square4,r,0.1386,3,N,3.0
NS3,86.0,68.0,25.0,56.0,65.0,65,5264.0,square4,r,0.0006,3,N,3.0
NS3,87.0,65.0,22.0,55.0,60.0,60,5324.0,square4,r,0.0939,3,N,3.0
NS3,88.0,64.0,20.0,58.0,65.0,65,5389.0,square4,r,0.0455,3,N,3.0
NS3,89.0,68.0,13.0,62.0,64.0,64,5453.0,square4,r,0.0991,3,N,3.0
NS3,90.0,72.0,13.0,52.0,64.0,64,5517.0,square4,r,0.0415,3,N,3.0
NS3,91.0,67.0,20.0,52.0,69.0,69,5586.0,square4,r,1.1254,3,N,3.0
NS3,92.0,72.0,21.0,58.0,64.0,64,5650.0,square4,r,0.0869,3,N,3.0
NS3,93.0,73.0,16.0,54.0,67.0,67,5717.0,square4,r,0.1733,3,N,3.0
NS3,94.0,69.0,17.0,51.0,64.0,64,5781.0,square4,r,1.3067,3,N,3.0
NS3,95.0,62.0,19.0,60.0,62.0,62,5843.0,square4,r,0.0006,3,N,3.0
NS3,96.0,67.0,15.0,56.0,67.0,67,5910.0,square4,r,0.2117,3,N,3.0
NS3,97.0,61.0,17.0,58.0,62.0,62,5972.0,square4,r,0.0616,3,N,3.0
NS3,98.0,59.0,13.0,58.0,58.0,58,6030.0,square4,r,0.1409,3,N,3.0
NS3,99.0,62.0,15.0,51.0,60.0,60,6090.0,square4,r,0.0066,3,N,3.0
NS12,0.0,80.0,24.0,40.0,79.0,24,24.0,square2,r,0.5212,1,N,12.0
NS12,1.0,78.0,28.0,44.0,78.0,78,102.0,square4,f,0.141,3,N,12.0
NS12,2.0,77.0,28.0,37.0,82.0,77,179.0,square1,j,0.0034,0,N,12.0
NS12,3.0,76.0,33.0,39.0,82.0,39,218.0,square3,i,0.0467,2,N,12.0
NS12,4.0,79.0,37.0,34.0,78.0,78,296.0,square4,f,0.0006,3,N,12.0
NS12,5.0,83.0,33.0,28.0,81.0,83,379.0,square1,j,0.0777,0,N,12.0
NS12,6.0,77.0,39.0,33.0,80.0,80,459.0,square4,f,0.1429,3,N,12.0
NS12,7.0,77.0,40.0,25.0,85.0,77,536.0,square1,j,0.0838,0,N,12.0
NS12,8.0,77.0,40.0,29.0,87.0,87,623.0,square4,f,0.0457,3,N,12.0
NS12,9.0,70.0,42.0,29.0,88.0,70,693.0,square1,j,0.0375,0,N,12.0
NS12,10.0,65.0,47.0,31.0,86.0,86,779.0,square4,f,0.0048,3,N,12.0
NS12,11.0,67.0,46.0,26.0,84.0,84,863.0,square4,f,0.0064,3,N,12.0
NS12,12.0,67.0,36.0,26.0,84.0,84,947.0,square4,f,0.2313,3,N,12.0
NS12,13.0,69.0,33.0,23.0,82.0,69,1016.0,square1,j,0.0432,0,N,12.0
NS12,14.0,66.0,35.0,20.0,81.0,35,1051.0,square2,r,0.0275,1,N,12.0
NS12,15.0,66.0,30.0,23.0,78.0,23,1074.0,square3,i,0.1099,2,N,12.0
NS12,16.0,69.0,28.0,17.0,74.0,69,1143.0,square1,j,0.1652,0,N,12.0
NS12,17.0,66.0,32.0,20.0,78.0,78,1221.0,square4,f,0.1408,3,N,12.0
NS12,18.0,60.0,33.0,26.0,76.0,76,1297.0,square4,f,0.049,3,N,12.0
NS12,19.0,63.0,37.0,23.0,76.0,76,1373.0,square4,f,0.1447,3,N,12.0
NS12,20.0,59.0,36.0,24.0,78.0,78,1451.0,square4,f,0.0345,3,N,12.0
NS12,21.0,59.0,35.0,25.0,79.0,79,1530.0,square4,f,0.0045,3,N,12.0
NS12,22.0,61.0,37.0,26.0,88.0,88,1618.0,square4,f,0.042,3,N,12.0
NS12,23.0,61.0,37.0,25.0,83.0,83,1701.0,square4,f,0.1467,3,N,12.0
NS12,24.0,61.0,39.0,26.0,85.0,85,1786.0,square4,f,0.1432,3,N,12.0
NS12,25.0,63.0,30.0,29.0,77.0,77,1863.0,square4,f,0.1274,3,N,12.0
NS12,26.0,58.0,39.0,29.0,83.0,58,1921.0,square1,j,0.0718,0,N,12.0
NS12,27.0,60.0,34.0,32.0,85.0,85,2006.0,square4,f,0.2244,3,N,12.0
NS12,28.0,63.0,32.0,35.0,77.0,77,2083.0,square4,f,0.1073,3,N,12.0
NS12,29.0,61.0,35.0,23.0,79.0,79,2162.0,square4,f,0.0445,3,N,12.0
NS12,30.0,57.0,27.0,30.0,69.0,69,2231.0,square4,f,0.5928,3,N,12.0
NS12,31.0,64.0,29.0,26.0,69.0,69,2300.0,square4,f,0.1138,3,N,12.0
NS12,32.0,65.0,29.0,33.0,69.0,69,2369.0,square4,f,0.3607,3,N,12.0
NS12,33.0,68.0,29.0,33.0,73.0,29,2398.0,square2,r,0.0645,1,N,12.0
NS12,34.0,69.0,29.0,29.0,67.0,67,2465.0,square4,f,0.0742,3,N,12.0
NS12,35.0,66.0,32.0,30.0,61.0,61,2526.0,square4,f,0.0476,3,N,12.0
NS12,36.0,64.0,27.0,26.0,58.0,26,2552.0,square3,i,0.2414,2,N,12.0
NS12,37.0,65.0,32.0,27.0,67.0,65,2617.0,square1,j,0.5993,0,N,12.0
NS12,38.0,63.0,32.0,30.0,64.0,64,2681.0,square4,f,0.1111,3,N,12.0
NS12,39.0,65.0,30.0,30.0,70.0,65,2746.0,square1,j,0.1595,0,N,12.0
NS12,40.0,71.0,37.0,32.0,69.0,69,2815.0,square4,f,0.1782,3,N,12.0
NS12,41.0,66.0,45.0,37.0,69.0,66,2881.0,square1,j,0.0123,0,N,12.0
NS12,42.0,75.0,42.0,35.0,65.0,65,2946.0,square4,f,0.2801,3,N,12.0
NS12,43.0,82.0,39.0,35.0,57.0,57,3003.0,square4,f,0.0004,3,N,12.0
NS12,44.0,81.0,34.0,34.0,61.0,81,3084.0,square1,j,0.2468,0,N,12.0
NS12,45.0,74.0,33.0,36.0,59.0,74,3158.0,square1,j,0.1763,0,N,12.0
NS12,46.0,77.0,32.0,40.0,57.0,77,3235.0,square1,j,0.0275,0,N,12.0
NS12,47.0,79.0,32.0,39.0,60.0,79,3314.0,square1,j,0.0488,0,N,12.0
NS12,48.0,80.0,28.0,34.0,62.0,80,3394.0,square1,j,0.078,0,N,12.0
NS12,49.0,76.0,23.0,37.0,64.0,76,3470.0,square1,j,0.0671,0,N,12.0
NS12,50.0,75.0,25.0,37.0,65.0,75,3545.0,square1,j,0.0722,0,N,12.0
NS12,51.0,74.0,25.0,39.0,70.0,74,3619.0,square1,j,0.0816,0,N,12.0
NS12,52.0,79.0,26.0,40.0,73.0,79,3698.0,square1,j,0.2401,0,N,12.0
NS12,53.0,75.0,25.0,33.0,69.0,75,3773.0,square1,j,0.0779,0,N,12.0
NS12,54.0,79.0,25.0,38.0,68.0,79,3852.0,square1,j,0.0615,0,N,12.0
NS12,55.0,81.0,22.0,34.0,68.0,68,3920.0,square4,f,0.0614,3,N,12.0
NS12,56.0,72.0,29.0,39.0,69.0,72,3992.0,square1,j,0.1104,0,N,12.0
NS12,57.0,72.0,28.0,38.0,73.0,72,4064.0,square1,j,0.165,0,N,12.0
NS12,58.0,69.0,25.0,32.0,71.0,69,4133.0,square1,j,0.1438,0,N,12.0
NS12,59.0,75.0,30.0,33.0,69.0,75,4208.0,square1,j,0.0451,0,N,12.0
NS12,60.0,68.0,28.0,39.0,68.0,68,4276.0,square1,j,0.0181,0,N,12.0
NS12,61.0,69.0,32.0,37.0,60.0,69,4345.0,square1,j,0.0816,0,N,12.0
NS12,62.0,63.0,37.0,39.0,55.0,63,4408.0,square1,j,0.0116,0,N,12.0
NS12,63.0,63.0,38.0,43.0,54.0,54,4462.0,square4,f,0.3071,3,N,12.0
NS12,64.0,60.0,30.0,35.0,55.0,60,4522.0,square1,j,0.0269,0,N,12.0
NS12,65.0,60.0,37.0,34.0,55.0,34,4556.0,square3,i,0.8292,2,N,12.0
NS12,66.0,61.0,40.0,35.0,51.0,40,4596.0,square2,r,0.1459,1,N,12.0
NS12,67.0,65.0,37.0,35.0,53.0,65,4661.0,square1,j,0.0278,0,N,12.0
NS12,68.0,62.0,33.0,38.0,50.0,62,4723.0,square1,j,0.0768,0,N,12.0
NS12,69.0,56.0,41.0,29.0,54.0,56,4779.0,square1,j,0.0513,0,N,12.0
NS12,70.0,56.0,39.0,30.0,57.0,56,4835.0,square1,j,0.0766,0,N,12.0
NS12,71.0,61.0,40.0,33.0,64.0,61,4896.0,square1,j,0.1245,0,N,12.0
NS12,72.0,51.0,42.0,35.0,67.0,67,4963.0,square4,f,0.0655,3,N,12.0
NS12,73.0,56.0,39.0,39.0,67.0,67,5030.0,square4,f,0.1586,3,N,12.0
NS12,74.0,50.0,38.0,40.0,63.0,63,5093.0,square4,f,0.0314,3,N,12.0
NS12,75.0,52.0,37.0,41.0,67.0,67,5160.0,square4,f,0.0404,3,N,12.0
NS12,76.0,47.0,40.0,46.0,67.0,47,5207.0,square1,j,0.107,0,N,12.0
NS12,77.0,45.0,35.0,47.0,67.0,67,5274.0,square4,f,0.1777,3,N,12.0
NS12,78.0,44.0,38.0,52.0,66.0,66,5340.0,square4,f,0.1425,3,N,12.0
NS12,79.0,41.0,38.0,52.0,64.0,64,5404.0,square4,f,0.0005,3,N,12.0
NS12,80.0,36.0,41.0,57.0,58.0,58,5462.0,square4,f,0.3499,3,N,12.0
NS12,81.0,36.0,42.0,66.0,63.0,63,5525.0,square4,f,0.1486,3,N,12.0
NS12,82.0,35.0,44.0,65.0,62.0,62,5587.0,square4,f,0.5616,3,N,12.0
NS12,83.0,37.0,42.0,70.0,65.0,65,5652.0,square4,f,0.1323,3,N,12.0
NS12,84.0,35.0,39.0,72.0,58.0,35,5687.0,square1,j,0.0577,0,N,12.0
NS12,85.0,30.0,40.0,62.0,55.0,55,5742.0,square4,f,0.191,3,N,12.0
NS12,86.0,36.0,40.0,65.0,59.0,59,5801.0,square4,f,0.0992,3,N,12.0
NS12,87.0,31.0,41.0,67.0,57.0,57,5858.0,square4,f,0.5958,3,N,12.0
NS12,88.0,30.0,50.0,67.0,52.0,52,5910.0,square4,f,0.1734,3,N,12.0
NS12,89.0,28.0,41.0,69.0,54.0,28,5938.0,square1,j,0.082,0,N,12.0
NS12,90.0,29.0,41.0,61.0,57.0,57,5995.0,square4,f,0.0112,3,N,12.0
NS12,91.0,30.0,36.0,59.0,54.0,59,6054.0,square3,i,0.0898,2,N,12.0
NS12,92.0,28.0,29.0,60.0,54.0,29,6083.0,square2,r,0.0576,1,N,12.0
NS12,93.0,30.0,35.0,62.0,52.0,62,6145.0,square3,i,0.2111,2,N,12.0
NS12,94.0,30.0,36.0,60.0,56.0,56,6201.0,square4,f,0.1419,3,N,12.0
NS12,95.0,29.0,33.0,63.0,60.0,63,6264.0,square3,i,0.094,2,N,12.0
NS12,96.0,29.0,30.0,59.0,59.0,59,6323.0,square3,i,0.0442,2,N,12.0
NS12,97.0,31.0,35.0,61.0,61.0,61,6384.0,square3,i,0.0915,2,N,12.0
NS12,98.0,31.0,40.0,67.0,58.0,67,6451.0,square3,i,0.0078,2,N,12.0
NS12,99.0,33.0,37.0,65.0,67.0,65,6516.0,square3,i,0.308,2,N,12.0
NS8,0.0,61.0,62.0,34.0,32.0,62,62.0,square2,i,0.5703,1,N,8.0
NS8,1.0,57.0,56.0,38.0,27.0,27,89.0,square4,j,0.1155,3,N,8.0
NS8,2.0,66.0,55.0,42.0,28.0,55,144.0,square2,i,0.0727,1,N,8.0
NS8,3.0,67.0,51.0,37.0,28.0,67,211.0,square1,r,0.1867,0,N,8.0
NS8,4.0,65.0,53.0,38.0,32.0,38,249.0,square3,f,0.0913,2,N,8.0
NS8,5.0,67.0,52.0,43.0,33.0,67,316.0,square1,r,0.1276,0,N,8.0
NS8,6.0,56.0,47.0,41.0,36.0,56,372.0,square1,r,0.0958,0,N,8.0
NS8,7.0,58.0,46.0,37.0,31.0,58,430.0,square1,r,0.1235,0,N,8.0
NS8,8.0,60.0,58.0,36.0,35.0,58,488.0,square2,i,0.131,1,N,8.0
NS8,9.0,60.0,66.0,41.0,39.0,60,548.0,square1,r,0.1069,0,N,8.0
NS8,10.0,60.0,60.0,36.0,33.0,60,608.0,square1,r,0.1343,0,N,8.0
NS8,11.0,53.0,63.0,32.0,35.0,63,671.0,square2,i,0.0598,1,N,8.0
NS8,12.0,51.0,60.0,32.0,29.0,51,722.0,square1,r,0.0726,0,N,8.0
NS8,13.0,53.0,65.0,30.0,32.0,65,787.0,square2,i,0.0448,1,N,8.0
NS8,14.0,56.0,69.0,25.0,33.0,69,856.0,square2,i,0.1166,1,N,8.0
NS8,15.0,57.0,71.0,29.0,35.0,71,927.0,square2,i,0.0727,1,N,8.0
NS8,16.0,55.0,64.0,31.0,33.0,64,991.0,square2,i,0.0961,1,N,8.0
NS8,17.0,48.0,65.0,29.0,32.0,32,1023.0,square4,j,0.0649,3,N,8.0
NS8,18.0,44.0,64.0,28.0,34.0,28,1051.0,square3,f,0.0795,2,N,8.0
NS8,19.0,46.0,60.0,26.0,33.0,60,1111.0,square2,i,0.1328,1,N,8.0
NS8,20.0,41.0,58.0,29.0,35.0,58,1169.0,square2,i,0.1117,1,N,8.0
NS8,21.0,45.0,57.0,29.0,35.0,57,1226.0,square2,i,0.2743,1,N,8.0
NS8,22.0,47.0,53.0,32.0,32.0,53,1279.0,square2,i,0.1329,1,N,8.0
NS8,23.0,49.0,52.0,33.0,35.0,52,1331.0,square2,i,0.1209,1,N,8.0
NS8,24.0,56.0,53.0,30.0,37.0,56,1387.0,square1,r,0.0056,0,N,8.0
NS8,25.0,57.0,48.0,28.0,42.0,57,1444.0,square1,r,0.0299,0,N,8.0
NS8,26.0,52.0,48.0,33.0,43.0,52,1496.0,square1,r,0.0568,0,N,8.0
NS8,27.0,53.0,45.0,28.0,47.0,45,1541.0,square2,i,0.6278,1,N,8.0
NS8,28.0,50.0,43.0,27.0,41.0,50,1591.0,square1,r,0.0211,0,N,8.0
NS8,29.0,53.0,52.0,29.0,43.0,29,1620.0,square3,f,0.106,2,N,8.0
NS8,30.0,54.0,51.0,30.0,41.0,41,1661.0,square4,j,0.0792,3,N,8.0
NS8,31.0,50.0,50.0,31.0,42.0,50,1711.0,square1,r,0.1414,0,N,8.0
NS8,32.0,50.0,50.0,35.0,43.0,50,1761.0,square1,r,0.1097,0,N,8.0
NS8,33.0,46.0,48.0,39.0,41.0,46,1807.0,square1,r,0.2779,0,N,8.0
NS8,34.0,47.0,46.0,41.0,40.0,47,1854.0,square1,r,0.1648,0,N,8.0
NS8,35.0,57.0,45.0,36.0,37.0,45,1899.0,square2,i,0.0582,1,N,8.0
NS8,36.0,53.0,49.0,41.0,38.0,53,1952.0,square1,r,0.1766,0,N,8.0
NS8,37.0,57.0,50.0,41.0,39.0,57,2009.0,square1,r,0.1411,0,N,8.0
NS8,38.0,61.0,51.0,39.0,43.0,61,2070.0,square1,r,0.0771,0,N,8.0
NS8,39.0,59.0,54.0,41.0,36.0,59,2129.0,square1,r,0.1395,0,N,8.0
NS8,40.0,53.0,55.0,47.0,40.0,55,2184.0,square2,i,0.123,1,N,8.0
NS8,41.0,53.0,55.0,43.0,39.0,53,2237.0,square1,r,0.2084,0,N,8.0
NS8,42.0,59.0,55.0,45.0,40.0,59,2296.0,square1,r,0.1612,0,N,8.0
NS8,43.0,54.0,46.0,51.0,37.0,46,2342.0,square2,i,0.0803,1,N,8.0
NS8,44.0,56.0,44.0,50.0,35.0,56,2398.0,square1,r,0.1258,0,N,8.0
NS8,45.0,51.0,46.0,41.0,37.0,51,2449.0,square1,r,0.1875,0,N,8.0
NS8,46.0,52.0,43.0,44.0,34.0,34,2483.0,square4,j,0.0081,3,N,8.0
NS8,47.0,46.0,41.0,36.0,37.0,36,2519.0,square3,f,0.0907,2,N,8.0
NS8,48.0,47.0,46.0,39.0,37.0,47,2566.0,square1,r,0.0925,0,N,8.0
NS8,49.0,48.0,36.0,38.0,40.0,48,2614.0,square1,r,0.0954,0,N,8.0
NS8,50.0,51.0,37.0,36.0,46.0,37,2651.0,square2,i,0.0555,1,N,8.0
NS8,51.0,53.0,38.0,40.0,43.0,53,2704.0,square1,r,0.2281,0,N,8.0
NS8,52.0,47.0,32.0,37.0,44.0,47,2751.0,square1,r,0.2052,0,N,8.0
NS8,53.0,52.0,31.0,38.0,46.0,52,2803.0,square1,r,0.1921,0,N,8.0
NS8,54.0,44.0,34.0,40.0,45.0,44,2847.0,square1,r,0.1549,0,N,8.0
NS8,55.0,46.0,26.0,37.0,41.0,26,2873.0,square2,i,0.0295,1,N,8.0
NS8,56.0,42.0,29.0,36.0,40.0,42,2915.0,square1,r,0.1431,0,N,8.0
NS8,57.0,39.0,21.0,39.0,40.0,39,2954.0,square1,r,0.1238,0,N,8.0
NS8,58.0,42.0,18.0,39.0,40.0,40,2994.0,square4,j,0.1442,3,N,8.0
NS8,59.0,46.0,16.0,41.0,39.0,41,3035.0,square3,f,0.0608,2,N,8.0
NS8,60.0,45.0,20.0,40.0,39.0,45,3080.0,square1,r,0.4139,0,N,8.0
NS8,61.0,45.0,26.0,42.0,39.0,45,3125.0,square1,r,0.1636,0,N,8.0
NS8,62.0,46.0,21.0,45.0,37.0,37,3162.0,square4,j,0.1274,3,N,8.0
NS8,63.0,50.0,23.0,40.0,38.0,40,3202.0,square3,f,0.1961,2,N,8.0
NS8,64.0,46.0,24.0,41.0,33.0,46,3248.0,square1,r,0.0448,0,N,8.0
NS8,65.0,48.0,28.0,42.0,32.0,28,3276.0,square2,i,0.0057,1,N,8.0
NS8,66.0,47.0,20.0,40.0,35.0,47,3323.0,square1,r,0.0631,0,N,8.0
NS8,67.0,49.0,25.0,46.0,34.0,49,3372.0,square1,r,0.0114,0,N,8.0
NS8,68.0,47.0,24.0,45.0,33.0,47,3419.0,square1,r,0.0733,0,N,8.0
NS8,69.0,45.0,21.0,47.0,35.0,47,3466.0,square3,f,0.0281,2,N,8.0
NS8,70.0,44.0,21.0,47.0,37.0,44,3510.0,square1,r,0.1477,0,N,8.0
NS8,71.0,44.0,15.0,41.0,38.0,41,3551.0,square3,f,0.1118,2,N,8.0
NS8,72.0,47.0,19.0,49.0,40.0,47,3598.0,square1,r,0.1453,0,N,8.0
NS8,73.0,39.0,21.0,53.0,38.0,39,3637.0,square1,r,0.0612,0,N,8.0
NS8,74.0,42.0,19.0,53.0,35.0,35,3672.0,square4,j,0.0988,3,N,8.0
NS8,75.0,37.0,18.0,43.0,35.0,37,3709.0,square1,r,0.1073,0,N,8.0
NS8,76.0,35.0,14.0,42.0,38.0,35,3744.0,square1,r,0.0938,0,N,8.0
NS8,77.0,38.0,19.0,47.0,44.0,19,3763.0,square2,i,0.032,1,N,8.0
NS8,78.0,38.0,18.0,50.0,46.0,50,3813.0,square3,f,0.0006,2,N,8.0
NS8,79.0,33.0,22.0,54.0,44.0,33,3846.0,square1,r,0.0585,0,N,8.0
NS8,80.0,38.0,21.0,56.0,52.0,56,3902.0,square3,f,0.1617,2,N,8.0
NS8,81.0,37.0,22.0,56.0,43.0,56,3958.0,square3,f,0.1452,2,N,8.0
NS8,82.0,30.0,26.0,60.0,42.0,60,4018.0,square3,f,0.1752,2,N,8.0
NS8,83.0,38.0,22.0,54.0,46.0,54,4072.0,square3,f,0.0376,2,N,8.0
NS8,84.0,33.0,18.0,52.0,46.0,52,4124.0,square3,f,0.0423,2,N,8.0
NS8,85.0,42.0,12.0,57.0,48.0,42,4166.0,square1,r,0.063,0,N,8.0
NS8,86.0,45.0,19.0,58.0,42.0,58,4224.0,square3,f,0.0005,2,N,8.0
NS8,87.0,46.0,10.0,65.0,44.0,44,4268.0,square4,j,0.0255,3,N,8.0
NS8,88.0,45.0,11.0,59.0,45.0,59,4327.0,square3,f,0.0728,2,N,8.0
NS8,89.0,42.0,11.0,60.0,47.0,60,4387.0,square3,f,0.059,2,N,8.0
NS8,90.0,40.0,7.0,64.0,49.0,64,4451.0,square3,f,0.1114,2,N,8.0
NS8,91.0,42.0,11.0,64.0,48.0,64,4515.0,square3,f,0.306,2,N,8.0
NS8,92.0,43.0,13.0,60.0,43.0,60,4575.0,square3,f,0.1744,2,N,8.0
NS8,93.0,44.0,12.0,64.0,45.0,64,4639.0,square3,f,0.1897,2,N,8.0
NS8,94.0,45.0,16.0,65.0,49.0,65,4704.0,square3,f,0.1654,2,N,8.0
NS8,95.0,45.0,24.0,66.0,42.0,66,4770.0,square3,f,0.3297,2,N,8.0
NS8,96.0,53.0,27.0,67.0,44.0,67,4837.0,square3,f,0.0767,2,N,8.0
NS8,97.0,50.0,29.0,68.0,43.0,68,4905.0,square3,f,0.1617,2,N,8.0
NS8,98.0,52.0,29.0,66.0,37.0,66,4971.0,square3,f,0.139,2,N,8.0
NS8,99.0,53.0,32.0,65.0,37.0,65,5036.0,square3,f,0.0754,2,N,8.0
