block,Trial,square1,square2,square3,square4,currPoints,totalPoints,square,choiceKey.keys,choiceKey.rt,armNum,blockType,blockNum
prac,0.0,100.0,0.0,0.0,0.0,100,100.0,square1,,,0,p,0.0
prac,1.0,100.0,0.0,0.0,0.0,0,100.0,square3,,,2,p,0.0
prac,2.0,100.0,0.0,0.0,0.0,100,200.0,square1,,,0,p,0.0
prac,3.0,100.0,0.0,0.0,0.0,100,300.0,square1,,,0,p,0.0
prac,4.0,100.0,0.0,0.0,0.0,100,400.0,square1,,,0,p,0.0
prac,5.0,100.0,0.0,0.0,0.0,100,500.0,square1,,,0,p,0.0
prac,6.0,100.0,0.0,0.0,0.0,100,600.0,square1,,,0,p,0.0
prac,7.0,100.0,0.0,0.0,0.0,100,700.0,square1,,,0,p,0.0
prac,8.0,100.0,0.0,0.0,0.0,100,800.0,square1,,,0,p,0.0
prac,9.0,100.0,0.0,0.0,0.0,100,900.0,square1,,,0,p,0.0
V8,0.0,49.0,55.0,64.0,74.0,55,55.0,square2,r,0.3567,1,V,8.0
V8,1.0,51.0,54.0,70.0,81.0,70,125.0,square3,f,0.0876,2,V,8.0
V8,2.0,46.0,62.0,70.0,77.0,70,195.0,square3,f,0.2377,2,V,8.0
V8,3.0,46.0,56.0,67.0,75.0,67,262.0,square3,f,0.1984,2,V,8.0
V8,4.0,50.0,59.0,67.0,83.0,50,312.0,square1,j,0.1735,0,V,8.0
V8,5.0,51.0,54.0,65.0,78.0,78,390.0,square4,i,0.1932,3,V,8.0
V8,6.0,45.0,57.0,66.0,80.0,57,447.0,square2,r,0.2325,1,V,8.0
V8,7.0,46.0,64.0,68.0,77.0,46,493.0,square1,j,0.1436,0,V,8.0
V8,8.0,50.0,57.0,66.0,73.0,66,559.0,square3,f,0.1875,2,V,8.0
V8,9.0,46.0,56.0,71.0,72.0,72,631.0,square4,i,0.0947,3,V,8.0
V8,10.0,56.0,58.0,67.0,75.0,58,689.0,square2,r,0.1909,1,V,8.0
V8,11.0,50.0,61.0,69.0,74.0,61,750.0,square2,r,0.205,1,V,8.0
V8,12.0,59.0,59.0,69.0,77.0,59,809.0,square2,r,0.0397,1,V,8.0
V8,13.0,50.0,56.0,72.0,77.0,72,881.0,square3,f,0.1249,2,V,8.0
V8,14.0,48.0,55.0,65.0,80.0,80,961.0,square4,i,0.3765,3,V,8.0
V8,15.0,48.0,58.0,65.0,76.0,48,1009.0,square1,j,0.2896,0,V,8.0
V8,16.0,49.0,58.0,67.0,75.0,67,1076.0,square3,f,0.2415,2,V,8.0
V8,17.0,51.0,56.0,68.0,76.0,76,1152.0,square4,i,0.0294,3,V,8.0
V8,18.0,52.0,63.0,69.0,80.0,69,1221.0,square3,f,0.2239,2,V,8.0
V8,19.0,54.0,54.0,71.0,79.0,79,1300.0,square4,i,0.1322,3,V,8.0
V8,20.0,48.0,53.0,62.0,77.0,62,1362.0,square3,f,0.2081,2,V,8.0
V8,21.0,44.0,61.0,66.0,77.0,61,1423.0,square2,r,0.1357,1,V,8.0
V8,22.0,52.0,58.0,64.0,78.0,64,1487.0,square3,f,0.1502,2,V,8.0
V8,23.0,50.0,49.0,67.0,79.0,79,1566.0,square4,i,0.0212,3,V,8.0
V8,24.0,49.0,59.0,69.0,74.0,69,1635.0,square3,f,0.151,2,V,8.0
V8,25.0,46.0,61.0,65.0,81.0,81,1716.0,square4,i,0.1497,3,V,8.0
V8,26.0,49.0,58.0,63.0,35.0,63,1779.0,square3,f,0.1172,2,V,8.0
V8,27.0,48.0,51.0,66.0,41.0,41,1820.0,square4,i,0.0635,3,V,8.0
V8,28.0,46.0,55.0,65.0,38.0,55,1875.0,square2,r,0.101,1,V,8.0
V8,29.0,47.0,58.0,69.0,40.0,47,1922.0,square1,j,0.0208,0,V,8.0
V8,30.0,42.0,55.0,67.0,43.0,67,1989.0,square3,f,0.1507,2,V,8.0
V8,31.0,49.0,56.0,64.0,36.0,36,2025.0,square4,i,0.0916,3,V,8.0
V8,32.0,49.0,55.0,69.0,38.0,69,2094.0,square3,f,0.1103,2,V,8.0
V8,33.0,44.0,52.0,65.0,48.0,48,2142.0,square4,i,0.0059,3,V,8.0
V8,34.0,44.0,57.0,70.0,45.0,57,2199.0,square2,r,0.1858,1,V,8.0
V8,35.0,44.0,54.0,68.0,38.0,44,2243.0,square1,j,0.3465,0,V,8.0
V8,36.0,45.0,56.0,64.0,40.0,64,2307.0,square3,f,0.0423,2,V,8.0
V8,37.0,47.0,57.0,66.0,37.0,37,2344.0,square4,i,0.1627,3,V,8.0
V8,38.0,49.0,50.0,66.0,37.0,66,2410.0,square3,f,0.1821,2,V,8.0
V8,39.0,51.0,56.0,61.0,39.0,56,2466.0,square2,r,0.057,1,V,8.0
V8,40.0,47.0,59.0,66.0,41.0,66,2532.0,square3,f,0.5157,2,V,8.0
V8,41.0,42.0,56.0,69.0,42.0,56,2588.0,square2,r,0.1811,1,V,8.0
V8,42.0,47.0,57.0,72.0,35.0,72,2660.0,square3,f,0.6982,2,V,8.0
V8,43.0,47.0,57.0,63.0,44.0,44,2704.0,square4,i,0.3753,3,V,8.0
V8,44.0,45.0,58.0,67.0,42.0,45,2749.0,square1,j,0.1155,0,V,8.0
V8,45.0,44.0,56.0,66.0,43.0,66,2815.0,square3,f,0.1216,2,V,8.0
V8,46.0,46.0,53.0,70.0,37.0,70,2885.0,square3,f,0.0296,2,V,8.0
V8,47.0,54.0,53.0,71.0,41.0,71,2956.0,square3,f,0.0476,2,V,8.0
V8,48.0,49.0,53.0,69.0,37.0,69,3025.0,square3,f,0.0248,2,V,8.0
V8,49.0,39.0,57.0,65.0,47.0,65,3090.0,square3,f,0.4067,2,V,8.0
V8,50.0,48.0,55.0,65.0,41.0,65,3155.0,square3,f,0.3182,2,V,8.0
V8,51.0,45.0,61.0,68.0,43.0,68,3223.0,square3,f,0.5899,2,V,8.0
V8,52.0,53.0,52.0,68.0,37.0,68,3291.0,square3,f,0.1452,2,V,8.0
V8,53.0,47.0,55.0,66.0,46.0,66,3357.0,square3,f,0.0018,2,V,8.0
V8,54.0,49.0,53.0,61.0,39.0,61,3418.0,square3,f,0.1514,2,V,8.0
V8,55.0,53.0,70.0,55.0,72.0,55,3473.0,square3,f,0.1197,2,V,8.0
V8,56.0,57.0,63.0,48.0,73.0,63,3536.0,square2,r,0.0349,1,V,8.0
V8,57.0,53.0,71.0,45.0,80.0,71,3607.0,square2,r,0.1119,1,V,8.0
V8,58.0,57.0,69.0,52.0,73.0,69,3676.0,square2,r,0.008,1,V,8.0
V8,59.0,58.0,67.0,54.0,73.0,67,3743.0,square2,r,0.0297,1,V,8.0
V8,60.0,55.0,66.0,47.0,76.0,66,3809.0,square2,r,0.2211,1,V,8.0
V8,61.0,56.0,65.0,54.0,72.0,65,3874.0,square2,r,0.1383,1,V,8.0
V8,62.0,56.0,65.0,49.0,75.0,75,3949.0,square4,i,0.0091,3,V,8.0
V8,63.0,61.0,65.0,44.0,78.0,78,4027.0,square4,i,0.0948,3,V,8.0
V8,64.0,54.0,66.0,48.0,75.0,75,4102.0,square4,i,0.1348,3,V,8.0
V8,65.0,59.0,65.0,46.0,79.0,59,4161.0,square1,j,0.091,0,V,8.0
V8,66.0,51.0,62.0,46.0,73.0,73,4234.0,square4,i,0.1962,3,V,8.0
V8,67.0,60.0,70.0,45.0,76.0,76,4310.0,square4,i,0.1276,3,V,8.0
V8,68.0,63.0,64.0,47.0,73.0,73,4383.0,square4,i,0.171,3,V,8.0
V8,69.0,58.0,66.0,43.0,77.0,77,4460.0,square4,i,0.0351,3,V,8.0
V8,70.0,59.0,65.0,49.0,73.0,73,4533.0,square4,i,0.0062,3,V,8.0
V8,71.0,60.0,64.0,49.0,79.0,79,4612.0,square4,i,0.0979,3,V,8.0
V8,72.0,96.0,68.0,78.0,67.0,68,4680.0,square2,r,0.0374,1,V,8.0
V8,73.0,96.0,68.0,79.0,64.0,64,4744.0,square4,i,0.1012,3,V,8.0
V8,74.0,92.0,67.0,81.0,62.0,81,4825.0,square3,f,0.1223,2,V,8.0
V8,75.0,96.0,72.0,83.0,62.0,83,4908.0,square3,f,0.0852,2,V,8.0
V8,76.0,94.0,70.0,77.0,57.0,77,4985.0,square3,f,0.1089,2,V,8.0
V8,77.0,91.0,68.0,81.0,59.0,91,5076.0,square1,j,0.0843,0,V,8.0
V8,78.0,90.0,73.0,80.0,63.0,90,5166.0,square1,j,0.1458,0,V,8.0
V8,79.0,90.0,73.0,83.0,61.0,90,5256.0,square1,j,0.5277,0,V,8.0
V8,80.0,95.0,75.0,81.0,66.0,95,5351.0,square1,j,0.2012,0,V,8.0
V8,81.0,92.0,72.0,81.0,57.0,92,5443.0,square1,j,0.112,0,V,8.0
V8,82.0,91.0,71.0,80.0,61.0,91,5534.0,square1,j,0.0699,0,V,8.0
V8,83.0,90.0,66.0,83.0,62.0,90,5624.0,square1,j,0.1219,0,V,8.0
V8,84.0,93.0,67.0,87.0,65.0,93,5717.0,square1,j,0.2118,0,V,8.0
V8,85.0,85.0,70.0,80.0,62.0,85,5802.0,square1,j,0.1264,0,V,8.0
V8,86.0,84.0,72.0,85.0,62.0,84,5886.0,square1,j,0.1987,0,V,8.0
V8,87.0,91.0,68.0,82.0,65.0,91,5977.0,square1,j,0.1446,0,V,8.0
V8,88.0,93.0,67.0,83.0,61.0,93,6070.0,square1,j,0.002,0,V,8.0
V8,89.0,95.0,68.0,78.0,66.0,95,6165.0,square1,j,0.078,0,V,8.0
V8,90.0,91.0,73.0,80.0,60.0,91,6256.0,square1,j,0.1259,0,V,8.0
V8,91.0,93.0,68.0,81.0,64.0,93,6349.0,square1,j,0.0333,0,V,8.0
V8,92.0,90.0,75.0,82.0,67.0,90,6439.0,square1,j,0.1062,0,V,8.0
V8,93.0,92.0,70.0,82.0,66.0,70,6509.0,square2,r,0.0021,1,V,8.0
V8,94.0,90.0,71.0,78.0,63.0,78,6587.0,square3,f,0.0353,2,V,8.0
V8,95.0,88.0,65.0,78.0,63.0,63,6650.0,square4,i,0.0069,3,V,8.0
V8,96.0,89.0,72.0,85.0,62.0,89,6739.0,square1,j,0.176,0,V,8.0
V8,97.0,92.0,72.0,77.0,67.0,92,6831.0,square1,j,0.0785,0,V,8.0
V8,98.0,86.0,63.0,82.0,62.0,86,6917.0,square1,j,0.0468,0,V,8.0
V8,99.0,90.0,66.0,75.0,61.0,90,7007.0,square1,j,0.2509,0,V,8.0
V7,0.0,86.0,61.0,78.0,68.0,78,78.0,square3,r,0.5689,2,V,7.0
V7,1.0,95.0,62.0,79.0,70.0,70,148.0,square4,f,0.002,3,V,7.0
V7,2.0,89.0,67.0,81.0,77.0,89,237.0,square1,i,0.0925,0,V,7.0
V7,3.0,90.0,56.0,85.0,72.0,56,293.0,square2,j,0.0864,1,V,7.0
V7,4.0,91.0,65.0,77.0,71.0,91,384.0,square1,i,0.0648,0,V,7.0
V7,5.0,91.0,58.0,84.0,72.0,91,475.0,square1,i,0.1073,0,V,7.0
V7,6.0,94.0,65.0,87.0,72.0,94,569.0,square1,i,0.0089,0,V,7.0
V7,7.0,89.0,67.0,79.0,67.0,89,658.0,square1,i,0.1498,0,V,7.0
V7,8.0,91.0,65.0,84.0,68.0,91,749.0,square1,i,0.1034,0,V,7.0
V7,9.0,92.0,60.0,87.0,69.0,92,841.0,square1,i,0.0769,0,V,7.0
V7,10.0,90.0,67.0,81.0,76.0,90,931.0,square1,i,0.14,0,V,7.0
V7,11.0,86.0,67.0,83.0,73.0,86,1017.0,square1,i,0.0019,0,V,7.0
V7,12.0,90.0,62.0,80.0,72.0,90,1107.0,square1,i,0.1789,0,V,7.0
V7,13.0,84.0,60.0,88.0,71.0,84,1191.0,square1,i,0.002,0,V,7.0
V7,14.0,95.0,64.0,80.0,70.0,95,1286.0,square1,i,0.0475,0,V,7.0
V7,15.0,86.0,60.0,81.0,70.0,86,1372.0,square1,i,0.1197,0,V,7.0
V7,16.0,85.0,65.0,77.0,69.0,85,1457.0,square1,i,0.0689,0,V,7.0
V7,17.0,91.0,65.0,81.0,70.0,91,1548.0,square1,i,0.3559,0,V,7.0
V7,18.0,95.0,61.0,81.0,76.0,95,1643.0,square1,i,0.0092,0,V,7.0
V7,19.0,90.0,58.0,79.0,72.0,90,1733.0,square1,i,0.0265,0,V,7.0
V7,20.0,94.0,68.0,80.0,79.0,94,1827.0,square1,i,0.0707,0,V,7.0
V7,21.0,92.0,66.0,82.0,70.0,92,1919.0,square1,i,0.0858,0,V,7.0
V7,22.0,92.0,64.0,83.0,72.0,92,2011.0,square1,i,0.0854,0,V,7.0
V7,23.0,91.0,68.0,82.0,73.0,91,2102.0,square1,i,0.1697,0,V,7.0
V7,24.0,87.0,71.0,82.0,72.0,82,2184.0,square3,r,0.2321,2,V,7.0
V7,25.0,91.0,68.0,90.0,74.0,74,2258.0,square4,f,0.1809,3,V,7.0
V7,26.0,89.0,65.0,83.0,72.0,65,2323.0,square2,j,0.2049,1,V,7.0
V7,27.0,91.0,61.0,81.0,73.0,91,2414.0,square1,i,0.1121,0,V,7.0
V7,28.0,90.0,66.0,81.0,72.0,90,2504.0,square1,i,0.0302,0,V,7.0
V7,29.0,89.0,67.0,77.0,71.0,89,2593.0,square1,i,0.0339,0,V,7.0
V7,30.0,95.0,68.0,84.0,71.0,95,2688.0,square1,i,0.1196,0,V,7.0
V7,31.0,95.0,61.0,81.0,70.0,95,2783.0,square1,i,0.1603,0,V,7.0
V7,32.0,89.0,65.0,82.0,75.0,89,2872.0,square1,i,0.2013,0,V,7.0
V7,33.0,77.0,50.0,80.0,61.0,77,2949.0,square1,i,0.1188,0,V,7.0
V7,34.0,76.0,54.0,78.0,61.0,76,3025.0,square1,i,0.1267,0,V,7.0
V7,35.0,71.0,51.0,80.0,64.0,80,3105.0,square3,r,0.2007,2,V,7.0
V7,36.0,75.0,51.0,80.0,62.0,62,3167.0,square4,f,0.394,3,V,7.0
V7,37.0,73.0,58.0,86.0,63.0,58,3225.0,square2,j,0.1984,1,V,7.0
V7,38.0,73.0,50.0,86.0,61.0,73,3298.0,square1,i,0.2137,0,V,7.0
V7,39.0,67.0,53.0,78.0,61.0,78,3376.0,square3,r,0.051,2,V,7.0
V7,40.0,71.0,53.0,84.0,58.0,84,3460.0,square3,r,0.0598,2,V,7.0
V7,41.0,75.0,51.0,83.0,63.0,83,3543.0,square3,r,0.1864,2,V,7.0
V7,42.0,69.0,48.0,87.0,63.0,87,3630.0,square3,r,0.1656,2,V,7.0
V7,43.0,70.0,58.0,81.0,60.0,81,3711.0,square3,r,0.1301,2,V,7.0
V7,44.0,68.0,56.0,76.0,63.0,76,3787.0,square3,r,0.1074,2,V,7.0
V7,45.0,74.0,59.0,76.0,56.0,76,3863.0,square3,r,0.0347,2,V,7.0
V7,46.0,72.0,54.0,77.0,61.0,77,3940.0,square3,r,0.0193,2,V,7.0
V7,47.0,69.0,47.0,81.0,62.0,81,4021.0,square3,r,0.0188,2,V,7.0
V7,48.0,75.0,52.0,81.0,57.0,81,4102.0,square3,r,0.0021,2,V,7.0
V7,49.0,74.0,55.0,78.0,60.0,78,4180.0,square3,r,0.0119,2,V,7.0
V7,50.0,71.0,51.0,80.0,61.0,80,4260.0,square3,r,0.1452,2,V,7.0
V7,51.0,75.0,55.0,85.0,62.0,85,4345.0,square3,r,0.1001,2,V,7.0
V7,52.0,75.0,59.0,76.0,59.0,76,4421.0,square3,r,0.043,2,V,7.0
V7,53.0,72.0,53.0,84.0,66.0,84,4505.0,square3,r,0.0426,2,V,7.0
V7,54.0,69.0,51.0,81.0,60.0,81,4586.0,square3,r,0.1531,2,V,7.0
V7,55.0,74.0,56.0,75.0,54.0,75,4661.0,square3,r,0.0925,2,V,7.0
V7,56.0,76.0,51.0,83.0,58.0,83,4744.0,square3,r,0.0945,2,V,7.0
V7,57.0,71.0,53.0,80.0,64.0,64,4808.0,square4,f,0.0869,3,V,7.0
V7,58.0,81.0,56.0,79.0,61.0,81,4889.0,square1,i,0.0962,0,V,7.0
V7,59.0,71.0,55.0,83.0,59.0,71,4960.0,square1,i,0.0019,0,V,7.0
V7,60.0,73.0,53.0,83.0,64.0,53,5013.0,square2,j,0.1572,1,V,7.0
V7,61.0,70.0,53.0,77.0,63.0,77,5090.0,square3,r,0.0857,2,V,7.0
V7,62.0,71.0,54.0,76.0,61.0,76,5166.0,square3,r,0.0968,2,V,7.0
V7,63.0,68.0,45.0,79.0,65.0,68,5234.0,square1,i,0.1103,0,V,7.0
V7,64.0,65.0,55.0,79.0,59.0,65,5299.0,square1,i,0.1017,0,V,7.0
V7,65.0,74.0,54.0,81.0,61.0,61,5360.0,square4,f,0.039,3,V,7.0
V7,66.0,70.0,56.0,81.0,63.0,56,5416.0,square2,j,0.0017,1,V,7.0
V7,67.0,70.0,85.0,64.0,92.0,64,5480.0,square3,r,0.1391,2,V,7.0
V7,68.0,73.0,85.0,68.0,92.0,68,5548.0,square3,r,0.0077,2,V,7.0
V7,69.0,75.0,83.0,70.0,91.0,91,5639.0,square4,f,0.0494,3,V,7.0
V7,70.0,75.0,85.0,69.0,91.0,75,5714.0,square1,i,0.0017,0,V,7.0
V7,71.0,71.0,86.0,65.0,94.0,94,5808.0,square4,f,0.1151,3,V,7.0
V7,72.0,77.0,86.0,65.0,98.0,98,5906.0,square4,f,0.1223,3,V,7.0
V7,73.0,77.0,84.0,63.0,94.0,94,6000.0,square4,f,0.0361,3,V,7.0
V7,74.0,71.0,86.0,64.0,91.0,91,6091.0,square4,f,0.1648,3,V,7.0
V7,75.0,73.0,90.0,60.0,90.0,90,6181.0,square4,f,0.1436,3,V,7.0
V7,76.0,79.0,84.0,68.0,95.0,95,6276.0,square4,f,0.0445,3,V,7.0
V7,77.0,73.0,85.0,66.0,89.0,89,6365.0,square4,f,0.1249,3,V,7.0
V7,78.0,75.0,82.0,67.0,91.0,91,6456.0,square4,f,0.1275,3,V,7.0
V7,79.0,72.0,85.0,60.0,90.0,90,6546.0,square4,f,0.0962,3,V,7.0
V7,80.0,73.0,83.0,66.0,97.0,97,6643.0,square4,f,0.0586,3,V,7.0
V7,81.0,73.0,84.0,67.0,92.0,92,6735.0,square4,f,0.1466,3,V,7.0
V7,82.0,69.0,84.0,65.0,91.0,91,6826.0,square4,f,0.1721,3,V,7.0
V7,83.0,76.0,83.0,72.0,99.0,99,6925.0,square4,f,0.0293,3,V,7.0
V7,84.0,72.0,84.0,70.0,94.0,94,7019.0,square4,f,0.1977,3,V,7.0
V7,85.0,77.0,83.0,67.0,88.0,88,7107.0,square4,f,0.1807,3,V,7.0
V7,86.0,76.0,80.0,67.0,90.0,90,7197.0,square4,f,0.1336,3,V,7.0
V7,87.0,70.0,86.0,67.0,95.0,95,7292.0,square4,f,0.0683,3,V,7.0
V7,88.0,76.0,84.0,67.0,100.0,100,7392.0,square4,f,0.0187,3,V,7.0
V7,89.0,71.0,88.0,60.0,97.0,97,7489.0,square4,f,0.0081,3,V,7.0
V7,90.0,69.0,82.0,71.0,95.0,95,7584.0,square4,f,0.0417,3,V,7.0
V7,91.0,80.0,84.0,65.0,92.0,92,7676.0,square4,f,0.0018,3,V,7.0
V7,92.0,77.0,85.0,68.0,85.0,85,7761.0,square4,f,0.0157,3,V,7.0
V7,93.0,72.0,84.0,66.0,91.0,91,7852.0,square4,f,0.1089,3,V,7.0
V7,94.0,69.0,83.0,66.0,95.0,95,7947.0,square4,f,0.146,3,V,7.0
V7,95.0,70.0,86.0,75.0,91.0,91,8038.0,square4,f,0.0213,3,V,7.0
V7,96.0,74.0,85.0,66.0,88.0,88,8126.0,square4,f,0.1959,3,V,7.0
V7,97.0,77.0,82.0,73.0,91.0,91,8217.0,square4,f,0.002,3,V,7.0
V7,98.0,76.0,91.0,62.0,94.0,94,8311.0,square4,f,0.1758,3,V,7.0
V7,99.0,74.0,84.0,67.0,88.0,88,8399.0,square4,f,0.1717,3,V,7.0
V10,0.0,28.0,21.0,37.0,46.0,28,28.0,square1,f,0.3937,0,V,10.0
V10,1.0,26.0,19.0,41.0,49.0,19,47.0,square2,r,0.0212,1,V,10.0
V10,2.0,29.0,20.0,43.0,48.0,43,90.0,square3,i,0.161,2,V,10.0
V10,3.0,27.0,27.0,37.0,44.0,44,134.0,square4,j,0.1615,3,V,10.0
V10,4.0,28.0,16.0,36.0,47.0,47,181.0,square4,j,0.0888,3,V,10.0
V10,5.0,33.0,25.0,42.0,54.0,42,223.0,square3,i,0.1124,2,V,10.0
V10,6.0,28.0,19.0,35.0,45.0,35,258.0,square3,i,0.1577,2,V,10.0
V10,7.0,30.0,24.0,35.0,49.0,30,288.0,square1,f,0.0018,0,V,10.0
V10,8.0,37.0,29.0,41.0,47.0,29,317.0,square2,r,0.1921,1,V,10.0
V10,9.0,28.0,21.0,41.0,48.0,48,365.0,square4,j,0.1141,3,V,10.0
V10,10.0,27.0,22.0,39.0,42.0,42,407.0,square4,j,0.0532,3,V,10.0
V10,11.0,32.0,16.0,41.0,48.0,48,455.0,square4,j,0.0822,3,V,10.0
V10,12.0,34.0,15.0,33.0,49.0,49,504.0,square4,j,0.1513,3,V,10.0
V10,13.0,36.0,19.0,41.0,45.0,45,549.0,square4,j,0.0324,3,V,10.0
V10,14.0,28.0,23.0,35.0,53.0,53,602.0,square4,j,0.0827,3,V,10.0
V10,15.0,26.0,28.0,40.0,50.0,50,652.0,square4,j,0.1581,3,V,10.0
V10,16.0,30.0,25.0,42.0,47.0,47,699.0,square4,j,0.1571,3,V,10.0
V10,17.0,31.0,19.0,38.0,50.0,50,749.0,square4,j,0.1927,3,V,10.0
V10,18.0,34.0,21.0,35.0,48.0,35,784.0,square3,i,0.1075,2,V,10.0
V10,19.0,31.0,24.0,39.0,46.0,24,808.0,square2,r,0.0801,1,V,10.0
V10,20.0,28.0,22.0,42.0,47.0,28,836.0,square1,f,0.6552,0,V,10.0
V10,21.0,24.0,20.0,41.0,47.0,47,883.0,square4,j,0.0987,3,V,10.0
V10,22.0,32.0,22.0,34.0,44.0,44,927.0,square4,j,0.1635,3,V,10.0
V10,23.0,29.0,23.0,37.0,47.0,47,974.0,square4,j,0.0663,3,V,10.0
V10,24.0,25.0,25.0,38.0,46.0,46,1020.0,square4,j,0.3237,3,V,10.0
V10,25.0,30.0,24.0,41.0,45.0,45,1065.0,square4,j,0.1266,3,V,10.0
V10,26.0,32.0,17.0,38.0,49.0,49,1114.0,square4,j,0.1677,3,V,10.0
V10,27.0,34.0,21.0,38.0,47.0,47,1161.0,square4,j,0.2056,3,V,10.0
V10,28.0,29.0,21.0,37.0,45.0,45,1206.0,square4,j,0.1955,3,V,10.0
V10,29.0,30.0,20.0,31.0,47.0,47,1253.0,square4,j,0.144,3,V,10.0
V10,30.0,28.0,21.0,35.0,44.0,44,1297.0,square4,j,0.1703,3,V,10.0
V10,31.0,36.0,25.0,14.0,8.0,14,1311.0,square3,i,0.1821,2,V,10.0
V10,32.0,38.0,27.0,19.0,11.0,27,1338.0,square2,r,0.157,1,V,10.0
V10,33.0,39.0,21.0,20.0,13.0,39,1377.0,square1,f,0.1557,0,V,10.0
V10,34.0,34.0,24.0,20.0,10.0,10,1387.0,square4,j,0.0105,3,V,10.0
V10,35.0,44.0,29.0,17.0,11.0,44,1431.0,square1,f,0.3211,0,V,10.0
V10,36.0,33.0,30.0,17.0,9.0,30,1461.0,square2,r,0.0805,1,V,10.0
V10,37.0,31.0,27.0,12.0,6.0,12,1473.0,square3,i,0.1938,2,V,10.0
V10,38.0,34.0,29.0,15.0,10.0,10,1483.0,square4,j,0.0713,3,V,10.0
V10,39.0,35.0,21.0,19.0,5.0,35,1518.0,square1,f,0.2178,0,V,10.0
V10,40.0,32.0,26.0,18.0,6.0,32,1550.0,square1,f,0.1438,0,V,10.0
V10,41.0,34.0,32.0,13.0,9.0,34,1584.0,square1,f,0.0584,0,V,10.0
V10,42.0,35.0,30.0,16.0,8.0,35,1619.0,square1,f,0.03,0,V,10.0
V10,43.0,38.0,32.0,16.0,8.0,38,1657.0,square1,f,0.1064,0,V,10.0
V10,44.0,34.0,20.0,18.0,3.0,20,1677.0,square2,r,0.1975,1,V,10.0
V10,45.0,38.0,22.0,23.0,9.0,23,1700.0,square3,i,0.0406,2,V,10.0
V10,46.0,36.0,28.0,16.0,10.0,36,1736.0,square1,f,0.0021,0,V,10.0
V10,47.0,36.0,27.0,13.0,8.0,36,1772.0,square1,f,0.0019,0,V,10.0
V10,48.0,35.0,27.0,14.0,12.0,35,1807.0,square1,f,0.1374,0,V,10.0
V10,49.0,33.0,28.0,16.0,10.0,33,1840.0,square1,f,0.14,0,V,10.0
V10,50.0,31.0,29.0,19.0,8.0,31,1871.0,square1,f,0.0215,0,V,10.0
V10,51.0,32.0,21.0,20.0,12.0,32,1903.0,square1,f,0.1493,0,V,10.0
V10,52.0,29.0,25.0,21.0,10.0,29,1932.0,square1,f,0.1534,0,V,10.0
V10,53.0,39.0,29.0,23.0,2.0,39,1971.0,square1,f,0.0102,0,V,10.0
V10,54.0,33.0,28.0,19.0,7.0,33,2004.0,square1,f,0.0698,0,V,10.0
V10,55.0,34.0,24.0,15.0,8.0,34,2038.0,square1,f,0.0255,0,V,10.0
V10,56.0,35.0,20.0,21.0,9.0,35,2073.0,square1,f,0.0018,0,V,10.0
V10,57.0,33.0,27.0,19.0,7.0,33,2106.0,square1,f,0.122,0,V,10.0
V10,58.0,38.0,24.0,16.0,7.0,38,2144.0,square1,f,0.1109,0,V,10.0
V10,59.0,34.0,29.0,15.0,5.0,34,2178.0,square1,f,0.0403,0,V,10.0
V10,60.0,34.0,22.0,19.0,9.0,34,2212.0,square1,f,0.0675,0,V,10.0
V10,61.0,39.0,31.0,20.0,10.0,31,2243.0,square2,r,0.1746,1,V,10.0
V10,62.0,35.0,24.0,18.0,6.0,18,2261.0,square3,i,0.8147,2,V,10.0
V10,63.0,35.0,26.0,18.0,9.0,26,2287.0,square2,r,0.0447,1,V,10.0
V10,64.0,31.0,55.0,23.0,23.0,23,2310.0,square4,j,0.1819,3,V,10.0
V10,65.0,35.0,50.0,22.0,27.0,35,2345.0,square1,f,0.0017,0,V,10.0
V10,66.0,35.0,53.0,25.0,29.0,35,2380.0,square1,f,0.1267,0,V,10.0
V10,67.0,38.0,44.0,17.0,29.0,38,2418.0,square1,f,0.1265,0,V,10.0
V10,68.0,36.0,48.0,22.0,27.0,36,2454.0,square1,f,0.1938,0,V,10.0
V10,69.0,41.0,53.0,17.0,28.0,41,2495.0,square1,f,0.0292,0,V,10.0
V10,70.0,40.0,48.0,23.0,28.0,40,2535.0,square1,f,0.1928,0,V,10.0
V10,71.0,39.0,43.0,24.0,20.0,39,2574.0,square1,f,0.1658,0,V,10.0
V10,72.0,36.0,49.0,19.0,25.0,36,2610.0,square1,f,0.0203,0,V,10.0
V10,73.0,39.0,49.0,23.0,32.0,39,2649.0,square1,f,0.0421,0,V,10.0
V10,74.0,36.0,44.0,17.0,29.0,36,2685.0,square1,f,0.1733,0,V,10.0
V10,75.0,37.0,46.0,20.0,30.0,37,2722.0,square1,f,0.0283,0,V,10.0
V10,76.0,38.0,47.0,23.0,30.0,38,2760.0,square1,f,0.1374,0,V,10.0
V10,77.0,36.0,49.0,22.0,32.0,49,2809.0,square2,r,0.1455,1,V,10.0
V10,78.0,41.0,44.0,19.0,27.0,19,2828.0,square3,i,0.0351,2,V,10.0
V10,79.0,41.0,48.0,22.0,27.0,27,2855.0,square4,j,0.0211,3,V,10.0
V10,80.0,34.0,44.0,26.0,29.0,44,2899.0,square2,r,0.0779,1,V,10.0
V10,81.0,38.0,47.0,18.0,29.0,47,2946.0,square2,r,0.1024,1,V,10.0
V10,82.0,43.0,43.0,23.0,28.0,43,2989.0,square2,r,0.0726,1,V,10.0
V10,83.0,34.0,51.0,23.0,26.0,51,3040.0,square2,r,0.0659,1,V,10.0
V10,84.0,36.0,46.0,18.0,25.0,46,3086.0,square2,r,0.0975,1,V,10.0
V10,85.0,39.0,46.0,25.0,26.0,46,3132.0,square2,r,0.1277,1,V,10.0
V10,86.0,39.0,50.0,27.0,27.0,50,3182.0,square2,r,0.0329,1,V,10.0
V10,87.0,38.0,46.0,20.0,30.0,46,3228.0,square2,r,0.0634,1,V,10.0
V10,88.0,37.0,49.0,22.0,28.0,49,3277.0,square2,r,0.1096,1,V,10.0
V10,89.0,34.0,51.0,25.0,26.0,51,3328.0,square2,r,0.1063,1,V,10.0
V10,90.0,41.0,49.0,22.0,29.0,49,3377.0,square2,r,0.0467,1,V,10.0
V10,91.0,37.0,45.0,26.0,32.0,45,3422.0,square2,r,0.0196,1,V,10.0
V10,92.0,42.0,42.0,27.0,28.0,42,3464.0,square2,r,0.1101,1,V,10.0
V10,93.0,41.0,48.0,19.0,36.0,48,3512.0,square2,r,0.009,1,V,10.0
V10,94.0,43.0,49.0,23.0,31.0,49,3561.0,square2,r,0.1047,1,V,10.0
V10,95.0,39.0,46.0,18.0,27.0,46,3607.0,square2,r,0.086,1,V,10.0
V10,96.0,37.0,48.0,24.0,27.0,48,3655.0,square2,r,0.0953,1,V,10.0
V10,97.0,42.0,50.0,23.0,31.0,50,3705.0,square2,r,0.045,1,V,10.0
V10,98.0,33.0,47.0,25.0,32.0,47,3752.0,square2,r,0.0849,1,V,10.0
V10,99.0,39.0,48.0,23.0,32.0,48,3800.0,square2,r,1.5108,1,V,10.0
NS8,0.0,61.0,62.0,34.0,32.0,32,32.0,square4,r,1.0309,3,N,8.0
NS8,1.0,57.0,56.0,38.0,27.0,56,88.0,square2,i,0.0019,1,N,8.0
NS8,2.0,66.0,55.0,42.0,28.0,42,130.0,square3,f,0.1044,2,N,8.0
NS8,3.0,67.0,51.0,37.0,28.0,67,197.0,square1,j,0.0317,0,N,8.0
NS8,4.0,65.0,53.0,38.0,32.0,65,262.0,square1,j,0.1612,0,N,8.0
NS8,5.0,67.0,52.0,43.0,33.0,67,329.0,square1,j,0.0302,0,N,8.0
NS8,6.0,56.0,47.0,41.0,36.0,47,376.0,square2,i,0.036,1,N,8.0
NS8,7.0,58.0,46.0,37.0,31.0,31,407.0,square4,r,0.1177,3,N,8.0
NS8,8.0,60.0,58.0,36.0,35.0,36,443.0,square3,f,0.5323,2,N,8.0
NS8,9.0,60.0,66.0,41.0,39.0,60,503.0,square1,j,0.0621,0,N,8.0
NS8,10.0,60.0,60.0,36.0,33.0,60,563.0,square1,j,0.0121,0,N,8.0
NS8,11.0,53.0,63.0,32.0,35.0,53,616.0,square1,j,0.0815,0,N,8.0
NS8,12.0,51.0,60.0,32.0,29.0,51,667.0,square1,j,0.1853,0,N,8.0
NS8,13.0,53.0,65.0,30.0,32.0,53,720.0,square1,j,0.5265,0,N,8.0
NS8,14.0,56.0,69.0,25.0,33.0,56,776.0,square1,j,0.1285,0,N,8.0
NS8,15.0,57.0,71.0,29.0,35.0,57,833.0,square1,j,0.0881,0,N,8.0
NS8,16.0,55.0,64.0,31.0,33.0,55,888.0,square1,j,0.1853,0,N,8.0
NS8,17.0,48.0,65.0,29.0,32.0,65,953.0,square2,i,0.2364,1,N,8.0
NS8,18.0,44.0,64.0,28.0,34.0,34,987.0,square4,r,0.1251,3,N,8.0
NS8,19.0,46.0,60.0,26.0,33.0,26,1013.0,square3,f,0.0201,2,N,8.0
NS8,20.0,41.0,58.0,29.0,35.0,58,1071.0,square2,i,0.0772,1,N,8.0
NS8,21.0,45.0,57.0,29.0,35.0,57,1128.0,square2,i,0.217,1,N,8.0
NS8,22.0,47.0,53.0,32.0,32.0,47,1175.0,square1,j,0.1844,0,N,8.0
NS8,23.0,49.0,52.0,33.0,35.0,49,1224.0,square1,j,0.1687,0,N,8.0
NS8,24.0,56.0,53.0,30.0,37.0,53,1277.0,square2,i,0.1032,1,N,8.0
NS8,25.0,57.0,48.0,28.0,42.0,48,1325.0,square2,i,0.1418,1,N,8.0
NS8,26.0,52.0,48.0,33.0,43.0,48,1373.0,square2,i,0.133,1,N,8.0
NS8,27.0,53.0,45.0,28.0,47.0,45,1418.0,square2,i,0.1068,1,N,8.0
NS8,28.0,50.0,43.0,27.0,41.0,43,1461.0,square2,i,0.6049,1,N,8.0
NS8,29.0,53.0,52.0,29.0,43.0,53,1514.0,square1,j,0.0183,0,N,8.0
NS8,30.0,54.0,51.0,30.0,41.0,54,1568.0,square1,j,0.0296,0,N,8.0
NS8,31.0,50.0,50.0,31.0,42.0,50,1618.0,square1,j,0.002,0,N,8.0
NS8,32.0,50.0,50.0,35.0,43.0,50,1668.0,square1,j,0.1798,0,N,8.0
NS8,33.0,46.0,48.0,39.0,41.0,46,1714.0,square1,j,0.1281,0,N,8.0
NS8,34.0,47.0,46.0,41.0,40.0,47,1761.0,square1,j,0.0696,0,N,8.0
NS8,35.0,57.0,45.0,36.0,37.0,45,1806.0,square2,i,0.1325,1,N,8.0
NS8,36.0,53.0,49.0,41.0,38.0,49,1855.0,square2,i,0.0786,1,N,8.0
NS8,37.0,57.0,50.0,41.0,39.0,50,1905.0,square2,i,0.1156,1,N,8.0
NS8,38.0,61.0,51.0,39.0,43.0,43,1948.0,square4,r,0.19,3,N,8.0
NS8,39.0,59.0,54.0,41.0,36.0,41,1989.0,square3,f,0.1992,2,N,8.0
NS8,40.0,53.0,55.0,47.0,40.0,53,2042.0,square1,j,0.175,0,N,8.0
NS8,41.0,53.0,55.0,43.0,39.0,55,2097.0,square2,i,0.0472,1,N,8.0
NS8,42.0,59.0,55.0,45.0,40.0,40,2137.0,square4,r,0.1861,3,N,8.0
NS8,43.0,54.0,46.0,51.0,37.0,51,2188.0,square3,f,0.1937,2,N,8.0
NS8,44.0,56.0,44.0,50.0,35.0,56,2244.0,square1,j,0.1094,0,N,8.0
NS8,45.0,51.0,46.0,41.0,37.0,46,2290.0,square2,i,0.0654,1,N,8.0
NS8,46.0,52.0,43.0,44.0,34.0,52,2342.0,square1,j,0.0369,0,N,8.0
NS8,47.0,46.0,41.0,36.0,37.0,46,2388.0,square1,j,0.2428,0,N,8.0
NS8,48.0,47.0,46.0,39.0,37.0,39,2427.0,square3,f,0.0099,2,N,8.0
NS8,49.0,48.0,36.0,38.0,40.0,40,2467.0,square4,r,0.0543,3,N,8.0
NS8,50.0,51.0,37.0,36.0,46.0,37,2504.0,square2,i,0.1487,1,N,8.0
NS8,51.0,53.0,38.0,40.0,43.0,53,2557.0,square1,j,0.0457,0,N,8.0
NS8,52.0,47.0,32.0,37.0,44.0,47,2604.0,square1,j,0.1484,0,N,8.0
NS8,53.0,52.0,31.0,38.0,46.0,52,2656.0,square1,j,0.1024,0,N,8.0
NS8,54.0,44.0,34.0,40.0,45.0,44,2700.0,square1,j,0.1976,0,N,8.0
NS8,55.0,46.0,26.0,37.0,41.0,46,2746.0,square1,j,0.2198,0,N,8.0
NS8,56.0,42.0,29.0,36.0,40.0,29,2775.0,square2,i,0.0979,1,N,8.0
NS8,57.0,39.0,21.0,39.0,40.0,39,2814.0,square3,f,0.0346,2,N,8.0
NS8,58.0,42.0,18.0,39.0,40.0,40,2854.0,square4,r,0.1091,3,N,8.0
NS8,59.0,46.0,16.0,41.0,39.0,39,2893.0,square4,r,0.0997,3,N,8.0
NS8,60.0,45.0,20.0,40.0,39.0,45,2938.0,square1,j,0.1545,0,N,8.0
NS8,61.0,45.0,26.0,42.0,39.0,45,2983.0,square1,j,0.0715,0,N,8.0
NS8,62.0,46.0,21.0,45.0,37.0,46,3029.0,square1,j,0.0095,0,N,8.0
NS8,63.0,50.0,23.0,40.0,38.0,50,3079.0,square1,j,0.175,0,N,8.0
NS8,64.0,46.0,24.0,41.0,33.0,46,3125.0,square1,j,0.1728,0,N,8.0
NS8,65.0,48.0,28.0,42.0,32.0,48,3173.0,square1,j,0.1929,0,N,8.0
NS8,66.0,47.0,20.0,40.0,35.0,47,3220.0,square1,j,0.0615,0,N,8.0
NS8,67.0,49.0,25.0,46.0,34.0,49,3269.0,square1,j,0.2088,0,N,8.0
NS8,68.0,47.0,24.0,45.0,33.0,47,3316.0,square1,j,0.0097,0,N,8.0
NS8,69.0,45.0,21.0,47.0,35.0,21,3337.0,square2,i,0.0838,1,N,8.0
NS8,70.0,44.0,21.0,47.0,37.0,37,3374.0,square4,r,0.1433,3,N,8.0
NS8,71.0,44.0,15.0,41.0,38.0,41,3415.0,square3,f,0.0905,2,N,8.0
NS8,72.0,47.0,19.0,49.0,40.0,47,3462.0,square1,j,0.0365,0,N,8.0
NS8,73.0,39.0,21.0,53.0,38.0,39,3501.0,square1,j,0.0118,0,N,8.0
NS8,74.0,42.0,19.0,53.0,35.0,42,3543.0,square1,j,0.033,0,N,8.0
NS8,75.0,37.0,18.0,43.0,35.0,43,3586.0,square3,f,0.0557,2,N,8.0
NS8,76.0,35.0,14.0,42.0,38.0,38,3624.0,square4,r,0.0519,3,N,8.0
NS8,77.0,38.0,19.0,47.0,44.0,19,3643.0,square2,i,0.1607,1,N,8.0
NS8,78.0,38.0,18.0,50.0,46.0,50,3693.0,square3,f,0.119,2,N,8.0
NS8,79.0,33.0,22.0,54.0,44.0,54,3747.0,square3,f,0.1493,2,N,8.0
NS8,80.0,38.0,21.0,56.0,52.0,56,3803.0,square3,f,0.0714,2,N,8.0
NS8,81.0,37.0,22.0,56.0,43.0,56,3859.0,square3,f,0.126,2,N,8.0
NS8,82.0,30.0,26.0,60.0,42.0,60,3919.0,square3,f,0.0535,2,N,8.0
NS8,83.0,38.0,22.0,54.0,46.0,54,3973.0,square3,f,0.1641,2,N,8.0
NS8,84.0,33.0,18.0,52.0,46.0,52,4025.0,square3,f,0.0141,2,N,8.0
NS8,85.0,42.0,12.0,57.0,48.0,42,4067.0,square1,j,0.1249,0,N,8.0
NS8,86.0,45.0,19.0,58.0,42.0,58,4125.0,square3,f,0.0226,2,N,8.0
NS8,87.0,46.0,10.0,65.0,44.0,65,4190.0,square3,f,0.0479,2,N,8.0
NS8,88.0,45.0,11.0,59.0,45.0,59,4249.0,square3,f,0.2385,2,N,8.0
NS8,89.0,42.0,11.0,60.0,47.0,60,4309.0,square3,f,0.1036,2,N,8.0
NS8,90.0,40.0,7.0,64.0,49.0,64,4373.0,square3,f,0.2059,2,N,8.0
NS8,91.0,42.0,11.0,64.0,48.0,64,4437.0,square3,f,0.1057,2,N,8.0
NS8,92.0,43.0,13.0,60.0,43.0,43,4480.0,square4,r,0.1623,3,N,8.0
NS8,93.0,44.0,12.0,64.0,45.0,12,4492.0,square2,i,0.0405,1,N,8.0
NS8,94.0,45.0,16.0,65.0,49.0,45,4537.0,square1,j,0.0964,0,N,8.0
NS8,95.0,45.0,24.0,66.0,42.0,66,4603.0,square3,f,0.0324,2,N,8.0
NS8,96.0,53.0,27.0,67.0,44.0,67,4670.0,square3,f,0.0016,2,N,8.0
NS8,97.0,50.0,29.0,68.0,43.0,68,4738.0,square3,f,0.0846,2,N,8.0
NS8,98.0,52.0,29.0,66.0,37.0,66,4804.0,square3,f,0.0234,2,N,8.0
NS8,99.0,53.0,32.0,65.0,37.0,65,4869.0,square3,f,0.1005,2,N,8.0
NS5,0.0,26.0,19.0,54.0,39.0,26,26.0,square1,r,0.4488,0,N,5.0
NS5,1.0,21.0,17.0,51.0,42.0,42,68.0,square4,i,0.5,3,N,5.0
NS5,2.0,19.0,17.0,52.0,42.0,52,120.0,square3,j,0.0019,2,N,5.0
NS5,3.0,21.0,16.0,55.0,38.0,16,136.0,square2,f,0.0091,1,N,5.0
NS5,4.0,14.0,26.0,52.0,44.0,44,180.0,square4,i,0.1019,3,N,5.0
NS5,5.0,18.0,25.0,47.0,42.0,47,227.0,square3,j,0.0765,2,N,5.0
NS5,6.0,23.0,21.0,54.0,38.0,38,265.0,square4,i,0.0132,3,N,5.0
NS5,7.0,18.0,27.0,56.0,39.0,56,321.0,square3,j,0.1624,2,N,5.0
NS5,8.0,18.0,28.0,57.0,40.0,57,378.0,square3,j,0.0841,2,N,5.0
NS5,9.0,15.0,29.0,53.0,38.0,53,431.0,square3,j,0.181,2,N,5.0
NS5,10.0,13.0,26.0,56.0,41.0,56,487.0,square3,j,0.173,2,N,5.0
NS5,11.0,11.0,25.0,58.0,41.0,58,545.0,square3,j,0.1385,2,N,5.0
NS5,12.0,9.0,22.0,53.0,40.0,53,598.0,square3,j,0.1577,2,N,5.0
NS5,13.0,11.0,21.0,55.0,39.0,55,653.0,square3,j,0.0897,2,N,5.0
NS5,14.0,12.0,17.0,49.0,38.0,49,702.0,square3,j,0.0601,2,N,5.0
NS5,15.0,18.0,19.0,52.0,37.0,52,754.0,square3,j,0.0457,2,N,5.0
NS5,16.0,18.0,20.0,49.0,40.0,49,803.0,square3,j,0.0553,2,N,5.0
NS5,17.0,16.0,16.0,50.0,41.0,50,853.0,square3,j,0.0139,2,N,5.0
NS5,18.0,16.0,18.0,51.0,43.0,51,904.0,square3,j,0.1026,2,N,5.0
NS5,19.0,14.0,20.0,44.0,45.0,44,948.0,square3,j,0.0902,2,N,5.0
NS5,20.0,19.0,21.0,42.0,48.0,42,990.0,square3,j,0.1568,2,N,5.0
NS5,21.0,19.0,22.0,43.0,47.0,47,1037.0,square4,i,0.2507,3,N,5.0
NS5,22.0,17.0,15.0,43.0,47.0,17,1054.0,square1,r,0.1443,0,N,5.0
NS5,23.0,16.0,28.0,37.0,47.0,28,1082.0,square2,f,0.1351,1,N,5.0
NS5,24.0,20.0,21.0,38.0,49.0,49,1131.0,square4,i,0.0859,3,N,5.0
NS5,25.0,22.0,17.0,34.0,46.0,34,1165.0,square3,j,0.0019,2,N,5.0
NS5,26.0,30.0,16.0,32.0,50.0,50,1215.0,square4,i,0.2002,3,N,5.0
NS5,27.0,21.0,20.0,35.0,42.0,42,1257.0,square4,i,0.1802,3,N,5.0
NS5,28.0,20.0,23.0,39.0,42.0,42,1299.0,square4,i,0.0579,3,N,5.0
NS5,29.0,21.0,18.0,39.0,41.0,41,1340.0,square4,i,0.2387,3,N,5.0
NS5,30.0,20.0,11.0,41.0,44.0,44,1384.0,square4,i,0.1201,3,N,5.0
NS5,31.0,20.0,9.0,36.0,43.0,36,1420.0,square3,j,0.0304,2,N,5.0
NS5,32.0,21.0,13.0,35.0,46.0,21,1441.0,square1,r,0.022,0,N,5.0
NS5,33.0,16.0,22.0,32.0,44.0,22,1463.0,square2,f,0.0305,1,N,5.0
NS5,34.0,20.0,20.0,33.0,37.0,37,1500.0,square4,i,0.054,3,N,5.0
NS5,35.0,19.0,27.0,34.0,40.0,40,1540.0,square4,i,0.1834,3,N,5.0
NS5,36.0,20.0,23.0,31.0,37.0,31,1571.0,square3,j,0.1189,2,N,5.0
NS5,37.0,15.0,28.0,41.0,40.0,40,1611.0,square4,i,0.1033,3,N,5.0
NS5,38.0,18.0,21.0,45.0,37.0,37,1648.0,square4,i,0.1298,3,N,5.0
NS5,39.0,23.0,22.0,40.0,34.0,34,1682.0,square4,i,0.3862,3,N,5.0
NS5,40.0,22.0,25.0,44.0,26.0,44,1726.0,square3,j,0.4458,2,N,5.0
NS5,41.0,28.0,25.0,39.0,29.0,25,1751.0,square2,f,0.0641,1,N,5.0
NS5,42.0,27.0,27.0,42.0,35.0,27,1778.0,square1,r,0.1505,0,N,5.0
NS5,43.0,25.0,25.0,49.0,38.0,49,1827.0,square3,j,0.144,2,N,5.0
NS5,44.0,24.0,26.0,42.0,30.0,42,1869.0,square3,j,0.0021,2,N,5.0
NS5,45.0,33.0,22.0,43.0,37.0,43,1912.0,square3,j,0.1125,2,N,5.0
NS5,46.0,32.0,24.0,50.0,38.0,50,1962.0,square3,j,0.015,2,N,5.0
NS5,47.0,39.0,25.0,52.0,29.0,29,1991.0,square4,i,0.0266,3,N,5.0
NS5,48.0,42.0,22.0,46.0,33.0,46,2037.0,square3,j,0.1193,2,N,5.0
NS5,49.0,40.0,26.0,40.0,33.0,40,2077.0,square1,r,0.0579,0,N,5.0
NS5,50.0,34.0,19.0,47.0,33.0,19,2096.0,square2,f,0.0018,1,N,5.0
NS5,51.0,29.0,25.0,45.0,29.0,45,2141.0,square3,j,0.0471,2,N,5.0
NS5,52.0,29.0,24.0,48.0,35.0,29,2170.0,square1,r,0.0912,0,N,5.0
NS5,53.0,24.0,25.0,45.0,40.0,40,2210.0,square4,i,0.0352,3,N,5.0
NS5,54.0,26.0,25.0,51.0,36.0,51,2261.0,square3,j,0.1828,2,N,5.0
NS5,55.0,25.0,28.0,56.0,34.0,56,2317.0,square3,j,0.0241,2,N,5.0
NS5,56.0,23.0,27.0,54.0,36.0,54,2371.0,square3,j,0.1444,2,N,5.0
NS5,57.0,19.0,25.0,51.0,31.0,51,2422.0,square3,j,0.2535,2,N,5.0
NS5,58.0,20.0,30.0,53.0,29.0,29,2451.0,square4,i,0.1016,3,N,5.0
NS5,59.0,17.0,30.0,52.0,28.0,30,2481.0,square2,f,0.0149,1,N,5.0
NS5,60.0,15.0,30.0,55.0,30.0,15,2496.0,square1,r,0.1362,0,N,5.0
NS5,61.0,22.0,29.0,54.0,30.0,54,2550.0,square3,j,0.1795,2,N,5.0
NS5,62.0,18.0,31.0,55.0,32.0,55,2605.0,square3,j,0.0792,2,N,5.0
NS5,63.0,19.0,31.0,51.0,37.0,51,2656.0,square3,j,0.0719,2,N,5.0
NS5,64.0,20.0,30.0,45.0,35.0,99999,2656.0,invalid,,,-1,N,5.0
NS5,65.0,24.0,21.0,55.0,38.0,55,2711.0,square3,j,0.195,2,N,5.0
NS5,66.0,22.0,29.0,58.0,36.0,58,2769.0,square3,j,0.0573,2,N,5.0
NS5,67.0,22.0,26.0,51.0,36.0,36,2805.0,square4,i,0.068,3,N,5.0
NS5,68.0,20.0,28.0,52.0,36.0,20,2825.0,square1,r,0.002,0,N,5.0
NS5,69.0,18.0,27.0,52.0,40.0,27,2852.0,square2,f,0.0278,1,N,5.0
NS5,70.0,22.0,34.0,55.0,39.0,55,2907.0,square3,j,0.1032,2,N,5.0
NS5,71.0,27.0,37.0,59.0,41.0,59,2966.0,square3,j,0.1465,2,N,5.0
NS5,72.0,27.0,37.0,57.0,40.0,57,3023.0,square3,j,0.2024,2,N,5.0
NS5,73.0,35.0,36.0,55.0,38.0,55,3078.0,square3,j,0.1357,2,N,5.0
NS5,74.0,27.0,36.0,52.0,36.0,52,3130.0,square3,j,0.0101,2,N,5.0
NS5,75.0,31.0,40.0,53.0,38.0,53,3183.0,square3,j,0.6041,2,N,5.0
NS5,76.0,33.0,41.0,59.0,35.0,59,3242.0,square3,j,0.1414,2,N,5.0
NS5,77.0,33.0,42.0,56.0,38.0,56,3298.0,square3,j,0.2084,2,N,5.0
NS5,78.0,30.0,42.0,53.0,37.0,53,3351.0,square3,j,0.2162,2,N,5.0
NS5,79.0,27.0,49.0,51.0,44.0,44,3395.0,square4,i,0.0365,3,N,5.0
NS5,80.0,31.0,49.0,45.0,44.0,49,3444.0,square2,f,0.0746,1,N,5.0
NS5,81.0,33.0,51.0,48.0,43.0,33,3477.0,square1,r,0.0018,0,N,5.0
NS5,82.0,31.0,54.0,41.0,43.0,43,3520.0,square4,i,0.1606,3,N,5.0
NS5,83.0,25.0,57.0,42.0,40.0,42,3562.0,square3,j,0.2164,2,N,5.0
NS5,84.0,36.0,57.0,45.0,38.0,57,3619.0,square2,f,0.0019,1,N,5.0
NS5,85.0,36.0,62.0,44.0,42.0,62,3681.0,square2,f,0.0357,1,N,5.0
NS5,86.0,33.0,55.0,48.0,43.0,55,3736.0,square2,f,0.3282,1,N,5.0
NS5,87.0,37.0,53.0,44.0,46.0,46,3782.0,square4,i,0.0868,3,N,5.0
NS5,88.0,36.0,54.0,41.0,48.0,36,3818.0,square1,r,0.1705,0,N,5.0
NS5,89.0,39.0,62.0,47.0,47.0,47,3865.0,square3,j,0.0867,2,N,5.0
NS5,90.0,37.0,62.0,51.0,48.0,62,3927.0,square2,f,0.0816,1,N,5.0
NS5,91.0,40.0,64.0,48.0,53.0,64,3991.0,square2,f,0.1078,1,N,5.0
NS5,92.0,42.0,64.0,51.0,55.0,64,4055.0,square2,f,0.0764,1,N,5.0
NS5,93.0,39.0,63.0,51.0,53.0,63,4118.0,square2,f,0.0799,1,N,5.0
NS5,94.0,41.0,60.0,50.0,58.0,60,4178.0,square2,f,0.0535,1,N,5.0
NS5,95.0,36.0,55.0,53.0,52.0,55,4233.0,square2,f,0.0144,1,N,5.0
NS5,96.0,36.0,56.0,55.0,56.0,56,4289.0,square4,i,0.0829,3,N,5.0
NS5,97.0,28.0,52.0,57.0,53.0,57,4346.0,square3,j,0.0097,2,N,5.0
NS5,98.0,29.0,53.0,53.0,43.0,29,4375.0,square1,r,0.1276,0,N,5.0
NS5,99.0,25.0,55.0,53.0,46.0,46,4421.0,square4,i,0.0762,3,N,5.0
NS9,0.0,40.0,33.0,41.0,64.0,64,64.0,square4,r,0.5137,3,N,9.0
NS9,1.0,40.0,19.0,39.0,64.0,39,103.0,square3,i,0.1568,2,N,9.0
NS9,2.0,41.0,16.0,44.0,59.0,41,144.0,square1,f,0.0019,0,N,9.0
NS9,3.0,41.0,19.0,48.0,58.0,19,163.0,square2,j,0.0949,1,N,9.0
NS9,4.0,46.0,18.0,45.0,54.0,54,217.0,square4,r,0.2502,3,N,9.0
NS9,5.0,40.0,17.0,53.0,54.0,54,271.0,square4,r,0.192,3,N,9.0
NS9,6.0,40.0,19.0,47.0,46.0,46,317.0,square4,r,0.063,3,N,9.0
NS9,7.0,44.0,21.0,51.0,49.0,49,366.0,square4,r,0.0275,3,N,9.0
NS9,8.0,41.0,26.0,44.0,55.0,44,410.0,square3,i,0.1146,2,N,9.0
NS9,9.0,36.0,15.0,44.0,54.0,36,446.0,square1,f,0.0175,0,N,9.0
NS9,10.0,32.0,19.0,48.0,49.0,19,465.0,square2,j,0.2811,1,N,9.0
NS9,11.0,32.0,18.0,50.0,57.0,50,515.0,square3,i,0.2392,2,N,9.0
NS9,12.0,32.0,18.0,57.0,52.0,32,547.0,square1,f,0.1454,0,N,9.0
NS9,13.0,32.0,8.0,58.0,56.0,56,603.0,square4,r,0.1174,3,N,9.0
NS9,14.0,28.0,9.0,61.0,55.0,55,658.0,square4,r,0.2782,3,N,9.0
NS9,15.0,31.0,11.0,64.0,48.0,48,706.0,square4,r,0.181,3,N,9.0
NS9,16.0,34.0,13.0,68.0,47.0,47,753.0,square4,r,0.0103,3,N,9.0
NS9,17.0,37.0,11.0,71.0,54.0,71,824.0,square3,i,0.1305,2,N,9.0
NS9,18.0,35.0,10.0,71.0,50.0,71,895.0,square3,i,0.0514,2,N,9.0
NS9,19.0,32.0,21.0,77.0,49.0,77,972.0,square3,i,0.1139,2,N,9.0
NS9,20.0,41.0,22.0,74.0,48.0,74,1046.0,square3,i,0.0372,2,N,9.0
NS9,21.0,40.0,21.0,75.0,50.0,75,1121.0,square3,i,0.1792,2,N,9.0
NS9,22.0,42.0,23.0,72.0,54.0,72,1193.0,square3,i,0.0851,2,N,9.0
NS9,23.0,43.0,22.0,75.0,45.0,75,1268.0,square3,i,0.0158,2,N,9.0
NS9,24.0,41.0,18.0,70.0,49.0,70,1338.0,square3,i,0.0597,2,N,9.0
NS9,25.0,38.0,21.0,75.0,53.0,75,1413.0,square3,i,0.0022,2,N,9.0
NS9,26.0,40.0,20.0,73.0,54.0,73,1486.0,square3,i,0.0244,2,N,9.0
NS9,27.0,46.0,21.0,74.0,56.0,74,1560.0,square3,i,0.0805,2,N,9.0
NS9,28.0,51.0,25.0,72.0,58.0,72,1632.0,square3,i,0.0455,2,N,9.0
NS9,29.0,43.0,29.0,71.0,56.0,71,1703.0,square3,i,0.1724,2,N,9.0
NS9,30.0,38.0,26.0,71.0,52.0,71,1774.0,square3,i,0.0087,2,N,9.0
NS9,31.0,43.0,23.0,73.0,53.0,73,1847.0,square3,i,0.0235,2,N,9.0
NS9,32.0,43.0,24.0,76.0,52.0,76,1923.0,square3,i,0.1021,2,N,9.0
NS9,33.0,41.0,18.0,72.0,49.0,72,1995.0,square3,i,0.0248,2,N,9.0
NS9,34.0,36.0,26.0,68.0,55.0,68,2063.0,square3,i,0.0809,2,N,9.0
NS9,35.0,34.0,34.0,68.0,52.0,34,2097.0,square1,f,0.219,0,N,9.0
NS9,36.0,34.0,43.0,70.0,49.0,43,2140.0,square2,j,0.3198,1,N,9.0
NS9,37.0,32.0,41.0,61.0,47.0,47,2187.0,square4,r,0.1604,3,N,9.0
NS9,38.0,28.0,41.0,65.0,47.0,65,2252.0,square3,i,0.0021,2,N,9.0
NS9,39.0,28.0,43.0,61.0,48.0,61,2313.0,square3,i,0.0519,2,N,9.0
NS9,40.0,26.0,46.0,65.0,39.0,65,2378.0,square3,i,0.1762,2,N,9.0
NS9,41.0,21.0,38.0,62.0,41.0,62,2440.0,square3,i,0.0019,2,N,9.0
NS9,42.0,18.0,37.0,59.0,42.0,59,2499.0,square3,i,0.1437,2,N,9.0
NS9,43.0,18.0,44.0,57.0,39.0,18,2517.0,square1,f,0.2045,0,N,9.0
NS9,44.0,19.0,43.0,58.0,36.0,43,2560.0,square2,j,0.0895,1,N,9.0
NS9,45.0,23.0,42.0,53.0,39.0,39,2599.0,square4,r,0.121,3,N,9.0
NS9,46.0,22.0,48.0,58.0,43.0,58,2657.0,square3,i,0.0016,2,N,9.0
NS9,47.0,20.0,47.0,51.0,44.0,51,2708.0,square3,i,0.0891,2,N,9.0
NS9,48.0,21.0,43.0,57.0,40.0,57,2765.0,square3,i,0.1583,2,N,9.0
NS9,49.0,25.0,38.0,59.0,46.0,59,2824.0,square3,i,0.1143,2,N,9.0
NS9,50.0,27.0,41.0,49.0,52.0,49,2873.0,square3,i,0.0823,2,N,9.0
NS9,51.0,20.0,42.0,52.0,54.0,20,2893.0,square1,f,0.1042,0,N,9.0
NS9,52.0,18.0,41.0,51.0,48.0,41,2934.0,square2,j,0.0251,1,N,9.0
NS9,53.0,17.0,43.0,52.0,50.0,52,2986.0,square3,i,0.0822,2,N,9.0
NS9,54.0,27.0,37.0,55.0,56.0,56,3042.0,square4,r,0.1745,3,N,9.0
NS9,55.0,30.0,38.0,59.0,50.0,50,3092.0,square4,r,0.1555,3,N,9.0
NS9,56.0,32.0,49.0,54.0,59.0,54,3146.0,square3,i,0.0019,2,N,9.0
NS9,57.0,34.0,50.0,50.0,58.0,58,3204.0,square4,r,0.1676,3,N,9.0
NS9,58.0,28.0,49.0,54.0,51.0,54,3258.0,square3,i,0.0019,2,N,9.0
NS9,59.0,26.0,47.0,46.0,49.0,49,3307.0,square4,r,0.0618,3,N,9.0
NS9,60.0,30.0,47.0,50.0,51.0,50,3357.0,square3,i,0.2404,2,N,9.0
NS9,61.0,29.0,43.0,51.0,50.0,29,3386.0,square1,f,0.1391,0,N,9.0
NS9,62.0,32.0,42.0,52.0,54.0,42,3428.0,square2,j,0.4725,1,N,9.0
NS9,63.0,35.0,45.0,57.0,46.0,57,3485.0,square3,i,0.4125,2,N,9.0
NS9,64.0,37.0,41.0,53.0,44.0,44,3529.0,square4,r,0.0696,3,N,9.0
NS9,65.0,34.0,41.0,50.0,49.0,50,3579.0,square3,i,0.0145,2,N,9.0
NS9,66.0,38.0,43.0,46.0,53.0,46,3625.0,square3,i,0.0598,2,N,9.0
NS9,67.0,36.0,35.0,51.0,54.0,51,3676.0,square3,i,0.1867,2,N,9.0
NS9,68.0,43.0,38.0,48.0,57.0,57,3733.0,square4,r,0.0136,3,N,9.0
NS9,69.0,42.0,42.0,48.0,49.0,42,3775.0,square1,f,0.0894,0,N,9.0
NS9,70.0,45.0,40.0,50.0,51.0,40,3815.0,square2,j,0.0365,1,N,9.0
NS9,71.0,49.0,42.0,48.0,52.0,48,3863.0,square3,i,0.002,2,N,9.0
NS9,72.0,39.0,44.0,47.0,58.0,39,3902.0,square1,f,0.0093,0,N,9.0
NS9,73.0,40.0,45.0,45.0,62.0,45,3947.0,square2,j,0.0167,1,N,9.0
NS9,74.0,46.0,48.0,47.0,56.0,47,3994.0,square3,i,0.147,2,N,9.0
NS9,75.0,35.0,39.0,53.0,65.0,65,4059.0,square4,r,0.0737,3,N,9.0
NS9,76.0,40.0,45.0,56.0,67.0,67,4126.0,square4,r,0.1488,3,N,9.0
NS9,77.0,38.0,46.0,54.0,69.0,69,4195.0,square4,r,0.2495,3,N,9.0
NS9,78.0,37.0,42.0,53.0,69.0,69,4264.0,square4,r,0.1857,3,N,9.0
NS9,79.0,40.0,44.0,53.0,70.0,70,4334.0,square4,r,0.19,3,N,9.0
NS9,80.0,37.0,50.0,55.0,70.0,70,4404.0,square4,r,0.1257,3,N,9.0
NS9,81.0,33.0,54.0,54.0,63.0,63,4467.0,square4,r,0.1342,3,N,9.0
NS9,82.0,35.0,55.0,52.0,74.0,74,4541.0,square4,r,0.0481,3,N,9.0
NS9,83.0,34.0,48.0,56.0,75.0,56,4597.0,square3,i,0.1795,2,N,9.0
NS9,84.0,39.0,51.0,62.0,78.0,39,4636.0,square1,f,0.1024,0,N,9.0
NS9,85.0,38.0,57.0,55.0,77.0,57,4693.0,square2,j,0.002,1,N,9.0
NS9,86.0,34.0,53.0,57.0,68.0,68,4761.0,square4,r,0.1167,3,N,9.0
NS9,87.0,35.0,48.0,55.0,69.0,69,4830.0,square4,r,0.1112,3,N,9.0
NS9,88.0,41.0,48.0,50.0,69.0,69,4899.0,square4,r,0.205,3,N,9.0
NS9,89.0,38.0,54.0,55.0,70.0,70,4969.0,square4,r,0.0247,3,N,9.0
NS9,90.0,43.0,55.0,49.0,71.0,71,5040.0,square4,r,0.0018,3,N,9.0
NS9,91.0,41.0,46.0,54.0,78.0,78,5118.0,square4,r,0.1508,3,N,9.0
NS9,92.0,40.0,42.0,41.0,72.0,72,5190.0,square4,r,0.1803,3,N,9.0
NS9,93.0,39.0,43.0,47.0,70.0,70,5260.0,square4,r,0.0236,3,N,9.0
NS9,94.0,36.0,47.0,43.0,80.0,80,5340.0,square4,r,0.152,3,N,9.0
NS9,95.0,37.0,46.0,43.0,75.0,75,5415.0,square4,r,0.1333,3,N,9.0
NS9,96.0,39.0,47.0,47.0,75.0,75,5490.0,square4,r,0.1735,3,N,9.0
NS9,97.0,35.0,41.0,49.0,80.0,80,5570.0,square4,r,0.3638,3,N,9.0
NS9,98.0,33.0,45.0,56.0,74.0,74,5644.0,square4,r,0.1727,3,N,9.0
NS9,99.0,34.0,42.0,58.0,74.0,74,5718.0,square4,r,1.541,3,N,9.0
