block,Trial,square1,square2,square3,square4,currPoints,totalPoints,square,choiceKey.keys,choiceKey.rt,armNum,blockType,blockNum
prac,0.0,100.0,0.0,0.0,0.0,99999,0.0,invalid,,,-1,p,0.0
prac,1.0,100.0,0.0,0.0,0.0,99999,0.0,invalid,,,-1,p,0.0
prac,2.0,100.0,0.0,0.0,0.0,99999,0.0,invalid,,,-1,p,0.0
prac,3.0,100.0,0.0,0.0,0.0,99999,0.0,invalid,,,-1,p,0.0
prac,4.0,100.0,0.0,0.0,0.0,99999,0.0,invalid,,,-1,p,0.0
prac,5.0,100.0,0.0,0.0,0.0,99999,0.0,invalid,,,-1,p,0.0
prac,6.0,100.0,0.0,0.0,0.0,99999,0.0,invalid,,,-1,p,0.0
prac,7.0,100.0,0.0,0.0,0.0,99999,0.0,invalid,,,-1,p,0.0
prac,8.0,100.0,0.0,0.0,0.0,99999,0.0,invalid,,,-1,p,0.0
prac,9.0,100.0,0.0,0.0,0.0,99999,0.0,invalid,,,-1,p,0.0
V10,0.0,28.0,21.0,37.0,46.0,46,46.0,square4,r,0.9199,3,V,10.0
V10,1.0,26.0,19.0,41.0,49.0,26,72.0,square1,f,1.7932,0,V,10.0
V10,2.0,29.0,20.0,43.0,48.0,20,92.0,square2,j,1.0545,1,V,10.0
V10,3.0,27.0,27.0,37.0,44.0,44,136.0,square4,r,0.466,3,V,10.0
V10,4.0,28.0,16.0,36.0,47.0,47,183.0,square4,r,0.3834,3,V,10.0
V10,5.0,33.0,25.0,42.0,54.0,54,237.0,square4,r,0.4499,3,V,10.0
V10,6.0,28.0,19.0,35.0,45.0,45,282.0,square4,r,0.326,3,V,10.0
V10,7.0,30.0,24.0,35.0,49.0,49,331.0,square4,r,0.9107,3,V,10.0
V10,8.0,37.0,29.0,41.0,47.0,41,372.0,square3,i,0.2739,2,V,10.0
V10,9.0,28.0,21.0,41.0,48.0,48,420.0,square4,r,0.3111,3,V,10.0
V10,10.0,27.0,22.0,39.0,42.0,39,459.0,square3,i,0.3249,2,V,10.0
V10,11.0,32.0,16.0,41.0,48.0,16,475.0,square2,j,0.3036,1,V,10.0
V10,12.0,34.0,15.0,33.0,49.0,49,524.0,square4,r,0.358,3,V,10.0
V10,13.0,36.0,19.0,41.0,45.0,45,569.0,square4,r,0.3159,3,V,10.0
V10,14.0,28.0,23.0,35.0,53.0,53,622.0,square4,r,0.8259,3,V,10.0
V10,15.0,26.0,28.0,40.0,50.0,50,672.0,square4,r,0.3071,3,V,10.0
V10,16.0,30.0,25.0,42.0,47.0,47,719.0,square4,r,0.4247,3,V,10.0
V10,17.0,31.0,19.0,38.0,50.0,50,769.0,square4,r,0.3178,3,V,10.0
V10,18.0,34.0,21.0,35.0,48.0,34,803.0,square1,f,0.3733,0,V,10.0
V10,19.0,31.0,24.0,39.0,46.0,46,849.0,square4,r,0.3932,3,V,10.0
V10,20.0,28.0,22.0,42.0,47.0,47,896.0,square4,r,0.3285,3,V,10.0
V10,21.0,24.0,20.0,41.0,47.0,47,943.0,square4,r,0.3595,3,V,10.0
V10,22.0,32.0,22.0,34.0,44.0,44,987.0,square4,r,0.4667,3,V,10.0
V10,23.0,29.0,23.0,37.0,47.0,47,1034.0,square4,r,0.2139,3,V,10.0
V10,24.0,25.0,25.0,38.0,46.0,38,1072.0,square3,i,0.4118,2,V,10.0
V10,25.0,30.0,24.0,41.0,45.0,45,1117.0,square4,r,0.3901,3,V,10.0
V10,26.0,32.0,17.0,38.0,49.0,49,1166.0,square4,r,0.4612,3,V,10.0
V10,27.0,34.0,21.0,38.0,47.0,47,1213.0,square4,r,0.0094,3,V,10.0
V10,28.0,29.0,21.0,37.0,45.0,45,1258.0,square4,r,0.0675,3,V,10.0
V10,29.0,30.0,20.0,31.0,47.0,47,1305.0,square4,r,0.2032,3,V,10.0
V10,30.0,28.0,21.0,35.0,44.0,44,1349.0,square4,r,0.3647,3,V,10.0
V10,31.0,36.0,25.0,14.0,8.0,8,1357.0,square4,r,0.2596,3,V,10.0
V10,32.0,38.0,27.0,19.0,11.0,27,1384.0,square2,j,0.9633,1,V,10.0
V10,33.0,39.0,21.0,20.0,13.0,21,1405.0,square2,j,0.0085,1,V,10.0
V10,34.0,34.0,24.0,20.0,10.0,34,1439.0,square1,f,0.541,0,V,10.0
V10,35.0,44.0,29.0,17.0,11.0,17,1456.0,square3,i,0.0841,2,V,10.0
V10,36.0,33.0,30.0,17.0,9.0,33,1489.0,square1,f,0.2934,0,V,10.0
V10,37.0,31.0,27.0,12.0,6.0,31,1520.0,square1,f,0.2288,0,V,10.0
V10,38.0,34.0,29.0,15.0,10.0,34,1554.0,square1,f,0.3564,0,V,10.0
V10,39.0,35.0,21.0,19.0,5.0,35,1589.0,square1,f,0.1004,0,V,10.0
V10,40.0,32.0,26.0,18.0,6.0,32,1621.0,square1,f,0.3222,0,V,10.0
V10,41.0,34.0,32.0,13.0,9.0,9,1630.0,square4,r,0.495,3,V,10.0
V10,42.0,35.0,30.0,16.0,8.0,30,1660.0,square2,j,0.2426,1,V,10.0
V10,43.0,38.0,32.0,16.0,8.0,32,1692.0,square2,j,0.2897,1,V,10.0
V10,44.0,34.0,20.0,18.0,3.0,20,1712.0,square2,j,0.3394,1,V,10.0
V10,45.0,38.0,22.0,23.0,9.0,38,1750.0,square1,f,0.3394,0,V,10.0
V10,46.0,36.0,28.0,16.0,10.0,36,1786.0,square1,f,0.3096,0,V,10.0
V10,47.0,36.0,27.0,13.0,8.0,36,1822.0,square1,f,0.312,0,V,10.0
V10,48.0,35.0,27.0,14.0,12.0,35,1857.0,square1,f,0.3279,0,V,10.0
V10,49.0,33.0,28.0,16.0,10.0,33,1890.0,square1,f,0.275,0,V,10.0
V10,50.0,31.0,29.0,19.0,8.0,31,1921.0,square1,f,0.1498,0,V,10.0
V10,51.0,32.0,21.0,20.0,12.0,32,1953.0,square1,f,0.3515,0,V,10.0
V10,52.0,29.0,25.0,21.0,10.0,29,1982.0,square1,f,0.3247,0,V,10.0
V10,53.0,39.0,29.0,23.0,2.0,39,2021.0,square1,f,0.3129,0,V,10.0
V10,54.0,33.0,28.0,19.0,7.0,33,2054.0,square1,f,0.353,0,V,10.0
V10,55.0,34.0,24.0,15.0,8.0,34,2088.0,square1,f,0.3231,0,V,10.0
V10,56.0,35.0,20.0,21.0,9.0,35,2123.0,square1,f,0.3388,0,V,10.0
V10,57.0,33.0,27.0,19.0,7.0,33,2156.0,square1,f,0.0095,0,V,10.0
V10,58.0,38.0,24.0,16.0,7.0,38,2194.0,square1,f,0.0079,0,V,10.0
V10,59.0,34.0,29.0,15.0,5.0,34,2228.0,square1,f,0.0384,0,V,10.0
V10,60.0,34.0,22.0,19.0,9.0,34,2262.0,square1,f,0.1073,0,V,10.0
V10,61.0,39.0,31.0,20.0,10.0,39,2301.0,square1,f,0.0345,0,V,10.0
V10,62.0,35.0,24.0,18.0,6.0,35,2336.0,square1,f,0.2813,0,V,10.0
V10,63.0,35.0,26.0,18.0,9.0,35,2371.0,square1,f,0.1768,0,V,10.0
V10,64.0,31.0,55.0,23.0,23.0,31,2402.0,square1,f,0.0611,0,V,10.0
V10,65.0,35.0,50.0,22.0,27.0,35,2437.0,square1,f,0.1803,0,V,10.0
V10,66.0,35.0,53.0,25.0,29.0,25,2462.0,square3,i,0.4737,2,V,10.0
V10,67.0,38.0,44.0,17.0,29.0,17,2479.0,square3,i,0.3311,2,V,10.0
V10,68.0,36.0,48.0,22.0,27.0,36,2515.0,square1,f,0.3562,0,V,10.0
V10,69.0,41.0,53.0,17.0,28.0,41,2556.0,square1,f,0.2661,0,V,10.0
V10,70.0,40.0,48.0,23.0,28.0,28,2584.0,square4,r,0.3433,3,V,10.0
V10,71.0,39.0,43.0,24.0,20.0,39,2623.0,square1,f,0.4022,0,V,10.0
V10,72.0,36.0,49.0,19.0,25.0,36,2659.0,square1,f,0.0224,0,V,10.0
V10,73.0,39.0,49.0,23.0,32.0,39,2698.0,square1,f,0.4034,0,V,10.0
V10,74.0,36.0,44.0,17.0,29.0,36,2734.0,square1,f,0.4533,0,V,10.0
V10,75.0,37.0,46.0,20.0,30.0,37,2771.0,square1,f,0.0775,0,V,10.0
V10,76.0,38.0,47.0,23.0,30.0,38,2809.0,square1,f,0.295,0,V,10.0
V10,77.0,36.0,49.0,22.0,32.0,36,2845.0,square1,f,0.1742,0,V,10.0
V10,78.0,41.0,44.0,19.0,27.0,41,2886.0,square1,f,0.0988,0,V,10.0
V10,79.0,41.0,48.0,22.0,27.0,41,2927.0,square1,f,0.0105,0,V,10.0
V10,80.0,34.0,44.0,26.0,29.0,29,2956.0,square4,r,0.5848,3,V,10.0
V10,81.0,38.0,47.0,18.0,29.0,29,2985.0,square4,r,0.0686,3,V,10.0
V10,82.0,43.0,43.0,23.0,28.0,43,3028.0,square2,j,0.4025,1,V,10.0
V10,83.0,34.0,51.0,23.0,26.0,51,3079.0,square2,j,0.3783,1,V,10.0
V10,84.0,36.0,46.0,18.0,25.0,46,3125.0,square2,j,0.3112,1,V,10.0
V10,85.0,39.0,46.0,25.0,26.0,46,3171.0,square2,j,0.1217,1,V,10.0
V10,86.0,39.0,50.0,27.0,27.0,50,3221.0,square2,j,0.1549,1,V,10.0
V10,87.0,38.0,46.0,20.0,30.0,46,3267.0,square2,j,0.0706,1,V,10.0
V10,88.0,37.0,49.0,22.0,28.0,49,3316.0,square2,j,0.1469,1,V,10.0
V10,89.0,34.0,51.0,25.0,26.0,51,3367.0,square2,j,0.1379,1,V,10.0
V10,90.0,41.0,49.0,22.0,29.0,49,3416.0,square2,j,0.158,1,V,10.0
V10,91.0,37.0,45.0,26.0,32.0,45,3461.0,square2,j,0.1192,1,V,10.0
V10,92.0,42.0,42.0,27.0,28.0,42,3503.0,square2,j,0.0561,1,V,10.0
V10,93.0,41.0,48.0,19.0,36.0,48,3551.0,square2,j,0.1146,1,V,10.0
V10,94.0,43.0,49.0,23.0,31.0,49,3600.0,square2,j,0.0675,1,V,10.0
V10,95.0,39.0,46.0,18.0,27.0,46,3646.0,square2,j,0.1397,1,V,10.0
V10,96.0,37.0,48.0,24.0,27.0,48,3694.0,square2,j,0.072,1,V,10.0
V10,97.0,42.0,50.0,23.0,31.0,50,3744.0,square2,j,0.0191,1,V,10.0
V10,98.0,33.0,47.0,25.0,32.0,47,3791.0,square2,j,0.0249,1,V,10.0
V10,99.0,39.0,48.0,23.0,32.0,48,3839.0,square2,j,0.0184,1,V,10.0
V7,0.0,86.0,61.0,78.0,68.0,99999,0.0,invalid,,,-1,V,7.0
V7,1.0,95.0,62.0,79.0,70.0,70,70.0,square4,f,1.584,3,V,7.0
V7,2.0,89.0,67.0,81.0,77.0,77,147.0,square4,f,0.0649,3,V,7.0
V7,3.0,90.0,56.0,85.0,72.0,72,219.0,square4,f,0.0088,3,V,7.0
V7,4.0,91.0,65.0,77.0,71.0,71,290.0,square4,f,0.2146,3,V,7.0
V7,5.0,91.0,58.0,84.0,72.0,72,362.0,square4,f,0.1751,3,V,7.0
V7,6.0,94.0,65.0,87.0,72.0,72,434.0,square4,f,0.0091,3,V,7.0
V7,7.0,89.0,67.0,79.0,67.0,67,501.0,square4,f,0.0917,3,V,7.0
V7,8.0,91.0,65.0,84.0,68.0,68,569.0,square4,f,0.2244,3,V,7.0
V7,9.0,92.0,60.0,87.0,69.0,69,638.0,square4,f,0.0544,3,V,7.0
V7,10.0,90.0,67.0,81.0,76.0,76,714.0,square4,f,0.2287,3,V,7.0
V7,11.0,86.0,67.0,83.0,73.0,73,787.0,square4,f,0.187,3,V,7.0
V7,12.0,90.0,62.0,80.0,72.0,72,859.0,square4,f,0.141,3,V,7.0
V7,13.0,84.0,60.0,88.0,71.0,71,930.0,square4,f,0.1769,3,V,7.0
V7,14.0,95.0,64.0,80.0,70.0,70,1000.0,square4,f,0.1771,3,V,7.0
V7,15.0,86.0,60.0,81.0,70.0,70,1070.0,square4,f,0.1788,3,V,7.0
V7,16.0,85.0,65.0,77.0,69.0,69,1139.0,square4,f,0.1321,3,V,7.0
V7,17.0,91.0,65.0,81.0,70.0,70,1209.0,square4,f,0.0577,3,V,7.0
V7,18.0,95.0,61.0,81.0,76.0,76,1285.0,square4,f,0.1153,3,V,7.0
V7,19.0,90.0,58.0,79.0,72.0,72,1357.0,square4,f,0.0923,3,V,7.0
V7,20.0,94.0,68.0,80.0,79.0,79,1436.0,square4,f,0.1072,3,V,7.0
V7,21.0,92.0,66.0,82.0,70.0,70,1506.0,square4,f,0.132,3,V,7.0
V7,22.0,92.0,64.0,83.0,72.0,72,1578.0,square4,f,0.2265,3,V,7.0
V7,23.0,91.0,68.0,82.0,73.0,73,1651.0,square4,f,0.0136,3,V,7.0
V7,24.0,87.0,71.0,82.0,72.0,72,1723.0,square4,f,0.0418,3,V,7.0
V7,25.0,91.0,68.0,90.0,74.0,74,1797.0,square4,f,0.0839,3,V,7.0
V7,26.0,89.0,65.0,83.0,72.0,72,1869.0,square4,f,0.2893,3,V,7.0
V7,27.0,91.0,61.0,81.0,73.0,73,1942.0,square4,f,0.1682,3,V,7.0
V7,28.0,90.0,66.0,81.0,72.0,72,2014.0,square4,f,0.2119,3,V,7.0
V7,29.0,89.0,67.0,77.0,71.0,71,2085.0,square4,f,0.1194,3,V,7.0
V7,30.0,95.0,68.0,84.0,71.0,71,2156.0,square4,f,0.1456,3,V,7.0
V7,31.0,95.0,61.0,81.0,70.0,70,2226.0,square4,f,0.0078,3,V,7.0
V7,32.0,89.0,65.0,82.0,75.0,75,2301.0,square4,f,0.1955,3,V,7.0
V7,33.0,77.0,50.0,80.0,61.0,61,2362.0,square4,f,0.1301,3,V,7.0
V7,34.0,76.0,54.0,78.0,61.0,54,2416.0,square2,r,0.0106,1,V,7.0
V7,35.0,71.0,51.0,80.0,64.0,64,2480.0,square4,f,0.0741,3,V,7.0
V7,36.0,75.0,51.0,80.0,62.0,51,2531.0,square2,r,0.0992,1,V,7.0
V7,37.0,73.0,58.0,86.0,63.0,58,2589.0,square2,r,0.0781,1,V,7.0
V7,38.0,73.0,50.0,86.0,61.0,50,2639.0,square2,r,0.1545,1,V,7.0
V7,39.0,67.0,53.0,78.0,61.0,61,2700.0,square4,f,0.0091,3,V,7.0
V7,40.0,71.0,53.0,84.0,58.0,58,2758.0,square4,f,0.0395,3,V,7.0
V7,41.0,75.0,51.0,83.0,63.0,83,2841.0,square3,j,0.1471,2,V,7.0
V7,42.0,69.0,48.0,87.0,63.0,87,2928.0,square3,j,0.1362,2,V,7.0
V7,43.0,70.0,58.0,81.0,60.0,81,3009.0,square3,j,0.0865,2,V,7.0
V7,44.0,68.0,56.0,76.0,63.0,76,3085.0,square3,j,0.1387,2,V,7.0
V7,45.0,74.0,59.0,76.0,56.0,76,3161.0,square3,j,0.0738,2,V,7.0
V7,46.0,72.0,54.0,77.0,61.0,77,3238.0,square3,j,0.0106,2,V,7.0
V7,47.0,69.0,47.0,81.0,62.0,81,3319.0,square3,j,0.1357,2,V,7.0
V7,48.0,75.0,52.0,81.0,57.0,81,3400.0,square3,j,0.3381,2,V,7.0
V7,49.0,74.0,55.0,78.0,60.0,78,3478.0,square3,j,0.0204,2,V,7.0
V7,50.0,71.0,51.0,80.0,61.0,80,3558.0,square3,j,0.0257,2,V,7.0
V7,51.0,75.0,55.0,85.0,62.0,85,3643.0,square3,j,0.0078,2,V,7.0
V7,52.0,75.0,59.0,76.0,59.0,76,3719.0,square3,j,0.1539,2,V,7.0
V7,53.0,72.0,53.0,84.0,66.0,84,3803.0,square3,j,0.1596,2,V,7.0
V7,54.0,69.0,51.0,81.0,60.0,81,3884.0,square3,j,0.0521,2,V,7.0
V7,55.0,74.0,56.0,75.0,54.0,75,3959.0,square3,j,0.1572,2,V,7.0
V7,56.0,76.0,51.0,83.0,58.0,83,4042.0,square3,j,0.0834,2,V,7.0
V7,57.0,71.0,53.0,80.0,64.0,80,4122.0,square3,j,0.1716,2,V,7.0
V7,58.0,81.0,56.0,79.0,61.0,79,4201.0,square3,j,0.1098,2,V,7.0
V7,59.0,71.0,55.0,83.0,59.0,83,4284.0,square3,j,0.0581,2,V,7.0
V7,60.0,73.0,53.0,83.0,64.0,83,4367.0,square3,j,0.0611,2,V,7.0
V7,61.0,70.0,53.0,77.0,63.0,77,4444.0,square3,j,0.0105,2,V,7.0
V7,62.0,71.0,54.0,76.0,61.0,76,4520.0,square3,j,0.1371,2,V,7.0
V7,63.0,68.0,45.0,79.0,65.0,79,4599.0,square3,j,0.0647,2,V,7.0
V7,64.0,65.0,55.0,79.0,59.0,65,4664.0,square1,i,0.3418,0,V,7.0
V7,65.0,74.0,54.0,81.0,61.0,74,4738.0,square1,i,0.0472,0,V,7.0
V7,66.0,70.0,56.0,81.0,63.0,70,4808.0,square1,i,0.0709,0,V,7.0
V7,67.0,70.0,85.0,64.0,92.0,70,4878.0,square1,i,0.095,0,V,7.0
V7,68.0,73.0,85.0,68.0,92.0,73,4951.0,square1,i,0.069,0,V,7.0
V7,69.0,75.0,83.0,70.0,91.0,83,5034.0,square2,r,0.1293,1,V,7.0
V7,70.0,75.0,85.0,69.0,91.0,85,5119.0,square2,r,0.13,1,V,7.0
V7,71.0,71.0,86.0,65.0,94.0,86,5205.0,square2,r,0.0439,1,V,7.0
V7,72.0,77.0,86.0,65.0,98.0,86,5291.0,square2,r,0.0426,1,V,7.0
V7,73.0,77.0,84.0,63.0,94.0,84,5375.0,square2,r,0.0083,1,V,7.0
V7,74.0,71.0,86.0,64.0,91.0,86,5461.0,square2,r,0.106,1,V,7.0
V7,75.0,73.0,90.0,60.0,90.0,90,5551.0,square2,r,0.1247,1,V,7.0
V7,76.0,79.0,84.0,68.0,95.0,84,5635.0,square2,r,0.1318,1,V,7.0
V7,77.0,73.0,85.0,66.0,89.0,85,5720.0,square2,r,0.0535,1,V,7.0
V7,78.0,75.0,82.0,67.0,91.0,82,5802.0,square2,r,0.1978,1,V,7.0
V7,79.0,72.0,85.0,60.0,90.0,85,5887.0,square2,r,0.0846,1,V,7.0
V7,80.0,73.0,83.0,66.0,97.0,83,5970.0,square2,r,0.1869,1,V,7.0
V7,81.0,73.0,84.0,67.0,92.0,84,6054.0,square2,r,0.2006,1,V,7.0
V7,82.0,69.0,84.0,65.0,91.0,84,6138.0,square2,r,0.2071,1,V,7.0
V7,83.0,76.0,83.0,72.0,99.0,83,6221.0,square2,r,0.2179,1,V,7.0
V7,84.0,72.0,84.0,70.0,94.0,84,6305.0,square2,r,0.0794,1,V,7.0
V7,85.0,77.0,83.0,67.0,88.0,83,6388.0,square2,r,0.2238,1,V,7.0
V7,86.0,76.0,80.0,67.0,90.0,80,6468.0,square2,r,0.2522,1,V,7.0
V7,87.0,70.0,86.0,67.0,95.0,86,6554.0,square2,r,0.4281,1,V,7.0
V7,88.0,76.0,84.0,67.0,100.0,84,6638.0,square2,r,0.274,1,V,7.0
V7,89.0,71.0,88.0,60.0,97.0,88,6726.0,square2,r,0.1329,1,V,7.0
V7,90.0,69.0,82.0,71.0,95.0,82,6808.0,square2,r,0.026,1,V,7.0
V7,91.0,80.0,84.0,65.0,92.0,84,6892.0,square2,r,0.0604,1,V,7.0
V7,92.0,77.0,85.0,68.0,85.0,68,6960.0,square3,j,0.0341,2,V,7.0
V7,93.0,72.0,84.0,66.0,91.0,84,7044.0,square2,r,0.2161,1,V,7.0
V7,94.0,69.0,83.0,66.0,95.0,83,7127.0,square2,r,0.1883,1,V,7.0
V7,95.0,70.0,86.0,75.0,91.0,86,7213.0,square2,r,0.3963,1,V,7.0
V7,96.0,74.0,85.0,66.0,88.0,85,7298.0,square2,r,0.1588,1,V,7.0
V7,97.0,77.0,82.0,73.0,91.0,82,7380.0,square2,r,0.1171,1,V,7.0
V7,98.0,76.0,91.0,62.0,94.0,91,7471.0,square2,r,0.1504,1,V,7.0
V7,99.0,74.0,84.0,67.0,88.0,84,7555.0,square2,r,0.1473,1,V,7.0
V4,0.0,63.0,38.0,47.0,55.0,99999,0.0,invalid,,,-1,V,4.0
V4,1.0,66.0,42.0,43.0,59.0,66,66.0,square1,f,0.0496,0,V,4.0
V4,2.0,66.0,39.0,57.0,59.0,66,132.0,square1,f,0.346,0,V,4.0
V4,3.0,66.0,37.0,51.0,59.0,51,183.0,square3,r,0.0092,2,V,4.0
V4,4.0,69.0,37.0,50.0,55.0,55,238.0,square4,j,0.6752,3,V,4.0
V4,5.0,64.0,44.0,46.0,62.0,44,282.0,square2,i,0.3784,1,V,4.0
V4,6.0,75.0,43.0,49.0,57.0,75,357.0,square1,f,0.2546,0,V,4.0
V4,7.0,62.0,41.0,52.0,59.0,62,419.0,square1,f,0.1282,0,V,4.0
V4,8.0,65.0,41.0,44.0,60.0,65,484.0,square1,f,0.2686,0,V,4.0
V4,9.0,68.0,35.0,44.0,64.0,68,552.0,square1,f,0.1787,0,V,4.0
V4,10.0,67.0,44.0,48.0,61.0,67,619.0,square1,f,0.0565,0,V,4.0
V4,11.0,61.0,40.0,48.0,56.0,61,680.0,square1,f,0.1796,0,V,4.0
V4,12.0,68.0,41.0,49.0,55.0,68,748.0,square1,f,0.0721,0,V,4.0
V4,13.0,63.0,42.0,47.0,60.0,63,811.0,square1,f,0.0583,0,V,4.0
V4,14.0,63.0,40.0,51.0,55.0,63,874.0,square1,f,0.1255,0,V,4.0
V4,15.0,62.0,41.0,52.0,62.0,62,936.0,square1,f,0.2134,0,V,4.0
V4,16.0,69.0,37.0,47.0,60.0,47,983.0,square3,r,0.0459,2,V,4.0
V4,17.0,66.0,40.0,48.0,56.0,48,1031.0,square3,r,0.0261,2,V,4.0
V4,18.0,67.0,43.0,47.0,59.0,67,1098.0,square1,f,0.1331,0,V,4.0
V4,19.0,64.0,42.0,51.0,59.0,64,1162.0,square1,f,0.1512,0,V,4.0
V4,20.0,67.0,40.0,47.0,58.0,67,1229.0,square1,f,0.2227,0,V,4.0
V4,21.0,60.0,41.0,50.0,59.0,60,1289.0,square1,f,0.0659,0,V,4.0
V4,22.0,66.0,43.0,54.0,55.0,66,1355.0,square1,f,0.045,0,V,4.0
V4,23.0,67.0,37.0,50.0,62.0,67,1422.0,square1,f,0.1944,0,V,4.0
V4,24.0,67.0,37.0,49.0,60.0,67,1489.0,square1,f,0.0621,0,V,4.0
V4,25.0,67.0,39.0,55.0,52.0,67,1556.0,square1,f,0.0397,0,V,4.0
V4,26.0,64.0,39.0,51.0,63.0,64,1620.0,square1,f,0.0428,0,V,4.0
V4,27.0,68.0,36.0,55.0,60.0,68,1688.0,square1,f,0.0946,0,V,4.0
V4,28.0,67.0,40.0,46.0,54.0,67,1755.0,square1,f,0.0801,0,V,4.0
V4,29.0,67.0,41.0,50.0,57.0,67,1822.0,square1,f,0.1894,0,V,4.0
V4,30.0,66.0,39.0,49.0,53.0,53,1875.0,square4,j,0.1629,3,V,4.0
V4,31.0,70.0,38.0,48.0,58.0,58,1933.0,square4,j,0.0961,3,V,4.0
V4,32.0,63.0,40.0,53.0,61.0,61,1994.0,square4,j,0.091,3,V,4.0
V4,33.0,66.0,41.0,51.0,56.0,56,2050.0,square4,j,0.1114,3,V,4.0
V4,34.0,64.0,39.0,46.0,57.0,57,2107.0,square4,j,0.0785,3,V,4.0
V4,35.0,69.0,36.0,50.0,58.0,36,2143.0,square2,i,0.0367,1,V,4.0
V4,36.0,60.0,43.0,53.0,54.0,43,2186.0,square2,i,0.0411,1,V,4.0
V4,37.0,52.0,78.0,68.0,66.0,78,2264.0,square2,i,0.0966,1,V,4.0
V4,38.0,44.0,81.0,68.0,62.0,81,2345.0,square2,i,0.1496,1,V,4.0
V4,39.0,59.0,71.0,70.0,63.0,71,2416.0,square2,i,0.2202,1,V,4.0
V4,40.0,53.0,77.0,73.0,59.0,77,2493.0,square2,i,0.01,1,V,4.0
V4,41.0,53.0,76.0,74.0,66.0,76,2569.0,square2,i,0.1156,1,V,4.0
V4,42.0,51.0,79.0,73.0,59.0,79,2648.0,square2,i,0.0561,1,V,4.0
V4,43.0,48.0,76.0,68.0,65.0,76,2724.0,square2,i,0.0873,1,V,4.0
V4,44.0,57.0,83.0,78.0,63.0,83,2807.0,square2,i,0.1197,1,V,4.0
V4,45.0,54.0,74.0,69.0,61.0,74,2881.0,square2,i,0.1578,1,V,4.0
V4,46.0,53.0,85.0,66.0,62.0,85,2966.0,square2,i,0.0745,1,V,4.0
V4,47.0,56.0,83.0,68.0,57.0,83,3049.0,square2,i,0.0355,1,V,4.0
V4,48.0,49.0,74.0,73.0,59.0,74,3123.0,square2,i,0.053,1,V,4.0
V4,49.0,54.0,74.0,70.0,60.0,74,3197.0,square2,i,0.0915,1,V,4.0
V4,50.0,47.0,83.0,69.0,60.0,83,3280.0,square2,i,0.0225,1,V,4.0
V4,51.0,54.0,78.0,73.0,56.0,78,3358.0,square2,i,0.1073,1,V,4.0
V4,52.0,52.0,76.0,71.0,58.0,76,3434.0,square2,i,0.0748,1,V,4.0
V4,53.0,51.0,82.0,76.0,63.0,82,3516.0,square2,i,0.0405,1,V,4.0
V4,54.0,57.0,76.0,69.0,64.0,76,3592.0,square2,i,0.0216,1,V,4.0
V4,55.0,49.0,75.0,68.0,59.0,75,3667.0,square2,i,0.0379,1,V,4.0
V4,56.0,55.0,81.0,66.0,65.0,81,3748.0,square2,i,0.0563,1,V,4.0
V4,57.0,58.0,80.0,72.0,63.0,80,3828.0,square2,i,0.0883,1,V,4.0
V4,58.0,49.0,81.0,66.0,62.0,81,3909.0,square2,i,0.0995,1,V,4.0
V4,59.0,57.0,78.0,73.0,59.0,78,3987.0,square2,i,0.1278,1,V,4.0
V4,60.0,48.0,79.0,66.0,59.0,79,4066.0,square2,i,0.0836,1,V,4.0
V4,61.0,53.0,80.0,72.0,60.0,80,4146.0,square2,i,0.12,1,V,4.0
V4,62.0,53.0,79.0,70.0,61.0,79,4225.0,square2,i,0.0159,1,V,4.0
V4,63.0,81.0,66.0,90.0,66.0,66,4291.0,square2,i,0.0699,1,V,4.0
V4,64.0,80.0,64.0,85.0,76.0,64,4355.0,square2,i,0.0473,1,V,4.0
V4,65.0,77.0,61.0,92.0,74.0,61,4416.0,square2,i,0.9864,1,V,4.0
V4,66.0,89.0,65.0,91.0,73.0,65,4481.0,square2,i,0.2526,1,V,4.0
V4,67.0,86.0,64.0,92.0,70.0,64,4545.0,square2,i,0.274,1,V,4.0
V4,68.0,82.0,60.0,91.0,77.0,60,4605.0,square2,i,0.0402,1,V,4.0
V4,69.0,78.0,69.0,90.0,70.0,69,4674.0,square2,i,0.0304,1,V,4.0
V4,70.0,85.0,64.0,95.0,73.0,64,4738.0,square2,i,0.009,1,V,4.0
V4,71.0,85.0,61.0,88.0,69.0,88,4826.0,square3,r,0.1416,2,V,4.0
V4,72.0,86.0,63.0,87.0,75.0,87,4913.0,square3,r,0.0508,2,V,4.0
V4,73.0,86.0,69.0,92.0,70.0,92,5005.0,square3,r,0.1139,2,V,4.0
V4,74.0,81.0,62.0,90.0,69.0,90,5095.0,square3,r,0.1725,2,V,4.0
V4,75.0,83.0,66.0,88.0,74.0,88,5183.0,square3,r,0.1524,2,V,4.0
V4,76.0,80.0,64.0,92.0,75.0,92,5275.0,square3,r,0.0747,2,V,4.0
V4,77.0,81.0,65.0,91.0,74.0,91,5366.0,square3,r,0.0302,2,V,4.0
V4,78.0,78.0,70.0,89.0,73.0,89,5455.0,square3,r,0.0806,2,V,4.0
V4,79.0,84.0,66.0,85.0,75.0,85,5540.0,square3,r,0.086,2,V,4.0
V4,80.0,83.0,65.0,93.0,74.0,93,5633.0,square3,r,0.0855,2,V,4.0
V4,81.0,86.0,59.0,91.0,74.0,91,5724.0,square3,r,0.0906,2,V,4.0
V4,82.0,87.0,64.0,92.0,73.0,92,5816.0,square3,r,0.1658,2,V,4.0
V4,83.0,83.0,68.0,86.0,70.0,86,5902.0,square3,r,0.0116,2,V,4.0
V4,84.0,82.0,62.0,87.0,73.0,87,5989.0,square3,r,0.1828,2,V,4.0
V4,85.0,85.0,61.0,90.0,70.0,90,6079.0,square3,r,0.0352,2,V,4.0
V4,86.0,84.0,66.0,97.0,71.0,97,6176.0,square3,r,0.1548,2,V,4.0
V4,87.0,82.0,64.0,87.0,71.0,87,6263.0,square3,r,0.0721,2,V,4.0
V4,88.0,80.0,67.0,93.0,72.0,93,6356.0,square3,r,0.0697,2,V,4.0
V4,89.0,78.0,64.0,92.0,75.0,92,6448.0,square3,r,0.146,2,V,4.0
V4,90.0,75.0,66.0,88.0,72.0,88,6536.0,square3,r,0.0971,2,V,4.0
V4,91.0,82.0,59.0,91.0,76.0,91,6627.0,square3,r,0.1505,2,V,4.0
V4,92.0,84.0,62.0,91.0,70.0,91,6718.0,square3,r,0.0346,2,V,4.0
V4,93.0,80.0,61.0,94.0,76.0,94,6812.0,square3,r,0.2384,2,V,4.0
V4,94.0,83.0,64.0,88.0,72.0,88,6900.0,square3,r,0.0105,2,V,4.0
V4,95.0,82.0,60.0,94.0,69.0,94,6994.0,square3,r,0.1072,2,V,4.0
V4,96.0,84.0,63.0,92.0,72.0,92,7086.0,square3,r,0.1346,2,V,4.0
V4,97.0,84.0,62.0,85.0,70.0,85,7171.0,square3,r,0.1187,2,V,4.0
V4,98.0,81.0,64.0,93.0,72.0,93,7264.0,square3,r,0.172,2,V,4.0
V4,99.0,80.0,61.0,92.0,75.0,92,7356.0,square3,r,0.2473,2,V,4.0
S5,0.0,90.0,70.0,79.0,84.0,70,70.0,square2,f,1.6009,1,S,5.0
S5,1.0,92.0,77.0,83.0,81.0,77,147.0,square2,f,0.1396,1,S,5.0
S5,2.0,83.0,72.0,81.0,76.0,72,219.0,square2,f,0.1072,1,S,5.0
S5,3.0,87.0,72.0,79.0,81.0,72,291.0,square2,f,0.1852,1,S,5.0
S5,4.0,86.0,81.0,78.0,72.0,86,377.0,square1,j,0.1174,0,S,5.0
S5,5.0,89.0,70.0,79.0,83.0,89,466.0,square1,j,0.042,0,S,5.0
S5,6.0,86.0,69.0,81.0,81.0,86,552.0,square1,j,0.1111,0,S,5.0
S5,7.0,82.0,72.0,86.0,80.0,82,634.0,square1,j,0.1106,0,S,5.0
S5,8.0,84.0,67.0,80.0,77.0,84,718.0,square1,j,0.0684,0,S,5.0
S5,9.0,92.0,80.0,86.0,84.0,92,810.0,square1,j,0.1106,0,S,5.0
S5,10.0,82.0,71.0,80.0,80.0,82,892.0,square1,j,0.069,0,S,5.0
S5,11.0,80.0,75.0,79.0,75.0,80,972.0,square1,j,0.1384,0,S,5.0
S5,12.0,84.0,75.0,80.0,82.0,84,1056.0,square1,j,0.1272,0,S,5.0
S5,13.0,85.0,74.0,74.0,81.0,85,1141.0,square1,j,0.1107,0,S,5.0
S5,14.0,81.0,79.0,85.0,81.0,81,1222.0,square1,j,0.074,0,S,5.0
S5,15.0,81.0,75.0,76.0,77.0,81,1303.0,square1,j,0.1615,0,S,5.0
S5,16.0,86.0,74.0,78.0,74.0,86,1389.0,square1,j,0.0086,0,S,5.0
S5,17.0,81.0,77.0,81.0,77.0,81,1470.0,square1,j,0.0432,0,S,5.0
S5,18.0,87.0,70.0,84.0,82.0,87,1557.0,square1,j,0.0875,0,S,5.0
S5,19.0,84.0,76.0,83.0,76.0,84,1641.0,square1,j,0.0888,0,S,5.0
S5,20.0,79.0,78.0,82.0,76.0,79,1720.0,square1,j,0.092,0,S,5.0
S5,21.0,86.0,68.0,80.0,72.0,86,1806.0,square1,j,0.0521,0,S,5.0
S5,22.0,93.0,80.0,85.0,84.0,85,1891.0,square3,i,0.0546,2,S,5.0
S5,23.0,87.0,73.0,76.0,70.0,76,1967.0,square3,i,0.0941,2,S,5.0
S5,24.0,85.0,69.0,81.0,78.0,81,2048.0,square3,i,0.0737,2,S,5.0
S5,25.0,89.0,77.0,77.0,76.0,77,2125.0,square3,i,0.0098,2,S,5.0
S5,26.0,84.0,71.0,81.0,75.0,81,2206.0,square3,i,0.03,2,S,5.0
S5,27.0,84.0,75.0,82.0,71.0,82,2288.0,square3,i,0.0576,2,S,5.0
S5,28.0,83.0,72.0,82.0,78.0,78,2366.0,square4,r,0.0112,3,S,5.0
S5,29.0,91.0,67.0,79.0,74.0,74,2440.0,square4,r,0.0853,3,S,5.0
S5,30.0,82.0,69.0,81.0,77.0,77,2517.0,square4,r,0.1212,3,S,5.0
S5,31.0,82.0,72.0,80.0,78.0,82,2599.0,square1,j,0.0436,0,S,5.0
S5,32.0,83.0,73.0,91.0,80.0,83,2682.0,square1,j,0.1668,0,S,5.0
S5,33.0,83.0,68.0,85.0,78.0,83,2765.0,square1,j,0.1238,0,S,5.0
S5,34.0,89.0,79.0,83.0,77.0,79,2844.0,square2,f,0.1724,1,S,5.0
S5,35.0,88.0,72.0,79.0,80.0,72,2916.0,square2,f,0.1419,1,S,5.0
S5,36.0,90.0,74.0,84.0,76.0,90,3006.0,square1,j,0.0633,0,S,5.0
S5,37.0,85.0,75.0,80.0,82.0,85,3091.0,square1,j,0.0851,0,S,5.0
S5,38.0,78.0,74.0,85.0,79.0,78,3169.0,square1,j,0.1449,0,S,5.0
S5,39.0,87.0,73.0,87.0,85.0,87,3256.0,square1,j,0.0151,0,S,5.0
S5,40.0,83.0,67.0,81.0,80.0,83,3339.0,square1,j,0.1687,0,S,5.0
S5,41.0,82.0,69.0,88.0,80.0,82,3421.0,square1,j,0.1875,0,S,5.0
S5,42.0,85.0,78.0,91.0,80.0,85,3506.0,square1,j,0.016,0,S,5.0
S5,43.0,89.0,74.0,78.0,74.0,89,3595.0,square1,j,0.1928,0,S,5.0
S5,44.0,90.0,74.0,77.0,85.0,90,3685.0,square1,j,0.0227,0,S,5.0
S5,45.0,89.0,68.0,81.0,78.0,89,3774.0,square1,j,0.1867,0,S,5.0
S5,46.0,86.0,70.0,86.0,68.0,86,3860.0,square1,j,0.043,0,S,5.0
S5,47.0,90.0,77.0,85.0,84.0,90,3950.0,square1,j,0.0933,0,S,5.0
S5,48.0,76.0,66.0,82.0,79.0,76,4026.0,square1,j,0.0581,0,S,5.0
S5,49.0,84.0,73.0,82.0,75.0,84,4110.0,square1,j,0.2043,0,S,5.0
S12,0.0,38.0,42.0,30.0,42.0,30,30.0,square3,f,0.625,2,S,12.0
S12,1.0,30.0,42.0,28.0,37.0,28,58.0,square3,f,0.0708,2,S,12.0
S12,2.0,34.0,41.0,38.0,43.0,34,92.0,square1,i,0.0734,0,S,12.0
S12,3.0,38.0,51.0,38.0,38.0,38,130.0,square1,i,0.079,0,S,12.0
S12,4.0,32.0,37.0,33.0,45.0,45,175.0,square4,j,0.13,3,S,12.0
S12,5.0,38.0,52.0,36.0,35.0,35,210.0,square4,j,0.0267,3,S,12.0
S12,6.0,30.0,43.0,30.0,38.0,43,253.0,square2,r,0.1336,1,S,12.0
S12,7.0,38.0,39.0,30.0,39.0,39,292.0,square2,r,0.1397,1,S,12.0
S12,8.0,37.0,49.0,35.0,38.0,35,327.0,square3,f,0.0206,2,S,12.0
S12,9.0,37.0,44.0,29.0,38.0,29,356.0,square3,f,0.1132,2,S,12.0
S12,10.0,35.0,42.0,30.0,45.0,45,401.0,square4,j,0.0894,3,S,12.0
S12,11.0,34.0,45.0,36.0,32.0,32,433.0,square4,j,0.0457,3,S,12.0
S12,12.0,33.0,45.0,35.0,42.0,42,475.0,square4,j,0.0232,3,S,12.0
S12,13.0,36.0,36.0,29.0,40.0,36,511.0,square1,i,0.078,0,S,12.0
S12,14.0,36.0,49.0,32.0,42.0,36,547.0,square1,i,0.0104,0,S,12.0
S12,15.0,35.0,43.0,35.0,46.0,35,582.0,square1,i,0.136,0,S,12.0
S12,16.0,39.0,48.0,41.0,43.0,48,630.0,square2,r,0.1828,1,S,12.0
S12,17.0,35.0,47.0,27.0,38.0,47,677.0,square2,r,0.1189,1,S,12.0
S12,18.0,37.0,51.0,33.0,33.0,51,728.0,square2,r,0.181,1,S,12.0
S12,19.0,41.0,42.0,33.0,36.0,42,770.0,square2,r,0.0311,1,S,12.0
S12,20.0,34.0,44.0,26.0,41.0,44,814.0,square2,r,0.1323,1,S,12.0
S12,21.0,35.0,37.0,29.0,35.0,37,851.0,square2,r,0.073,1,S,12.0
S12,22.0,37.0,48.0,31.0,41.0,48,899.0,square2,r,0.0092,1,S,12.0
S12,23.0,36.0,43.0,27.0,45.0,43,942.0,square2,r,0.2058,1,S,12.0
S12,24.0,39.0,48.0,38.0,38.0,48,990.0,square2,r,0.0095,1,S,12.0
S12,25.0,31.0,43.0,30.0,40.0,30,1020.0,square3,f,0.3259,2,S,12.0
S12,26.0,35.0,48.0,34.0,33.0,34,1054.0,square3,f,0.0807,2,S,12.0
S12,27.0,46.0,46.0,28.0,38.0,46,1100.0,square2,r,0.143,1,S,12.0
S12,28.0,32.0,37.0,32.0,40.0,32,1132.0,square1,i,0.0104,0,S,12.0
S12,29.0,38.0,41.0,32.0,44.0,44,1176.0,square4,j,0.194,3,S,12.0
S12,30.0,32.0,48.0,29.0,42.0,42,1218.0,square4,j,0.1347,3,S,12.0
S12,31.0,34.0,46.0,30.0,42.0,46,1264.0,square2,r,0.1496,1,S,12.0
S12,32.0,39.0,43.0,41.0,40.0,43,1307.0,square2,r,0.14,1,S,12.0
S12,33.0,36.0,47.0,33.0,46.0,47,1354.0,square2,r,0.1715,1,S,12.0
S12,34.0,36.0,41.0,34.0,41.0,41,1395.0,square2,r,0.1949,1,S,12.0
S12,35.0,34.0,42.0,31.0,43.0,42,1437.0,square2,r,0.0508,1,S,12.0
S12,36.0,39.0,43.0,26.0,33.0,43,1480.0,square2,r,0.1761,1,S,12.0
S12,37.0,39.0,49.0,30.0,42.0,49,1529.0,square2,r,0.0882,1,S,12.0
S12,38.0,33.0,47.0,36.0,41.0,47,1576.0,square2,r,0.1698,1,S,12.0
S12,39.0,29.0,46.0,35.0,36.0,46,1622.0,square2,r,0.1597,1,S,12.0
S12,40.0,39.0,39.0,29.0,36.0,39,1661.0,square2,r,0.1735,1,S,12.0
S12,41.0,33.0,44.0,31.0,40.0,44,1705.0,square2,r,0.203,1,S,12.0
S12,42.0,34.0,46.0,25.0,37.0,46,1751.0,square2,r,0.0906,1,S,12.0
S12,43.0,37.0,42.0,30.0,42.0,42,1793.0,square2,r,0.1316,1,S,12.0
S12,44.0,33.0,49.0,36.0,39.0,49,1842.0,square2,r,0.2744,1,S,12.0
S12,45.0,35.0,40.0,30.0,47.0,40,1882.0,square2,r,0.1263,1,S,12.0
S12,46.0,40.0,41.0,29.0,35.0,41,1923.0,square2,r,0.0503,1,S,12.0
S12,47.0,32.0,42.0,28.0,43.0,42,1965.0,square2,r,0.1515,1,S,12.0
S12,48.0,43.0,47.0,31.0,38.0,47,2012.0,square2,r,0.0218,1,S,12.0
S12,49.0,37.0,41.0,35.0,40.0,41,2053.0,square2,r,0.0313,1,S,12.0
S1,0.0,72.0,58.0,70.0,66.0,70,70.0,square3,i,0.4301,2,S,1.0
S1,1.0,75.0,64.0,66.0,69.0,66,136.0,square3,i,0.1102,2,S,1.0
S1,2.0,75.0,62.0,62.0,79.0,62,198.0,square3,i,0.1492,2,S,1.0
S1,3.0,68.0,62.0,63.0,69.0,62,260.0,square2,j,0.132,1,S,1.0
S1,4.0,82.0,63.0,64.0,73.0,63,323.0,square2,j,0.0689,1,S,1.0
S1,5.0,66.0,70.0,65.0,73.0,73,396.0,square4,f,0.1201,3,S,1.0
S1,6.0,73.0,65.0,62.0,65.0,65,461.0,square4,f,0.1046,3,S,1.0
S1,7.0,70.0,61.0,65.0,66.0,70,531.0,square1,r,0.184,0,S,1.0
S1,8.0,78.0,63.0,67.0,68.0,68,599.0,square4,f,0.2912,3,S,1.0
S1,9.0,74.0,67.0,66.0,68.0,68,667.0,square4,f,0.0729,3,S,1.0
S1,10.0,73.0,59.0,68.0,68.0,73,740.0,square1,r,0.2579,0,S,1.0
S1,11.0,76.0,65.0,62.0,81.0,76,816.0,square1,r,0.0679,0,S,1.0
S1,12.0,77.0,66.0,69.0,63.0,77,893.0,square1,r,0.0835,0,S,1.0
S1,13.0,75.0,63.0,68.0,73.0,75,968.0,square1,r,0.1441,0,S,1.0
S1,14.0,67.0,60.0,67.0,69.0,67,1035.0,square1,r,0.026,0,S,1.0
S1,15.0,70.0,63.0,69.0,73.0,63,1098.0,square2,j,0.1152,1,S,1.0
S1,16.0,69.0,61.0,69.0,69.0,61,1159.0,square2,j,0.1481,1,S,1.0
S1,17.0,73.0,68.0,67.0,73.0,68,1227.0,square2,j,0.1203,1,S,1.0
S1,18.0,70.0,58.0,73.0,66.0,73,1300.0,square3,i,0.0236,2,S,1.0
S1,19.0,75.0,58.0,62.0,68.0,62,1362.0,square3,i,0.1204,2,S,1.0
S1,20.0,76.0,58.0,72.0,67.0,72,1434.0,square3,i,0.135,2,S,1.0
S1,21.0,69.0,66.0,66.0,67.0,66,1500.0,square3,i,0.1463,2,S,1.0
S1,22.0,70.0,68.0,65.0,65.0,70,1570.0,square1,r,0.1111,0,S,1.0
S1,23.0,71.0,60.0,64.0,64.0,71,1641.0,square1,r,0.1768,0,S,1.0
S1,24.0,70.0,72.0,62.0,67.0,70,1711.0,square1,r,0.1355,0,S,1.0
S1,25.0,68.0,60.0,70.0,65.0,68,1779.0,square1,r,0.0384,0,S,1.0
S1,26.0,76.0,64.0,72.0,69.0,76,1855.0,square1,r,0.0154,0,S,1.0
S1,27.0,71.0,56.0,70.0,65.0,71,1926.0,square1,r,0.0857,0,S,1.0
S1,28.0,67.0,67.0,71.0,76.0,67,1993.0,square1,r,0.0519,0,S,1.0
S1,29.0,78.0,64.0,64.0,74.0,74,2067.0,square4,f,0.2555,3,S,1.0
S1,30.0,74.0,63.0,65.0,71.0,71,2138.0,square4,f,0.0239,3,S,1.0
S1,31.0,78.0,58.0,69.0,69.0,69,2207.0,square4,f,0.0777,3,S,1.0
S1,32.0,71.0,67.0,68.0,60.0,60,2267.0,square4,f,0.2411,3,S,1.0
S1,33.0,68.0,63.0,65.0,73.0,68,2335.0,square1,r,1.0903,0,S,1.0
S1,34.0,71.0,62.0,74.0,73.0,71,2406.0,square1,r,0.0369,0,S,1.0
S1,35.0,75.0,59.0,67.0,77.0,75,2481.0,square1,r,0.2848,0,S,1.0
S1,36.0,77.0,60.0,66.0,67.0,77,2558.0,square1,r,0.0869,0,S,1.0
S1,37.0,69.0,60.0,69.0,75.0,69,2627.0,square1,r,0.1445,0,S,1.0
S1,38.0,77.0,64.0,62.0,70.0,77,2704.0,square1,r,0.2292,0,S,1.0
S1,39.0,72.0,66.0,69.0,65.0,72,2776.0,square1,r,0.1678,0,S,1.0
S1,40.0,69.0,63.0,66.0,69.0,69,2845.0,square1,r,0.0097,0,S,1.0
S1,41.0,72.0,62.0,70.0,70.0,72,2917.0,square1,r,0.3877,0,S,1.0
S1,42.0,78.0,60.0,63.0,62.0,78,2995.0,square1,r,0.1403,0,S,1.0
S1,43.0,71.0,62.0,67.0,73.0,71,3066.0,square1,r,0.1264,0,S,1.0
S1,44.0,75.0,63.0,69.0,73.0,75,3141.0,square1,r,0.1811,0,S,1.0
S1,45.0,66.0,60.0,68.0,73.0,66,3207.0,square1,r,0.2831,0,S,1.0
S1,46.0,74.0,67.0,69.0,71.0,74,3281.0,square1,r,0.0088,0,S,1.0
S1,47.0,71.0,66.0,68.0,70.0,71,3352.0,square1,r,0.2754,0,S,1.0
S1,48.0,72.0,75.0,71.0,77.0,72,3424.0,square1,r,0.2071,0,S,1.0
S1,49.0,65.0,57.0,66.0,75.0,65,3489.0,square1,r,0.1763,0,S,1.0
S10,0.0,72.0,76.0,80.0,64.0,76,76.0,square2,f,1.0183,1,S,10.0
S10,1.0,76.0,75.0,74.0,65.0,75,151.0,square2,f,0.1339,1,S,10.0
S10,2.0,70.0,72.0,79.0,74.0,72,223.0,square2,f,0.1074,1,S,10.0
S10,3.0,69.0,77.0,76.0,68.0,77,300.0,square2,f,0.0933,1,S,10.0
S10,4.0,72.0,79.0,77.0,70.0,72,372.0,square1,i,0.0419,0,S,10.0
S10,5.0,68.0,74.0,72.0,64.0,68,440.0,square1,i,0.1355,0,S,10.0
S10,6.0,70.0,77.0,72.0,62.0,72,512.0,square3,j,0.1661,2,S,10.0
S10,7.0,78.0,81.0,80.0,74.0,80,592.0,square3,j,0.1077,2,S,10.0
S10,8.0,78.0,78.0,82.0,66.0,82,674.0,square3,j,0.0934,2,S,10.0
S10,9.0,69.0,76.0,77.0,65.0,77,751.0,square3,j,0.1216,2,S,10.0
S10,10.0,72.0,78.0,72.0,75.0,72,823.0,square3,j,0.0291,2,S,10.0
S10,11.0,71.0,76.0,78.0,66.0,66,889.0,square4,r,0.0424,3,S,10.0
S10,12.0,73.0,83.0,79.0,69.0,79,968.0,square3,j,0.1626,2,S,10.0
S10,13.0,68.0,77.0,65.0,65.0,65,1033.0,square3,j,0.0224,2,S,10.0
S10,14.0,69.0,84.0,79.0,65.0,79,1112.0,square3,j,0.1176,2,S,10.0
S10,15.0,72.0,84.0,70.0,71.0,70,1182.0,square3,j,0.1234,2,S,10.0
S10,16.0,79.0,80.0,82.0,67.0,82,1264.0,square3,j,0.0743,2,S,10.0
S10,17.0,69.0,83.0,75.0,70.0,75,1339.0,square3,j,0.162,2,S,10.0
S10,18.0,69.0,75.0,69.0,68.0,69,1408.0,square3,j,0.0099,2,S,10.0
S10,19.0,70.0,83.0,73.0,66.0,73,1481.0,square3,j,0.1802,2,S,10.0
S10,20.0,69.0,83.0,75.0,66.0,75,1556.0,square3,j,0.1641,2,S,10.0
S10,21.0,77.0,70.0,75.0,70.0,75,1631.0,square3,j,0.1849,2,S,10.0
S10,22.0,73.0,77.0,81.0,69.0,81,1712.0,square3,j,0.056,2,S,10.0
S10,23.0,73.0,78.0,70.0,65.0,70,1782.0,square3,j,0.0243,2,S,10.0
S10,24.0,70.0,80.0,75.0,66.0,75,1857.0,square3,j,0.1081,2,S,10.0
S10,25.0,70.0,80.0,73.0,72.0,73,1930.0,square3,j,0.1483,2,S,10.0
S10,26.0,73.0,75.0,73.0,75.0,73,2003.0,square3,j,0.0616,2,S,10.0
S10,27.0,77.0,81.0,83.0,66.0,83,2086.0,square3,j,0.1656,2,S,10.0
S10,28.0,73.0,79.0,79.0,73.0,79,2165.0,square3,j,0.0875,2,S,10.0
S10,29.0,73.0,79.0,72.0,69.0,72,2237.0,square3,j,0.1162,2,S,10.0
S10,30.0,71.0,85.0,79.0,69.0,79,2316.0,square3,j,0.0316,2,S,10.0
S10,31.0,71.0,85.0,83.0,66.0,83,2399.0,square3,j,0.0099,2,S,10.0
S10,32.0,78.0,79.0,77.0,65.0,77,2476.0,square3,j,0.1184,2,S,10.0
S10,33.0,83.0,79.0,72.0,68.0,72,2548.0,square3,j,0.1006,2,S,10.0
S10,34.0,68.0,74.0,79.0,72.0,79,2627.0,square3,j,0.1143,2,S,10.0
S10,35.0,70.0,83.0,79.0,67.0,79,2706.0,square3,j,0.1083,2,S,10.0
S10,36.0,67.0,76.0,75.0,72.0,75,2781.0,square3,j,0.1684,2,S,10.0
S10,37.0,76.0,82.0,79.0,60.0,79,2860.0,square3,j,0.0112,2,S,10.0
S10,38.0,72.0,75.0,69.0,68.0,69,2929.0,square3,j,0.1145,2,S,10.0
S10,39.0,73.0,78.0,76.0,70.0,76,3005.0,square3,j,0.06,2,S,10.0
S10,40.0,76.0,77.0,66.0,60.0,66,3071.0,square3,j,0.1245,2,S,10.0
S10,41.0,74.0,83.0,73.0,67.0,73,3144.0,square3,j,0.1369,2,S,10.0
S10,42.0,72.0,69.0,80.0,63.0,72,3216.0,square1,i,0.0815,0,S,10.0
S10,43.0,69.0,74.0,72.0,68.0,69,3285.0,square1,i,0.0343,0,S,10.0
S10,44.0,67.0,76.0,70.0,65.0,67,3352.0,square1,i,0.0304,0,S,10.0
S10,45.0,76.0,81.0,74.0,72.0,76,3428.0,square1,i,0.0081,0,S,10.0
S10,46.0,76.0,79.0,76.0,66.0,76,3504.0,square1,i,0.0224,0,S,10.0
S10,47.0,67.0,81.0,84.0,60.0,67,3571.0,square1,i,0.1774,0,S,10.0
S10,48.0,73.0,83.0,75.0,66.0,73,3644.0,square1,i,0.0091,0,S,10.0
S10,49.0,66.0,77.0,74.0,71.0,66,3710.0,square1,i,0.0548,0,S,10.0
S3,0.0,38.0,48.0,42.0,57.0,57,57.0,square4,f,1.446,3,S,3.0
S3,1.0,29.0,43.0,51.0,57.0,57,114.0,square4,f,0.1618,3,S,3.0
S3,2.0,41.0,49.0,46.0,49.0,49,163.0,square2,i,0.013,1,S,3.0
S3,3.0,44.0,50.0,45.0,52.0,50,213.0,square2,i,0.0555,1,S,3.0
S3,4.0,37.0,51.0,45.0,58.0,37,250.0,square1,j,0.0522,0,S,3.0
S3,5.0,47.0,43.0,42.0,49.0,47,297.0,square1,j,0.1775,0,S,3.0
S3,6.0,44.0,53.0,51.0,58.0,44,341.0,square1,j,0.0557,0,S,3.0
S3,7.0,39.0,47.0,46.0,54.0,46,387.0,square3,r,0.1524,2,S,3.0
S3,8.0,43.0,53.0,41.0,52.0,41,428.0,square3,r,0.1223,2,S,3.0
S3,9.0,42.0,46.0,41.0,53.0,53,481.0,square4,f,0.1611,3,S,3.0
S3,10.0,37.0,49.0,49.0,55.0,55,536.0,square4,f,0.1523,3,S,3.0
S3,11.0,40.0,47.0,36.0,59.0,59,595.0,square4,f,0.2061,3,S,3.0
S3,12.0,46.0,51.0,39.0,56.0,56,651.0,square4,f,0.1849,3,S,3.0
S3,13.0,39.0,48.0,45.0,57.0,57,708.0,square4,f,0.3414,3,S,3.0
S3,14.0,39.0,55.0,43.0,47.0,47,755.0,square4,f,0.0293,3,S,3.0
S3,15.0,46.0,46.0,47.0,52.0,52,807.0,square4,f,0.0094,3,S,3.0
S3,16.0,42.0,49.0,50.0,55.0,55,862.0,square4,f,0.0394,3,S,3.0
S3,17.0,45.0,45.0,56.0,47.0,47,909.0,square4,f,0.1158,3,S,3.0
S3,18.0,46.0,43.0,45.0,50.0,50,959.0,square4,f,0.1131,3,S,3.0
S3,19.0,41.0,47.0,50.0,55.0,55,1014.0,square4,f,0.0373,3,S,3.0
S3,20.0,45.0,52.0,49.0,52.0,52,1066.0,square4,f,0.0763,3,S,3.0
S3,21.0,40.0,43.0,47.0,46.0,46,1112.0,square4,f,0.0305,3,S,3.0
S3,22.0,45.0,46.0,44.0,47.0,47,1159.0,square4,f,0.125,3,S,3.0
S3,23.0,36.0,50.0,42.0,46.0,46,1205.0,square4,f,0.015,3,S,3.0
S3,24.0,42.0,54.0,49.0,55.0,55,1260.0,square4,f,0.0748,3,S,3.0
S3,25.0,43.0,51.0,44.0,54.0,54,1314.0,square4,f,0.1709,3,S,3.0
S3,26.0,49.0,50.0,52.0,52.0,52,1366.0,square4,f,0.0993,3,S,3.0
S3,27.0,47.0,52.0,44.0,50.0,50,1416.0,square4,f,0.1157,3,S,3.0
S3,28.0,37.0,48.0,40.0,47.0,48,1464.0,square2,i,0.2899,1,S,3.0
S3,29.0,50.0,43.0,50.0,57.0,43,1507.0,square2,i,0.038,1,S,3.0
S3,30.0,50.0,50.0,46.0,47.0,50,1557.0,square2,i,0.0628,1,S,3.0
S3,31.0,37.0,53.0,49.0,56.0,37,1594.0,square1,j,0.1652,0,S,3.0
S3,32.0,42.0,50.0,43.0,58.0,58,1652.0,square4,f,0.5406,3,S,3.0
S3,33.0,44.0,49.0,46.0,59.0,59,1711.0,square4,f,0.0083,3,S,3.0
S3,34.0,42.0,50.0,50.0,58.0,58,1769.0,square4,f,0.0457,3,S,3.0
S3,35.0,43.0,46.0,45.0,50.0,50,1819.0,square4,f,0.1167,3,S,3.0
S3,36.0,46.0,52.0,50.0,48.0,48,1867.0,square4,f,0.0951,3,S,3.0
S3,37.0,48.0,50.0,49.0,52.0,52,1919.0,square4,f,0.1466,3,S,3.0
S3,38.0,39.0,43.0,50.0,55.0,55,1974.0,square4,f,0.1498,3,S,3.0
S3,39.0,50.0,53.0,46.0,57.0,57,2031.0,square4,f,0.0599,3,S,3.0
S3,40.0,41.0,46.0,48.0,55.0,55,2086.0,square4,f,0.1642,3,S,3.0
S3,41.0,49.0,49.0,40.0,56.0,56,2142.0,square4,f,0.1288,3,S,3.0
S3,42.0,47.0,49.0,43.0,48.0,48,2190.0,square4,f,0.149,3,S,3.0
S3,43.0,46.0,43.0,41.0,58.0,58,2248.0,square4,f,0.2162,3,S,3.0
S3,44.0,46.0,52.0,51.0,55.0,55,2303.0,square4,f,0.1011,3,S,3.0
S3,45.0,46.0,41.0,46.0,49.0,49,2352.0,square4,f,0.0853,3,S,3.0
S3,46.0,32.0,56.0,40.0,50.0,50,2402.0,square4,f,0.0407,3,S,3.0
S3,47.0,42.0,49.0,44.0,51.0,51,2453.0,square4,f,0.1254,3,S,3.0
S3,48.0,36.0,45.0,38.0,50.0,50,2503.0,square4,f,0.0463,3,S,3.0
S3,49.0,45.0,48.0,47.0,52.0,52,2555.0,square4,f,0.0717,3,S,3.0
S9,0.0,36.0,36.0,32.0,32.0,99999,0.0,invalid,,,-1,S,9.0
S9,1.0,40.0,29.0,36.0,24.0,29,29.0,square2,f,0.118,1,S,9.0
S9,2.0,31.0,43.0,22.0,29.0,43,72.0,square2,f,0.1473,1,S,9.0
S9,3.0,41.0,33.0,28.0,27.0,28,100.0,square3,i,0.0791,2,S,9.0
S9,4.0,34.0,29.0,32.0,31.0,32,132.0,square3,i,0.0077,2,S,9.0
S9,5.0,41.0,32.0,22.0,29.0,29,161.0,square4,j,0.0258,3,S,9.0
S9,6.0,44.0,30.0,21.0,28.0,28,189.0,square4,j,0.1644,3,S,9.0
S9,7.0,39.0,37.0,26.0,24.0,24,213.0,square4,j,0.1454,3,S,9.0
S9,8.0,41.0,33.0,23.0,20.0,41,254.0,square1,r,0.1644,0,S,9.0
S9,9.0,30.0,35.0,24.0,27.0,30,284.0,square1,r,0.0413,0,S,9.0
S9,10.0,41.0,29.0,23.0,28.0,29,313.0,square2,f,0.2424,1,S,9.0
S9,11.0,37.0,38.0,22.0,33.0,37,350.0,square1,r,0.0745,0,S,9.0
S9,12.0,35.0,31.0,27.0,32.0,35,385.0,square1,r,0.1208,0,S,9.0
S9,13.0,38.0,37.0,30.0,29.0,29,414.0,square4,j,0.0732,3,S,9.0
S9,14.0,36.0,38.0,30.0,37.0,37,451.0,square4,j,0.115,3,S,9.0
S9,15.0,40.0,29.0,27.0,24.0,27,478.0,square3,i,0.1399,2,S,9.0
S9,16.0,33.0,37.0,29.0,28.0,29,507.0,square3,i,0.1015,2,S,9.0
S9,17.0,41.0,32.0,36.0,31.0,36,543.0,square3,i,0.0554,2,S,9.0
S9,18.0,39.0,26.0,16.0,35.0,16,559.0,square3,i,0.1087,2,S,9.0
S9,19.0,35.0,30.0,23.0,27.0,23,582.0,square3,i,0.1177,2,S,9.0
S9,20.0,39.0,34.0,23.0,29.0,23,605.0,square3,i,0.1729,2,S,9.0
S9,21.0,35.0,37.0,28.0,31.0,28,633.0,square3,i,0.1014,2,S,9.0
S9,22.0,37.0,30.0,23.0,38.0,37,670.0,square1,r,0.1349,0,S,9.0
S9,23.0,37.0,34.0,27.0,34.0,37,707.0,square1,r,0.0839,0,S,9.0
S9,24.0,31.0,34.0,26.0,27.0,31,738.0,square1,r,0.0495,0,S,9.0
S9,25.0,38.0,40.0,29.0,24.0,38,776.0,square1,r,0.1898,0,S,9.0
S9,26.0,43.0,31.0,21.0,24.0,43,819.0,square1,r,0.1258,0,S,9.0
S9,27.0,30.0,31.0,23.0,28.0,30,849.0,square1,r,0.1106,0,S,9.0
S9,28.0,44.0,32.0,31.0,32.0,44,893.0,square1,r,0.0375,0,S,9.0
S9,29.0,36.0,38.0,22.0,22.0,36,929.0,square1,r,0.1596,0,S,9.0
S9,30.0,41.0,30.0,26.0,29.0,41,970.0,square1,r,0.1682,0,S,9.0
S9,31.0,39.0,37.0,30.0,32.0,39,1009.0,square1,r,0.0817,0,S,9.0
S9,32.0,35.0,39.0,28.0,31.0,35,1044.0,square1,r,0.0933,0,S,9.0
S9,33.0,37.0,39.0,29.0,32.0,37,1081.0,square1,r,0.063,0,S,9.0
S9,34.0,46.0,33.0,21.0,25.0,46,1127.0,square1,r,0.1613,0,S,9.0
S9,35.0,38.0,33.0,28.0,28.0,38,1165.0,square1,r,0.1772,0,S,9.0
S9,36.0,40.0,37.0,21.0,32.0,40,1205.0,square1,r,0.1687,0,S,9.0
S9,37.0,38.0,43.0,23.0,37.0,38,1243.0,square1,r,0.2131,0,S,9.0
S9,38.0,36.0,31.0,29.0,29.0,36,1279.0,square1,r,0.1037,0,S,9.0
S9,39.0,41.0,29.0,26.0,28.0,41,1320.0,square1,r,0.143,0,S,9.0
S9,40.0,32.0,36.0,26.0,28.0,32,1352.0,square1,r,0.0091,0,S,9.0
S9,41.0,40.0,37.0,35.0,28.0,40,1392.0,square1,r,0.2252,0,S,9.0
S9,42.0,43.0,32.0,26.0,37.0,43,1435.0,square1,r,0.1926,0,S,9.0
S9,43.0,40.0,31.0,23.0,31.0,40,1475.0,square1,r,0.1629,0,S,9.0
S9,44.0,42.0,38.0,24.0,40.0,42,1517.0,square1,r,0.0783,0,S,9.0
S9,45.0,36.0,35.0,30.0,33.0,36,1553.0,square1,r,0.139,0,S,9.0
S9,46.0,38.0,30.0,33.0,26.0,38,1591.0,square1,r,0.166,0,S,9.0
S9,47.0,39.0,37.0,25.0,26.0,39,1630.0,square1,r,0.0957,0,S,9.0
S9,48.0,36.0,35.0,26.0,27.0,36,1666.0,square1,r,0.1535,0,S,9.0
S9,49.0,40.0,32.0,24.0,28.0,40,1706.0,square1,r,0.1853,0,S,9.0
