block,Trial,square1,square2,square3,square4,currPoints,totalPoints,square,choiceKey.keys,choiceKey.rt,armNum,blockType,blockNum
prac,0.0,100.0,0.0,0.0,0.0,0.0,0.0,square3,,,2,p,0.0
prac,1.0,100.0,0.0,0.0,0.0,0.0,0.0,square2,,,1,p,0.0
prac,2.0,100.0,0.0,0.0,0.0,100.0,100.0,square1,,,0,p,0.0
prac,3.0,100.0,0.0,0.0,0.0,0.0,100.0,square4,,,3,p,0.0
prac,4.0,100.0,0.0,0.0,0.0,0.0,100.0,square2,,,1,p,0.0
prac,5.0,100.0,0.0,0.0,0.0,100.0,200.0,square1,,,0,p,0.0
prac,6.0,100.0,0.0,0.0,0.0,100.0,300.0,square1,,,0,p,0.0
prac,7.0,100.0,0.0,0.0,0.0,100.0,400.0,square1,,,0,p,0.0
prac,8.0,100.0,0.0,0.0,0.0,100.0,500.0,square1,,,0,p,0.0
prac,9.0,100.0,0.0,0.0,0.0,100.0,600.0,square1,,,0,p,0.0
S1,0.0,72.0,58.0,70.0,66.0,66.0,66.0,square4,r,0.433,3,S,1.0
S1,1.0,75.0,64.0,66.0,69.0,64.0,130.0,square2,i,0.4929,1,S,1.0
S1,2.0,75.0,62.0,62.0,79.0,79.0,209.0,square4,r,0.1966,3,S,1.0
S1,3.0,68.0,62.0,63.0,69.0,62.0,271.0,square2,i,0.5483,1,S,1.0
S1,4.0,82.0,63.0,64.0,73.0,82.0,353.0,square1,j,0.336,0,S,1.0
S1,5.0,66.0,70.0,65.0,73.0,66.0,419.0,square1,j,0.0807,0,S,1.0
S1,6.0,73.0,65.0,62.0,65.0,62.0,481.0,square3,f,0.8751,2,S,1.0
S1,7.0,70.0,61.0,65.0,66.0,70.0,551.0,square1,j,0.6262,0,S,1.0
S1,8.0,78.0,63.0,67.0,68.0,68.0,619.0,square4,r,0.7025,3,S,1.0
S1,9.0,74.0,67.0,66.0,68.0,67.0,686.0,square2,i,0.2402,1,S,1.0
S1,10.0,73.0,59.0,68.0,68.0,73.0,759.0,square1,j,0.1541,0,S,1.0
S1,11.0,76.0,65.0,62.0,81.0,76.0,835.0,square1,j,0.2813,0,S,1.0
S1,12.0,77.0,66.0,69.0,63.0,77.0,912.0,square1,j,0.1814,0,S,1.0
S1,13.0,75.0,63.0,68.0,73.0,75.0,987.0,square1,j,0.017,0,S,1.0
S1,14.0,67.0,60.0,67.0,69.0,67.0,1054.0,square1,j,0.0942,0,S,1.0
S1,15.0,70.0,63.0,69.0,73.0,69.0,1123.0,square3,f,0.0319,2,S,1.0
S1,16.0,69.0,61.0,69.0,69.0,69.0,1192.0,square4,r,0.7516,3,S,1.0
S1,17.0,73.0,68.0,67.0,73.0,67.0,1259.0,square3,f,0.579,2,S,1.0
S1,18.0,70.0,58.0,73.0,66.0,58.0,1317.0,square2,i,0.1478,1,S,1.0
S1,19.0,75.0,58.0,62.0,68.0,62.0,1379.0,square3,f,0.081,2,S,1.0
S1,20.0,76.0,58.0,72.0,67.0,76.0,1455.0,square1,j,1.0961,0,S,1.0
S1,21.0,69.0,66.0,66.0,67.0,69.0,1524.0,square1,j,0.3859,0,S,1.0
S1,22.0,70.0,68.0,65.0,65.0,70.0,1594.0,square1,j,0.3147,0,S,1.0
S1,23.0,71.0,60.0,64.0,64.0,71.0,1665.0,square1,j,0.0107,0,S,1.0
S1,24.0,70.0,72.0,62.0,67.0,70.0,1735.0,square1,j,0.3007,0,S,1.0
S1,25.0,68.0,60.0,70.0,65.0,65.0,1800.0,square4,r,0.4068,3,S,1.0
S1,26.0,76.0,64.0,72.0,69.0,76.0,1876.0,square1,j,0.3509,0,S,1.0
S1,27.0,71.0,56.0,70.0,65.0,71.0,1947.0,square1,j,0.5964,0,S,1.0
S1,28.0,67.0,67.0,71.0,76.0,67.0,2014.0,square1,j,0.3619,0,S,1.0
S1,29.0,78.0,64.0,64.0,74.0,74.0,2088.0,square4,r,0.0833,3,S,1.0
S1,30.0,74.0,63.0,65.0,71.0,71.0,2159.0,square4,r,0.3687,3,S,1.0
S1,31.0,78.0,58.0,69.0,69.0,69.0,2228.0,square4,r,0.2984,3,S,1.0
S1,32.0,71.0,67.0,68.0,60.0,71.0,2299.0,square1,j,0.3262,0,S,1.0
S1,33.0,68.0,63.0,65.0,73.0,68.0,2367.0,square1,j,0.3167,0,S,1.0
S1,34.0,71.0,62.0,74.0,73.0,73.0,2440.0,square4,r,0.1376,3,S,1.0
S1,35.0,75.0,59.0,67.0,77.0,77.0,2517.0,square4,r,0.2613,3,S,1.0
S1,36.0,77.0,60.0,66.0,67.0,67.0,2584.0,square4,r,0.244,3,S,1.0
S1,37.0,69.0,60.0,69.0,75.0,69.0,2653.0,square1,j,0.1973,0,S,1.0
S1,38.0,77.0,64.0,62.0,70.0,70.0,2723.0,square4,r,0.5676,3,S,1.0
S1,39.0,72.0,66.0,69.0,65.0,65.0,2788.0,square4,r,0.4142,3,S,1.0
S1,40.0,69.0,63.0,66.0,69.0,69.0,2857.0,square1,j,0.1133,0,S,1.0
S1,41.0,72.0,62.0,70.0,70.0,72.0,2929.0,square1,j,0.0434,0,S,1.0
S1,42.0,78.0,60.0,63.0,62.0,78.0,3007.0,square1,j,0.0207,0,S,1.0
S1,43.0,71.0,62.0,67.0,73.0,71.0,3078.0,square1,j,0.1991,0,S,1.0
S1,44.0,75.0,63.0,69.0,73.0,73.0,3151.0,square4,r,0.6944,3,S,1.0
S1,45.0,66.0,60.0,68.0,73.0,66.0,3217.0,square1,j,0.2578,0,S,1.0
S1,46.0,74.0,67.0,69.0,71.0,71.0,3288.0,square4,r,0.1163,3,S,1.0
S1,47.0,71.0,66.0,68.0,70.0,71.0,3359.0,square1,j,0.2145,0,S,1.0
S1,48.0,72.0,75.0,71.0,77.0,77.0,3436.0,square4,r,0.3751,3,S,1.0
S1,49.0,65.0,57.0,66.0,75.0,65.0,3501.0,square1,j,0.229,0,S,1.0
S8,0.0,58.0,60.0,52.0,45.0,60.0,60.0,square2,r,0.5555,1,S,8.0
S8,1.0,55.0,57.0,56.0,52.0,56.0,116.0,square3,i,0.2763,2,S,8.0
S8,2.0,54.0,58.0,58.0,49.0,49.0,165.0,square4,j,0.2652,3,S,8.0
S8,3.0,55.0,62.0,52.0,53.0,55.0,220.0,square1,f,0.1,0,S,8.0
S8,4.0,55.0,60.0,49.0,51.0,51.0,271.0,square4,j,0.3919,3,S,8.0
S8,5.0,48.0,63.0,61.0,49.0,61.0,332.0,square3,i,0.301,2,S,8.0
S8,6.0,58.0,63.0,59.0,55.0,63.0,395.0,square2,r,0.4185,1,S,8.0
S8,7.0,56.0,53.0,49.0,51.0,49.0,444.0,square3,i,0.4421,2,S,8.0
S8,8.0,61.0,63.0,66.0,49.0,49.0,493.0,square4,j,0.4456,3,S,8.0
S8,9.0,60.0,59.0,53.0,47.0,59.0,552.0,square2,r,0.3268,1,S,8.0
S8,10.0,55.0,63.0,52.0,55.0,55.0,607.0,square1,f,0.2024,0,S,8.0
S8,11.0,62.0,60.0,54.0,50.0,60.0,667.0,square2,r,0.7802,1,S,8.0
S8,12.0,58.0,64.0,51.0,52.0,58.0,725.0,square1,f,0.3675,0,S,8.0
S8,13.0,62.0,59.0,53.0,53.0,59.0,784.0,square2,r,0.0967,1,S,8.0
S8,14.0,51.0,62.0,61.0,54.0,62.0,846.0,square2,r,0.3408,1,S,8.0
S8,15.0,56.0,68.0,56.0,50.0,68.0,914.0,square2,r,0.3134,1,S,8.0
S8,16.0,58.0,64.0,56.0,50.0,64.0,978.0,square2,r,0.0926,1,S,8.0
S8,17.0,64.0,63.0,60.0,42.0,64.0,1042.0,square1,f,0.3133,0,S,8.0
S8,18.0,54.0,64.0,57.0,55.0,54.0,1096.0,square1,f,0.2454,0,S,8.0
S8,19.0,56.0,53.0,57.0,53.0,53.0,1149.0,square2,r,0.395,1,S,8.0
S8,20.0,59.0,64.0,56.0,49.0,64.0,1213.0,square2,r,0.1953,1,S,8.0
S8,21.0,54.0,59.0,55.0,48.0,54.0,1267.0,square1,f,0.2619,0,S,8.0
S8,22.0,63.0,63.0,59.0,49.0,59.0,1326.0,square3,i,0.1748,2,S,8.0
S8,23.0,59.0,60.0,48.0,52.0,52.0,1378.0,square4,j,0.4134,3,S,8.0
S8,24.0,55.0,53.0,60.0,50.0,53.0,1431.0,square2,r,0.0317,1,S,8.0
S8,25.0,57.0,60.0,55.0,54.0,60.0,1491.0,square2,r,0.5726,1,S,8.0
S8,26.0,62.0,66.0,57.0,58.0,66.0,1557.0,square2,r,0.3761,1,S,8.0
S8,27.0,58.0,55.0,52.0,48.0,55.0,1612.0,square2,r,0.4938,1,S,8.0
S8,28.0,53.0,59.0,53.0,55.0,59.0,1671.0,square2,r,0.2755,1,S,8.0
S8,29.0,60.0,58.0,57.0,53.0,60.0,1731.0,square1,f,0.6462,0,S,8.0
S8,30.0,57.0,67.0,52.0,56.0,57.0,1788.0,square1,f,0.4182,0,S,8.0
S8,31.0,60.0,58.0,52.0,50.0,60.0,1848.0,square1,f,0.4855,0,S,8.0
S8,32.0,54.0,61.0,56.0,57.0,54.0,1902.0,square1,f,0.3608,0,S,8.0
S8,33.0,66.0,64.0,63.0,52.0,64.0,1966.0,square2,r,0.0269,1,S,8.0
S8,34.0,54.0,65.0,66.0,56.0,54.0,2020.0,square1,f,1.1791,0,S,8.0
S8,35.0,54.0,62.0,61.0,48.0,62.0,2082.0,square2,r,0.5092,1,S,8.0
S8,36.0,53.0,63.0,54.0,55.0,53.0,2135.0,square1,f,0.0353,0,S,8.0
S8,37.0,64.0,58.0,57.0,51.0,58.0,2193.0,square2,r,0.3297,1,S,8.0
S8,38.0,68.0,65.0,59.0,57.0,68.0,2261.0,square1,f,0.2501,0,S,8.0
S8,39.0,64.0,65.0,51.0,55.0,65.0,2326.0,square2,r,0.3418,1,S,8.0
S8,40.0,63.0,61.0,57.0,47.0,63.0,2389.0,square1,f,0.0106,0,S,8.0
S8,41.0,65.0,58.0,55.0,49.0,58.0,2447.0,square2,r,0.0945,1,S,8.0
S8,42.0,52.0,60.0,51.0,56.0,60.0,2507.0,square2,r,0.0624,1,S,8.0
S8,43.0,63.0,57.0,48.0,50.0,57.0,2564.0,square2,r,0.0018,1,S,8.0
S8,44.0,59.0,63.0,53.0,53.0,59.0,2623.0,square1,f,0.8581,0,S,8.0
S8,45.0,62.0,62.0,60.0,53.0,62.0,2685.0,square1,f,0.647,0,S,8.0
S8,46.0,56.0,62.0,57.0,60.0,56.0,2741.0,square1,f,0.0017,0,S,8.0
S8,47.0,60.0,63.0,58.0,56.0,60.0,2801.0,square1,f,0.5936,0,S,8.0
S8,48.0,59.0,63.0,49.0,53.0,53.0,2854.0,square4,j,0.5447,3,S,8.0
S8,49.0,67.0,67.0,59.0,55.0,59.0,2913.0,square3,i,0.3143,2,S,8.0
S3,0.0,38.0,48.0,42.0,57.0,38.0,38.0,square1,j,0.7746,0,S,3.0
S3,1.0,29.0,43.0,51.0,57.0,57.0,95.0,square4,r,0.7107,3,S,3.0
S3,2.0,41.0,49.0,46.0,49.0,49.0,144.0,square2,i,0.8773,1,S,3.0
S3,3.0,44.0,50.0,45.0,52.0,45.0,189.0,square3,f,1.1272,2,S,3.0
S3,4.0,37.0,51.0,45.0,58.0,58.0,247.0,square4,r,0.2448,3,S,3.0
S3,5.0,47.0,43.0,42.0,49.0,43.0,290.0,square2,i,0.1537,1,S,3.0
S3,6.0,44.0,53.0,51.0,58.0,58.0,348.0,square4,r,0.449,3,S,3.0
S3,7.0,39.0,47.0,46.0,54.0,39.0,387.0,square1,j,1.1105,0,S,3.0
S3,8.0,43.0,53.0,41.0,52.0,52.0,439.0,square4,r,0.1771,3,S,3.0
S3,9.0,42.0,46.0,41.0,53.0,53.0,492.0,square4,r,0.0587,3,S,3.0
S3,10.0,37.0,49.0,49.0,55.0,55.0,547.0,square4,r,0.1593,3,S,3.0
S3,11.0,40.0,47.0,36.0,59.0,59.0,606.0,square4,r,0.5969,3,S,3.0
S3,12.0,46.0,51.0,39.0,56.0,56.0,662.0,square4,r,0.3291,3,S,3.0
S3,13.0,39.0,48.0,45.0,57.0,57.0,719.0,square4,r,0.2472,3,S,3.0
S3,14.0,39.0,55.0,43.0,47.0,47.0,766.0,square4,r,0.2118,3,S,3.0
S3,15.0,46.0,46.0,47.0,52.0,46.0,812.0,square2,i,0.0019,1,S,3.0
S3,16.0,42.0,49.0,50.0,55.0,55.0,867.0,square4,r,0.3279,3,S,3.0
S3,17.0,45.0,45.0,56.0,47.0,47.0,914.0,square4,r,0.2443,3,S,3.0
S3,18.0,46.0,43.0,45.0,50.0,43.0,957.0,square2,i,0.5311,1,S,3.0
S3,19.0,41.0,47.0,50.0,55.0,55.0,1012.0,square4,r,0.2604,3,S,3.0
S3,20.0,45.0,52.0,49.0,52.0,49.0,1061.0,square3,f,0.8138,2,S,3.0
S3,21.0,40.0,43.0,47.0,46.0,46.0,1107.0,square4,r,0.3618,3,S,3.0
S3,22.0,45.0,46.0,44.0,47.0,47.0,1154.0,square4,r,0.3415,3,S,3.0
S3,23.0,36.0,50.0,42.0,46.0,46.0,1200.0,square4,r,0.2749,3,S,3.0
S3,24.0,42.0,54.0,49.0,55.0,55.0,1255.0,square4,r,0.2929,3,S,3.0
S3,25.0,43.0,51.0,44.0,54.0,54.0,1309.0,square4,r,0.1646,3,S,3.0
S3,26.0,49.0,50.0,52.0,52.0,52.0,1361.0,square4,r,0.111,3,S,3.0
S3,27.0,47.0,52.0,44.0,50.0,50.0,1411.0,square4,r,0.0859,3,S,3.0
S3,28.0,37.0,48.0,40.0,47.0,47.0,1458.0,square4,r,0.1256,3,S,3.0
S3,29.0,50.0,43.0,50.0,57.0,57.0,1515.0,square4,r,0.4977,3,S,3.0
S3,30.0,50.0,50.0,46.0,47.0,47.0,1562.0,square4,r,0.4103,3,S,3.0
S3,31.0,37.0,53.0,49.0,56.0,49.0,1611.0,square3,f,0.1634,2,S,3.0
S3,32.0,42.0,50.0,43.0,58.0,43.0,1654.0,square3,f,0.2626,2,S,3.0
S3,33.0,44.0,49.0,46.0,59.0,59.0,1713.0,square4,r,0.0436,3,S,3.0
S3,34.0,42.0,50.0,50.0,58.0,58.0,1771.0,square4,r,0.177,3,S,3.0
S3,35.0,43.0,46.0,45.0,50.0,50.0,1821.0,square4,r,0.062,3,S,3.0
S3,36.0,46.0,52.0,50.0,48.0,52.0,1873.0,square2,i,0.9271,1,S,3.0
S3,37.0,48.0,50.0,49.0,52.0,50.0,1923.0,square2,i,0.0776,1,S,3.0
S3,38.0,39.0,43.0,50.0,55.0,55.0,1978.0,square4,r,0.1001,3,S,3.0
S3,39.0,50.0,53.0,46.0,57.0,53.0,2031.0,square2,i,0.1084,1,S,3.0
S3,40.0,41.0,46.0,48.0,55.0,55.0,2086.0,square4,r,0.4817,3,S,3.0
S3,41.0,49.0,49.0,40.0,56.0,49.0,2135.0,square1,j,0.6008,0,S,3.0
S3,42.0,47.0,49.0,43.0,48.0,48.0,2183.0,square4,r,0.1637,3,S,3.0
S3,43.0,46.0,43.0,41.0,58.0,43.0,2226.0,square2,i,0.0131,1,S,3.0
S3,44.0,46.0,52.0,51.0,55.0,55.0,2281.0,square4,r,0.2937,3,S,3.0
S3,45.0,46.0,41.0,46.0,49.0,41.0,2322.0,square2,i,0.2662,1,S,3.0
S3,46.0,32.0,56.0,40.0,50.0,50.0,2372.0,square4,r,0.0853,3,S,3.0
S3,47.0,42.0,49.0,44.0,51.0,49.0,2421.0,square2,i,0.2446,1,S,3.0
S3,48.0,36.0,45.0,38.0,50.0,50.0,2471.0,square4,r,0.1139,3,S,3.0
S3,49.0,45.0,48.0,47.0,52.0,52.0,2523.0,square4,r,0.1528,3,S,3.0
S2,0.0,62.0,57.0,71.0,74.0,71.0,71.0,square3,r,0.7287,2,S,2.0
S2,1.0,64.0,59.0,72.0,67.0,64.0,135.0,square1,i,1.8332,0,S,2.0
S2,2.0,68.0,57.0,75.0,68.0,68.0,203.0,square4,j,0.8009,3,S,2.0
S2,3.0,69.0,57.0,80.0,70.0,57.0,260.0,square2,f,0.0627,1,S,2.0
S2,4.0,66.0,60.0,74.0,68.0,74.0,334.0,square3,r,0.9337,2,S,2.0
S2,5.0,63.0,62.0,77.0,72.0,77.0,411.0,square3,r,0.1349,2,S,2.0
S2,6.0,69.0,61.0,75.0,74.0,75.0,486.0,square3,r,0.181,2,S,2.0
S2,7.0,74.0,66.0,79.0,72.0,79.0,565.0,square3,r,0.3496,2,S,2.0
S2,8.0,81.0,65.0,76.0,72.0,76.0,641.0,square3,r,0.002,2,S,2.0
S2,9.0,70.0,66.0,78.0,70.0,66.0,707.0,square2,f,0.103,1,S,2.0
S2,10.0,70.0,72.0,70.0,74.0,70.0,777.0,square3,r,0.2104,2,S,2.0
S2,11.0,64.0,66.0,72.0,67.0,72.0,849.0,square3,r,0.2937,2,S,2.0
S2,12.0,66.0,57.0,70.0,67.0,70.0,919.0,square3,r,0.1612,2,S,2.0
S2,13.0,68.0,68.0,71.0,73.0,71.0,990.0,square3,r,0.0019,2,S,2.0
S2,14.0,70.0,63.0,77.0,71.0,77.0,1067.0,square3,r,0.2956,2,S,2.0
S2,15.0,64.0,66.0,75.0,66.0,75.0,1142.0,square3,r,0.3143,2,S,2.0
S2,16.0,67.0,61.0,73.0,70.0,73.0,1215.0,square3,r,0.2936,2,S,2.0
S2,17.0,65.0,58.0,71.0,75.0,71.0,1286.0,square3,r,0.1876,2,S,2.0
S2,18.0,72.0,64.0,81.0,61.0,81.0,1367.0,square3,r,0.1782,2,S,2.0
S2,19.0,60.0,63.0,72.0,65.0,72.0,1439.0,square3,r,0.1452,2,S,2.0
S2,20.0,68.0,56.0,71.0,70.0,71.0,1510.0,square3,r,0.4282,2,S,2.0
S2,21.0,65.0,65.0,74.0,71.0,74.0,1584.0,square3,r,0.2277,2,S,2.0
S2,22.0,69.0,62.0,77.0,72.0,77.0,1661.0,square3,r,0.1117,2,S,2.0
S2,23.0,64.0,71.0,74.0,65.0,74.0,1735.0,square3,r,0.1538,2,S,2.0
S2,24.0,66.0,62.0,78.0,70.0,78.0,1813.0,square3,r,0.1603,2,S,2.0
S2,25.0,67.0,69.0,76.0,66.0,76.0,1889.0,square3,r,0.6774,2,S,2.0
S2,26.0,65.0,63.0,74.0,69.0,74.0,1963.0,square3,r,0.1271,2,S,2.0
S2,27.0,68.0,64.0,67.0,68.0,67.0,2030.0,square3,r,0.2652,2,S,2.0
S2,28.0,61.0,52.0,71.0,68.0,71.0,2101.0,square3,r,0.3154,2,S,2.0
S2,29.0,67.0,64.0,73.0,69.0,73.0,2174.0,square3,r,0.2273,2,S,2.0
S2,30.0,67.0,53.0,77.0,67.0,77.0,2251.0,square3,r,0.1869,2,S,2.0
S2,31.0,67.0,69.0,69.0,68.0,69.0,2320.0,square3,r,0.061,2,S,2.0
S2,32.0,71.0,63.0,73.0,70.0,73.0,2393.0,square3,r,0.0748,2,S,2.0
S2,33.0,61.0,65.0,68.0,71.0,68.0,2461.0,square3,r,0.0358,2,S,2.0
S2,34.0,66.0,55.0,78.0,68.0,78.0,2539.0,square3,r,0.4277,2,S,2.0
S2,35.0,60.0,57.0,66.0,66.0,66.0,2605.0,square3,r,0.1968,2,S,2.0
S2,36.0,64.0,63.0,73.0,72.0,73.0,2678.0,square3,r,0.0776,2,S,2.0
S2,37.0,65.0,62.0,75.0,68.0,75.0,2753.0,square3,r,0.1123,2,S,2.0
S2,38.0,69.0,57.0,71.0,62.0,71.0,2824.0,square3,r,0.1188,2,S,2.0
S2,39.0,72.0,66.0,74.0,74.0,74.0,2898.0,square3,r,0.0766,2,S,2.0
S2,40.0,66.0,63.0,76.0,59.0,76.0,2974.0,square3,r,0.0291,2,S,2.0
S2,41.0,74.0,64.0,67.0,76.0,67.0,3041.0,square3,r,0.0461,2,S,2.0
S2,42.0,62.0,67.0,72.0,68.0,72.0,3113.0,square3,r,0.0279,2,S,2.0
S2,43.0,69.0,63.0,75.0,71.0,75.0,3188.0,square3,r,0.069,2,S,2.0
S2,44.0,72.0,60.0,74.0,67.0,74.0,3262.0,square3,r,0.0521,2,S,2.0
S2,45.0,69.0,63.0,76.0,73.0,76.0,3338.0,square3,r,0.0338,2,S,2.0
S2,46.0,64.0,71.0,75.0,72.0,75.0,3413.0,square3,r,0.0641,2,S,2.0
S2,47.0,75.0,62.0,75.0,69.0,75.0,3488.0,square3,r,0.0684,2,S,2.0
S2,48.0,66.0,65.0,74.0,68.0,74.0,3562.0,square3,r,0.0144,2,S,2.0
S2,49.0,67.0,64.0,72.0,76.0,72.0,3634.0,square3,r,0.1466,2,S,2.0
S12,0.0,38.0,42.0,30.0,42.0,42.0,42.0,square2,r,0.7295,1,S,12.0
S12,1.0,30.0,42.0,28.0,37.0,28.0,70.0,square3,i,0.3435,2,S,12.0
S12,2.0,34.0,41.0,38.0,43.0,34.0,104.0,square1,j,0.7199,0,S,12.0
S12,3.0,38.0,51.0,38.0,38.0,38.0,142.0,square4,f,0.5435,3,S,12.0
S12,4.0,32.0,37.0,33.0,45.0,37.0,179.0,square2,r,0.4163,1,S,12.0
S12,5.0,38.0,52.0,36.0,35.0,52.0,231.0,square2,r,0.4421,1,S,12.0
S12,6.0,30.0,43.0,30.0,38.0,43.0,274.0,square2,r,0.293,1,S,12.0
S12,7.0,38.0,39.0,30.0,39.0,38.0,312.0,square1,j,0.3793,0,S,12.0
S12,8.0,37.0,49.0,35.0,38.0,37.0,349.0,square1,j,0.3692,0,S,12.0
S12,9.0,37.0,44.0,29.0,38.0,37.0,386.0,square1,j,0.2281,0,S,12.0
S12,10.0,35.0,42.0,30.0,45.0,42.0,428.0,square2,r,0.0322,1,S,12.0
S12,11.0,34.0,45.0,36.0,32.0,45.0,473.0,square2,r,0.2615,1,S,12.0
S12,12.0,33.0,45.0,35.0,42.0,45.0,518.0,square2,r,0.2469,1,S,12.0
S12,13.0,36.0,36.0,29.0,40.0,36.0,554.0,square2,r,0.2486,1,S,12.0
S12,14.0,36.0,49.0,32.0,42.0,36.0,590.0,square1,j,0.2809,0,S,12.0
S12,15.0,35.0,43.0,35.0,46.0,35.0,625.0,square3,i,0.4938,2,S,12.0
S12,16.0,39.0,48.0,41.0,43.0,43.0,668.0,square4,f,0.1263,3,S,12.0
S12,17.0,35.0,47.0,27.0,38.0,38.0,706.0,square4,f,0.0675,3,S,12.0
S12,18.0,37.0,51.0,33.0,33.0,33.0,739.0,square4,f,0.0671,3,S,12.0
S12,19.0,41.0,42.0,33.0,36.0,42.0,781.0,square2,r,0.0016,1,S,12.0
S12,20.0,34.0,44.0,26.0,41.0,44.0,825.0,square2,r,0.0264,1,S,12.0
S12,21.0,35.0,37.0,29.0,35.0,37.0,862.0,square2,r,0.0594,1,S,12.0
S12,22.0,37.0,48.0,31.0,41.0,31.0,893.0,square3,i,0.0432,2,S,12.0
S12,23.0,36.0,43.0,27.0,45.0,36.0,929.0,square1,j,0.1443,0,S,12.0
S12,24.0,39.0,48.0,38.0,38.0,39.0,968.0,square1,j,0.2374,0,S,12.0
S12,25.0,31.0,43.0,30.0,40.0,31.0,999.0,square1,j,0.1003,0,S,12.0
S12,26.0,35.0,48.0,34.0,33.0,35.0,1034.0,square1,j,0.1305,0,S,12.0
S12,27.0,46.0,46.0,28.0,38.0,46.0,1080.0,square2,r,0.3108,1,S,12.0
S12,28.0,32.0,37.0,32.0,40.0,37.0,1117.0,square2,r,0.003,1,S,12.0
S12,29.0,38.0,41.0,32.0,44.0,38.0,1155.0,square1,j,0.3625,0,S,12.0
S12,30.0,32.0,48.0,29.0,42.0,32.0,1187.0,square1,j,0.0767,0,S,12.0
S12,31.0,34.0,46.0,30.0,42.0,46.0,1233.0,square2,r,0.4507,1,S,12.0
S12,32.0,39.0,43.0,41.0,40.0,41.0,1274.0,square3,i,0.5026,2,S,12.0
S12,33.0,36.0,47.0,33.0,46.0,33.0,1307.0,square3,i,0.0017,2,S,12.0
S12,34.0,36.0,41.0,34.0,41.0,41.0,1348.0,square2,r,0.3619,1,S,12.0
S12,35.0,34.0,42.0,31.0,43.0,42.0,1390.0,square2,r,0.0165,1,S,12.0
S12,36.0,39.0,43.0,26.0,33.0,43.0,1433.0,square2,r,0.3769,1,S,12.0
S12,37.0,39.0,49.0,30.0,42.0,30.0,1463.0,square3,i,0.5113,2,S,12.0
S12,38.0,33.0,47.0,36.0,41.0,33.0,1496.0,square1,j,0.4682,0,S,12.0
S12,39.0,29.0,46.0,35.0,36.0,29.0,1525.0,square1,j,0.062,0,S,12.0
S12,40.0,39.0,39.0,29.0,36.0,39.0,1564.0,square2,r,0.3098,1,S,12.0
S12,41.0,33.0,44.0,31.0,40.0,40.0,1604.0,square4,f,0.05,3,S,12.0
S12,42.0,34.0,46.0,25.0,37.0,37.0,1641.0,square4,f,0.0454,3,S,12.0
S12,43.0,37.0,42.0,30.0,42.0,42.0,1683.0,square2,r,0.4355,1,S,12.0
S12,44.0,33.0,49.0,36.0,39.0,36.0,1719.0,square3,i,0.5447,2,S,12.0
S12,45.0,35.0,40.0,30.0,47.0,40.0,1759.0,square2,r,0.3358,1,S,12.0
S12,46.0,40.0,41.0,29.0,35.0,40.0,1799.0,square1,j,0.0841,0,S,12.0
S12,47.0,32.0,42.0,28.0,43.0,42.0,1841.0,square2,r,0.3795,1,S,12.0
S12,48.0,43.0,47.0,31.0,38.0,47.0,1888.0,square2,r,0.6598,1,S,12.0
S12,49.0,37.0,41.0,35.0,40.0,37.0,1925.0,square1,j,0.0276,0,S,12.0
S5,0.0,90.0,70.0,79.0,84.0,90.0,90.0,square1,r,1.2232,0,S,5.0
S5,1.0,92.0,77.0,83.0,81.0,92.0,182.0,square1,r,0.1277,0,S,5.0
S5,2.0,83.0,72.0,81.0,76.0,83.0,265.0,square1,r,0.0128,0,S,5.0
S5,3.0,87.0,72.0,79.0,81.0,81.0,346.0,square4,j,0.3487,3,S,5.0
S5,4.0,86.0,81.0,78.0,72.0,81.0,427.0,square2,i,0.1697,1,S,5.0
S5,5.0,89.0,70.0,79.0,83.0,79.0,506.0,square3,f,0.419,2,S,5.0
S5,6.0,86.0,69.0,81.0,81.0,86.0,592.0,square1,r,0.0118,0,S,5.0
S5,7.0,82.0,72.0,86.0,80.0,82.0,674.0,square1,r,0.1852,0,S,5.0
S5,8.0,84.0,67.0,80.0,77.0,84.0,758.0,square1,r,0.3965,0,S,5.0
S5,9.0,92.0,80.0,86.0,84.0,92.0,850.0,square1,r,0.0282,0,S,5.0
S5,10.0,82.0,71.0,80.0,80.0,82.0,932.0,square1,r,0.2275,0,S,5.0
S5,11.0,80.0,75.0,79.0,75.0,80.0,1012.0,square1,r,0.1274,0,S,5.0
S5,12.0,84.0,75.0,80.0,82.0,84.0,1096.0,square1,r,0.1805,0,S,5.0
S5,13.0,85.0,74.0,74.0,81.0,85.0,1181.0,square1,r,0.0101,0,S,5.0
S5,14.0,81.0,79.0,85.0,81.0,81.0,1262.0,square1,r,0.2498,0,S,5.0
S5,15.0,81.0,75.0,76.0,77.0,77.0,1339.0,square4,j,0.0021,3,S,5.0
S5,16.0,86.0,74.0,78.0,74.0,86.0,1425.0,square1,r,0.295,0,S,5.0
S5,17.0,81.0,77.0,81.0,77.0,81.0,1506.0,square1,r,0.2613,0,S,5.0
S5,18.0,87.0,70.0,84.0,82.0,87.0,1593.0,square1,r,0.1621,0,S,5.0
S5,19.0,84.0,76.0,83.0,76.0,84.0,1677.0,square1,r,0.0263,0,S,5.0
S5,20.0,79.0,78.0,82.0,76.0,79.0,1756.0,square1,r,0.2862,0,S,5.0
S5,21.0,86.0,68.0,80.0,72.0,86.0,1842.0,square1,r,0.0021,0,S,5.0
S5,22.0,93.0,80.0,85.0,84.0,93.0,1935.0,square1,r,0.114,0,S,5.0
S5,23.0,87.0,73.0,76.0,70.0,87.0,2022.0,square1,r,0.3595,0,S,5.0
S5,24.0,85.0,69.0,81.0,78.0,85.0,2107.0,square1,r,0.2615,0,S,5.0
S5,25.0,89.0,77.0,77.0,76.0,89.0,2196.0,square1,r,0.1698,0,S,5.0
S5,26.0,84.0,71.0,81.0,75.0,84.0,2280.0,square1,r,0.2767,0,S,5.0
S5,27.0,84.0,75.0,82.0,71.0,84.0,2364.0,square1,r,0.2134,0,S,5.0
S5,28.0,83.0,72.0,82.0,78.0,83.0,2447.0,square1,r,0.0296,0,S,5.0
S5,29.0,91.0,67.0,79.0,74.0,91.0,2538.0,square1,r,0.2968,0,S,5.0
S5,30.0,82.0,69.0,81.0,77.0,82.0,2620.0,square1,r,0.2798,0,S,5.0
S5,31.0,82.0,72.0,80.0,78.0,82.0,2702.0,square1,r,0.2162,0,S,5.0
S5,32.0,83.0,73.0,91.0,80.0,83.0,2785.0,square1,r,0.2445,0,S,5.0
S5,33.0,83.0,68.0,85.0,78.0,83.0,2868.0,square1,r,0.2316,0,S,5.0
S5,34.0,89.0,79.0,83.0,77.0,89.0,2957.0,square1,r,0.229,0,S,5.0
S5,35.0,88.0,72.0,79.0,80.0,88.0,3045.0,square1,r,0.2782,0,S,5.0
S5,36.0,90.0,74.0,84.0,76.0,90.0,3135.0,square1,r,0.2462,0,S,5.0
S5,37.0,85.0,75.0,80.0,82.0,85.0,3220.0,square1,r,0.2794,0,S,5.0
S5,38.0,78.0,74.0,85.0,79.0,78.0,3298.0,square1,r,0.2163,0,S,5.0
S5,39.0,87.0,73.0,87.0,85.0,87.0,3385.0,square1,r,0.1617,0,S,5.0
S5,40.0,83.0,67.0,81.0,80.0,83.0,3468.0,square1,r,0.1613,0,S,5.0
S5,41.0,82.0,69.0,88.0,80.0,82.0,3550.0,square1,r,0.2998,0,S,5.0
S5,42.0,85.0,78.0,91.0,80.0,85.0,3635.0,square1,r,0.2929,0,S,5.0
S5,43.0,89.0,74.0,78.0,74.0,89.0,3724.0,square1,r,0.2363,0,S,5.0
S5,44.0,90.0,74.0,77.0,85.0,90.0,3814.0,square1,r,0.2948,0,S,5.0
S5,45.0,89.0,68.0,81.0,78.0,89.0,3903.0,square1,r,0.183,0,S,5.0
S5,46.0,86.0,70.0,86.0,68.0,86.0,3989.0,square1,r,0.1299,0,S,5.0
S5,47.0,90.0,77.0,85.0,84.0,90.0,4079.0,square1,r,0.282,0,S,5.0
S5,48.0,76.0,66.0,82.0,79.0,76.0,4155.0,square1,r,0.1998,0,S,5.0
S5,49.0,84.0,73.0,82.0,75.0,84.0,4239.0,square1,r,0.283,0,S,5.0
V11,0.0,42.0,67.0,57.0,49.0,49.0,49.0,square4,r,1.4857,3,V,11.0
V11,1.0,42.0,71.0,60.0,53.0,71.0,120.0,square2,j,0.7951,1,V,11.0
V11,2.0,45.0,76.0,58.0,51.0,58.0,178.0,square3,i,0.2333,2,V,11.0
V11,3.0,44.0,65.0,60.0,49.0,44.0,222.0,square1,f,0.1993,0,V,11.0
V11,4.0,46.0,73.0,64.0,51.0,73.0,295.0,square2,j,0.2765,1,V,11.0
V11,5.0,47.0,67.0,58.0,54.0,54.0,349.0,square4,r,0.0685,3,V,11.0
V11,6.0,43.0,68.0,58.0,50.0,68.0,417.0,square2,j,0.0451,1,V,11.0
V11,7.0,42.0,67.0,60.0,58.0,60.0,477.0,square3,i,0.3182,2,V,11.0
V11,8.0,44.0,67.0,60.0,53.0,67.0,544.0,square2,j,0.1112,1,V,11.0
V11,9.0,44.0,67.0,59.0,54.0,59.0,603.0,square3,i,0.5352,2,V,11.0
V11,10.0,49.0,76.0,57.0,52.0,76.0,679.0,square2,j,0.1999,1,V,11.0
V11,11.0,45.0,71.0,58.0,51.0,58.0,737.0,square3,i,0.3457,2,V,11.0
V11,12.0,45.0,72.0,58.0,56.0,72.0,809.0,square2,j,0.0484,1,V,11.0
V11,13.0,49.0,67.0,63.0,54.0,54.0,863.0,square4,r,0.3463,3,V,11.0
V11,14.0,50.0,75.0,57.0,48.0,50.0,913.0,square1,f,1.1141,0,V,11.0
V11,15.0,40.0,71.0,61.0,51.0,61.0,974.0,square3,i,0.0859,2,V,11.0
V11,16.0,47.0,72.0,56.0,54.0,72.0,1046.0,square2,j,0.0286,1,V,11.0
V11,17.0,40.0,71.0,61.0,46.0,71.0,1117.0,square2,j,0.3671,1,V,11.0
V11,18.0,44.0,69.0,59.0,51.0,69.0,1186.0,square2,j,0.2601,1,V,11.0
V11,19.0,44.0,73.0,59.0,47.0,73.0,1259.0,square2,j,0.3107,1,V,11.0
V11,20.0,47.0,69.0,64.0,54.0,64.0,1323.0,square3,i,0.5269,2,V,11.0
V11,21.0,78.0,49.0,70.0,65.0,49.0,1372.0,square2,j,0.1788,1,V,11.0
V11,22.0,78.0,56.0,73.0,62.0,73.0,1445.0,square3,i,0.0019,2,V,11.0
V11,23.0,84.0,54.0,71.0,65.0,65.0,1510.0,square4,r,0.4358,3,V,11.0
V11,24.0,80.0,55.0,72.0,67.0,72.0,1582.0,square3,i,0.0279,2,V,11.0
V11,25.0,80.0,55.0,75.0,63.0,75.0,1657.0,square3,i,0.394,2,V,11.0
V11,26.0,80.0,56.0,67.0,62.0,67.0,1724.0,square3,i,0.0025,2,V,11.0
V11,27.0,80.0,51.0,68.0,62.0,62.0,1786.0,square4,r,0.3322,3,V,11.0
V11,28.0,79.0,57.0,67.0,57.0,79.0,1865.0,square1,f,0.3008,0,V,11.0
V11,29.0,79.0,50.0,67.0,62.0,79.0,1944.0,square1,f,0.1281,0,V,11.0
V11,30.0,88.0,54.0,74.0,61.0,88.0,2032.0,square1,f,0.0142,0,V,11.0
V11,31.0,81.0,51.0,75.0,63.0,81.0,2113.0,square1,f,0.084,0,V,11.0
V11,32.0,76.0,51.0,69.0,65.0,76.0,2189.0,square1,f,0.0643,0,V,11.0
V11,33.0,78.0,54.0,72.0,64.0,78.0,2267.0,square1,f,0.3421,0,V,11.0
V11,34.0,77.0,53.0,71.0,62.0,62.0,2329.0,square4,r,0.1641,3,V,11.0
V11,35.0,74.0,59.0,75.0,62.0,74.0,2403.0,square1,f,0.3781,0,V,11.0
V11,36.0,79.0,50.0,72.0,62.0,79.0,2482.0,square1,f,0.0479,0,V,11.0
V11,37.0,74.0,54.0,68.0,62.0,68.0,2550.0,square3,i,0.1779,2,V,11.0
V11,38.0,80.0,57.0,65.0,58.0,80.0,2630.0,square1,f,0.356,0,V,11.0
V11,39.0,73.0,52.0,75.0,66.0,73.0,2703.0,square1,f,0.0017,0,V,11.0
V11,40.0,82.0,57.0,71.0,57.0,82.0,2785.0,square1,f,0.3115,0,V,11.0
V11,41.0,78.0,53.0,73.0,64.0,53.0,2838.0,square2,j,0.2123,1,V,11.0
V11,42.0,72.0,56.0,67.0,59.0,59.0,2897.0,square4,r,0.2151,3,V,11.0
V11,43.0,81.0,54.0,73.0,63.0,81.0,2978.0,square1,f,0.4315,0,V,11.0
V11,44.0,76.0,54.0,75.0,59.0,76.0,3054.0,square1,f,0.3609,0,V,11.0
V11,45.0,79.0,59.0,71.0,64.0,79.0,3133.0,square1,f,0.2956,0,V,11.0
V11,46.0,80.0,55.0,67.0,57.0,80.0,3213.0,square1,f,0.0018,0,V,11.0
V11,47.0,84.0,53.0,75.0,56.0,84.0,3297.0,square1,f,0.3121,0,V,11.0
V11,48.0,83.0,57.0,71.0,60.0,83.0,3380.0,square1,f,0.329,0,V,11.0
V11,49.0,79.0,52.0,71.0,60.0,79.0,3459.0,square1,f,0.2366,0,V,11.0
V11,50.0,76.0,50.0,69.0,60.0,76.0,3535.0,square1,f,0.3178,0,V,11.0
V11,51.0,79.0,54.0,72.0,57.0,79.0,3614.0,square1,f,0.2469,0,V,11.0
V11,52.0,80.0,54.0,72.0,64.0,72.0,3686.0,square3,i,0.0603,2,V,11.0
V11,53.0,35.0,50.0,55.0,69.0,35.0,3721.0,square1,f,0.1941,0,V,11.0
V11,54.0,45.0,48.0,55.0,73.0,55.0,3776.0,square3,i,0.1818,2,V,11.0
V11,55.0,43.0,53.0,58.0,70.0,53.0,3829.0,square2,j,0.2785,1,V,11.0
V11,56.0,40.0,46.0,60.0,62.0,62.0,3891.0,square4,r,0.2664,3,V,11.0
V11,57.0,44.0,46.0,53.0,71.0,53.0,3944.0,square3,i,0.4464,2,V,11.0
V11,58.0,44.0,52.0,55.0,68.0,68.0,4012.0,square4,r,0.5029,3,V,11.0
V11,59.0,44.0,44.0,57.0,66.0,66.0,4078.0,square4,r,0.1792,3,V,11.0
V11,60.0,40.0,46.0,57.0,62.0,62.0,4140.0,square4,r,0.2618,3,V,11.0
V11,61.0,42.0,52.0,58.0,62.0,62.0,4202.0,square4,r,0.0808,3,V,11.0
V11,62.0,40.0,49.0,56.0,71.0,71.0,4273.0,square4,r,0.028,3,V,11.0
V11,63.0,40.0,54.0,60.0,66.0,66.0,4339.0,square4,r,0.246,3,V,11.0
V11,64.0,41.0,43.0,51.0,66.0,41.0,4380.0,square1,f,0.1448,0,V,11.0
V11,65.0,39.0,48.0,59.0,66.0,66.0,4446.0,square4,r,0.1369,3,V,11.0
V11,66.0,40.0,48.0,59.0,69.0,69.0,4515.0,square4,r,0.0978,3,V,11.0
V11,67.0,46.0,45.0,58.0,69.0,69.0,4584.0,square4,r,0.0945,3,V,11.0
V11,68.0,41.0,50.0,56.0,69.0,69.0,4653.0,square4,r,0.3422,3,V,11.0
V11,69.0,48.0,49.0,57.0,71.0,49.0,4702.0,square2,j,0.2436,1,V,11.0
V11,70.0,41.0,47.0,58.0,65.0,58.0,4760.0,square3,i,0.0524,2,V,11.0
V11,71.0,37.0,46.0,58.0,60.0,60.0,4820.0,square4,r,0.2446,3,V,11.0
V11,72.0,41.0,47.0,54.0,65.0,65.0,4885.0,square4,r,0.26,3,V,11.0
V11,73.0,42.0,47.0,60.0,67.0,67.0,4952.0,square4,r,0.3097,3,V,11.0
V11,74.0,43.0,49.0,57.0,64.0,64.0,5016.0,square4,r,0.2324,3,V,11.0
V11,75.0,38.0,46.0,57.0,66.0,66.0,5082.0,square4,r,0.1947,3,V,11.0
V11,76.0,42.0,50.0,58.0,68.0,68.0,5150.0,square4,r,0.1297,3,V,11.0
V11,77.0,36.0,49.0,58.0,64.0,58.0,5208.0,square3,i,0.0181,2,V,11.0
V11,78.0,40.0,50.0,56.0,67.0,50.0,5258.0,square2,j,0.0023,1,V,11.0
V11,79.0,39.0,48.0,56.0,67.0,67.0,5325.0,square4,r,0.254,3,V,11.0
V11,80.0,51.0,33.0,30.0,45.0,45.0,5370.0,square4,r,0.1626,3,V,11.0
V11,81.0,49.0,31.0,23.0,48.0,49.0,5419.0,square1,f,0.1205,0,V,11.0
V11,82.0,55.0,30.0,25.0,42.0,25.0,5444.0,square3,i,0.0366,2,V,11.0
V11,83.0,50.0,33.0,27.0,48.0,33.0,5477.0,square2,j,0.0013,1,V,11.0
V11,84.0,52.0,34.0,25.0,43.0,52.0,5529.0,square1,f,0.1787,0,V,11.0
V11,85.0,49.0,28.0,28.0,44.0,49.0,5578.0,square1,f,0.096,0,V,11.0
V11,86.0,57.0,29.0,27.0,48.0,29.0,5607.0,square2,j,0.2465,1,V,11.0
V11,87.0,49.0,29.0,21.0,38.0,49.0,5656.0,square1,f,0.1978,0,V,11.0
V11,88.0,55.0,32.0,29.0,46.0,46.0,5702.0,square4,r,0.2466,3,V,11.0
V11,89.0,50.0,28.0,23.0,43.0,23.0,5725.0,square3,i,0.0143,2,V,11.0
V11,90.0,54.0,34.0,32.0,41.0,41.0,5766.0,square4,r,0.0347,3,V,11.0
V11,91.0,50.0,34.0,26.0,44.0,50.0,5816.0,square1,f,0.2426,0,V,11.0
V11,92.0,51.0,31.0,27.0,50.0,51.0,5867.0,square1,f,0.129,0,V,11.0
V11,93.0,49.0,38.0,28.0,42.0,49.0,5916.0,square1,f,0.0451,0,V,11.0
V11,94.0,50.0,29.0,25.0,46.0,46.0,5962.0,square4,r,0.1478,3,V,11.0
V11,95.0,51.0,36.0,22.0,40.0,22.0,5984.0,square3,i,0.1469,2,V,11.0
V11,96.0,52.0,34.0,32.0,45.0,45.0,6029.0,square4,r,0.3335,3,V,11.0
V11,97.0,53.0,27.0,32.0,44.0,53.0,6082.0,square1,f,0.1515,0,V,11.0
V11,98.0,60.0,31.0,25.0,48.0,60.0,6142.0,square1,f,0.1443,0,V,11.0
V11,99.0,53.0,33.0,23.0,42.0,53.0,6195.0,square1,f,0.0499,0,V,11.0
V4,0.0,63.0,38.0,47.0,55.0,47.0,47.0,square3,f,1.3935,2,V,4.0
V4,1.0,66.0,42.0,43.0,59.0,42.0,89.0,square2,i,0.0472,1,V,4.0
V4,2.0,66.0,39.0,57.0,59.0,59.0,148.0,square4,j,0.1159,3,V,4.0
V4,3.0,66.0,37.0,51.0,59.0,66.0,214.0,square1,r,0.2448,0,V,4.0
V4,4.0,69.0,37.0,50.0,55.0,69.0,283.0,square1,r,0.0025,0,V,4.0
V4,5.0,64.0,44.0,46.0,62.0,64.0,347.0,square1,r,0.0614,0,V,4.0
V4,6.0,75.0,43.0,49.0,57.0,75.0,422.0,square1,r,0.2133,0,V,4.0
V4,7.0,62.0,41.0,52.0,59.0,62.0,484.0,square1,r,0.0331,0,V,4.0
V4,8.0,65.0,41.0,44.0,60.0,65.0,549.0,square1,r,0.0624,0,V,4.0
V4,9.0,68.0,35.0,44.0,64.0,68.0,617.0,square1,r,0.0652,0,V,4.0
V4,10.0,67.0,44.0,48.0,61.0,67.0,684.0,square1,r,0.2418,0,V,4.0
V4,11.0,61.0,40.0,48.0,56.0,61.0,745.0,square1,r,0.0111,0,V,4.0
V4,12.0,68.0,41.0,49.0,55.0,68.0,813.0,square1,r,0.2129,0,V,4.0
V4,13.0,63.0,42.0,47.0,60.0,60.0,873.0,square4,j,0.0794,3,V,4.0
V4,14.0,63.0,40.0,51.0,55.0,40.0,913.0,square2,i,0.1653,1,V,4.0
V4,15.0,62.0,41.0,52.0,62.0,62.0,975.0,square1,r,0.0457,0,V,4.0
V4,16.0,69.0,37.0,47.0,60.0,69.0,1044.0,square1,r,0.1173,0,V,4.0
V4,17.0,66.0,40.0,48.0,56.0,66.0,1110.0,square1,r,0.1327,0,V,4.0
V4,18.0,67.0,43.0,47.0,59.0,67.0,1177.0,square1,r,0.0672,0,V,4.0
V4,19.0,64.0,42.0,51.0,59.0,64.0,1241.0,square1,r,0.1112,0,V,4.0
V4,20.0,67.0,40.0,47.0,58.0,67.0,1308.0,square1,r,0.061,0,V,4.0
V4,21.0,60.0,41.0,50.0,59.0,60.0,1368.0,square1,r,0.096,0,V,4.0
V4,22.0,66.0,43.0,54.0,55.0,66.0,1434.0,square1,r,0.4339,0,V,4.0
V4,23.0,67.0,37.0,50.0,62.0,50.0,1484.0,square3,f,0.2319,2,V,4.0
V4,24.0,67.0,37.0,49.0,60.0,60.0,1544.0,square4,j,0.3117,3,V,4.0
V4,25.0,67.0,39.0,55.0,52.0,52.0,1596.0,square4,j,0.1848,3,V,4.0
V4,26.0,64.0,39.0,51.0,63.0,64.0,1660.0,square1,r,0.0017,0,V,4.0
V4,27.0,68.0,36.0,55.0,60.0,68.0,1728.0,square1,r,0.0433,0,V,4.0
V4,28.0,67.0,40.0,46.0,54.0,67.0,1795.0,square1,r,0.31,0,V,4.0
V4,29.0,67.0,41.0,50.0,57.0,67.0,1862.0,square1,r,0.0786,0,V,4.0
V4,30.0,66.0,39.0,49.0,53.0,66.0,1928.0,square1,r,0.6159,0,V,4.0
V4,31.0,70.0,38.0,48.0,58.0,70.0,1998.0,square1,r,0.0503,0,V,4.0
V4,32.0,63.0,40.0,53.0,61.0,63.0,2061.0,square1,r,0.0017,0,V,4.0
V4,33.0,66.0,41.0,51.0,56.0,66.0,2127.0,square1,r,0.7647,0,V,4.0
V4,34.0,64.0,39.0,46.0,57.0,64.0,2191.0,square1,r,0.5798,0,V,4.0
V4,35.0,69.0,36.0,50.0,58.0,69.0,2260.0,square1,r,0.2315,0,V,4.0
V4,36.0,60.0,43.0,53.0,54.0,60.0,2320.0,square1,r,0.0778,0,V,4.0
V4,37.0,52.0,78.0,68.0,66.0,52.0,2372.0,square1,r,0.4708,0,V,4.0
V4,38.0,44.0,81.0,68.0,62.0,44.0,2416.0,square1,r,0.0406,0,V,4.0
V4,39.0,59.0,71.0,70.0,63.0,63.0,2479.0,square4,j,0.1114,3,V,4.0
V4,40.0,53.0,77.0,73.0,59.0,77.0,2556.0,square2,i,0.0439,1,V,4.0
V4,41.0,53.0,76.0,74.0,66.0,76.0,2632.0,square2,i,0.0667,1,V,4.0
V4,42.0,51.0,79.0,73.0,59.0,79.0,2711.0,square2,i,0.1448,1,V,4.0
V4,43.0,48.0,76.0,68.0,65.0,76.0,2787.0,square2,i,0.193,1,V,4.0
V4,44.0,57.0,83.0,78.0,63.0,83.0,2870.0,square2,i,0.0658,1,V,4.0
V4,45.0,54.0,74.0,69.0,61.0,74.0,2944.0,square2,i,0.1137,1,V,4.0
V4,46.0,53.0,85.0,66.0,62.0,85.0,3029.0,square2,i,0.0854,1,V,4.0
V4,47.0,56.0,83.0,68.0,57.0,83.0,3112.0,square2,i,0.0196,1,V,4.0
V4,48.0,49.0,74.0,73.0,59.0,74.0,3186.0,square2,i,0.0455,1,V,4.0
V4,49.0,54.0,74.0,70.0,60.0,74.0,3260.0,square2,i,0.2277,1,V,4.0
V4,50.0,47.0,83.0,69.0,60.0,83.0,3343.0,square2,i,0.112,1,V,4.0
V4,51.0,54.0,78.0,73.0,56.0,78.0,3421.0,square2,i,0.0933,1,V,4.0
V4,52.0,52.0,76.0,71.0,58.0,76.0,3497.0,square2,i,0.1224,1,V,4.0
V4,53.0,51.0,82.0,76.0,63.0,82.0,3579.0,square2,i,0.0014,1,V,4.0
V4,54.0,57.0,76.0,69.0,64.0,76.0,3655.0,square2,i,0.0938,1,V,4.0
V4,55.0,49.0,75.0,68.0,59.0,75.0,3730.0,square2,i,0.1089,1,V,4.0
V4,56.0,55.0,81.0,66.0,65.0,81.0,3811.0,square2,i,0.0355,1,V,4.0
V4,57.0,58.0,80.0,72.0,63.0,80.0,3891.0,square2,i,0.014,1,V,4.0
V4,58.0,49.0,81.0,66.0,62.0,81.0,3972.0,square2,i,0.1595,1,V,4.0
V4,59.0,57.0,78.0,73.0,59.0,78.0,4050.0,square2,i,0.1773,1,V,4.0
V4,60.0,48.0,79.0,66.0,59.0,59.0,4109.0,square4,j,0.2011,3,V,4.0
V4,61.0,53.0,80.0,72.0,60.0,72.0,4181.0,square3,f,0.0016,2,V,4.0
V4,62.0,53.0,79.0,70.0,61.0,70.0,4251.0,square3,f,0.0784,2,V,4.0
V4,63.0,81.0,66.0,90.0,66.0,90.0,4341.0,square3,f,0.1976,2,V,4.0
V4,64.0,80.0,64.0,85.0,76.0,85.0,4426.0,square3,f,0.2099,2,V,4.0
V4,65.0,77.0,61.0,92.0,74.0,92.0,4518.0,square3,f,0.0016,2,V,4.0
V4,66.0,89.0,65.0,91.0,73.0,91.0,4609.0,square3,f,0.009,2,V,4.0
V4,67.0,86.0,64.0,92.0,70.0,92.0,4701.0,square3,f,0.1714,2,V,4.0
V4,68.0,82.0,60.0,91.0,77.0,91.0,4792.0,square3,f,0.1957,2,V,4.0
V4,69.0,78.0,69.0,90.0,70.0,90.0,4882.0,square3,f,0.0767,2,V,4.0
V4,70.0,85.0,64.0,95.0,73.0,95.0,4977.0,square3,f,0.0083,2,V,4.0
V4,71.0,85.0,61.0,88.0,69.0,88.0,5065.0,square3,f,0.061,2,V,4.0
V4,72.0,86.0,63.0,87.0,75.0,87.0,5152.0,square3,f,0.0604,2,V,4.0
V4,73.0,86.0,69.0,92.0,70.0,69.0,5221.0,square2,i,0.1476,1,V,4.0
V4,74.0,81.0,62.0,90.0,69.0,90.0,5311.0,square3,f,0.0613,2,V,4.0
V4,75.0,83.0,66.0,88.0,74.0,88.0,5399.0,square3,f,0.0019,2,V,4.0
V4,76.0,80.0,64.0,92.0,75.0,92.0,5491.0,square3,f,0.0014,2,V,4.0
V4,77.0,81.0,65.0,91.0,74.0,91.0,5582.0,square3,f,0.0341,2,V,4.0
V4,78.0,78.0,70.0,89.0,73.0,89.0,5671.0,square3,f,0.0118,2,V,4.0
V4,79.0,84.0,66.0,85.0,75.0,85.0,5756.0,square3,f,0.0607,2,V,4.0
V4,80.0,83.0,65.0,93.0,74.0,93.0,5849.0,square3,f,0.1258,2,V,4.0
V4,81.0,86.0,59.0,91.0,74.0,91.0,5940.0,square3,f,0.0853,2,V,4.0
V4,82.0,87.0,64.0,92.0,73.0,92.0,6032.0,square3,f,0.0438,2,V,4.0
V4,83.0,83.0,68.0,86.0,70.0,86.0,6118.0,square3,f,0.0429,2,V,4.0
V4,84.0,82.0,62.0,87.0,73.0,87.0,6205.0,square3,f,0.1001,2,V,4.0
V4,85.0,85.0,61.0,90.0,70.0,90.0,6295.0,square3,f,0.0361,2,V,4.0
V4,86.0,84.0,66.0,97.0,71.0,97.0,6392.0,square3,f,0.0437,2,V,4.0
V4,87.0,82.0,64.0,87.0,71.0,87.0,6479.0,square3,f,0.0941,2,V,4.0
V4,88.0,80.0,67.0,93.0,72.0,93.0,6572.0,square3,f,0.0777,2,V,4.0
V4,89.0,78.0,64.0,92.0,75.0,92.0,6664.0,square3,f,0.1448,2,V,4.0
V4,90.0,75.0,66.0,88.0,72.0,88.0,6752.0,square3,f,0.1816,2,V,4.0
V4,91.0,82.0,59.0,91.0,76.0,91.0,6843.0,square3,f,0.1161,2,V,4.0
V4,92.0,84.0,62.0,91.0,70.0,91.0,6934.0,square3,f,0.0956,2,V,4.0
V4,93.0,80.0,61.0,94.0,76.0,94.0,7028.0,square3,f,0.226,2,V,4.0
V4,94.0,83.0,64.0,88.0,72.0,88.0,7116.0,square3,f,0.0044,2,V,4.0
V4,95.0,82.0,60.0,94.0,69.0,94.0,7210.0,square3,f,0.211,2,V,4.0
V4,96.0,84.0,63.0,92.0,72.0,92.0,7302.0,square3,f,0.1124,2,V,4.0
V4,97.0,84.0,62.0,85.0,70.0,85.0,7387.0,square3,f,0.1436,2,V,4.0
V4,98.0,81.0,64.0,93.0,72.0,93.0,7480.0,square3,f,0.2086,2,V,4.0
V4,99.0,80.0,61.0,92.0,75.0,92.0,7572.0,square3,f,0.0262,2,V,4.0
V5,0.0,46.0,21.0,37.0,28.0,46.0,46.0,square1,j,1.3548,0,V,5.0
V5,1.0,43.0,27.0,36.0,31.0,36.0,82.0,square3,i,0.4753,2,V,5.0
V5,2.0,50.0,18.0,43.0,32.0,18.0,100.0,square2,r,0.2643,1,V,5.0
V5,3.0,53.0,23.0,36.0,34.0,34.0,134.0,square4,f,0.0618,3,V,5.0
V5,4.0,52.0,19.0,38.0,34.0,52.0,186.0,square1,j,0.7302,0,V,5.0
V5,5.0,50.0,22.0,41.0,29.0,50.0,236.0,square1,j,0.2134,0,V,5.0
V5,6.0,52.0,19.0,40.0,33.0,52.0,288.0,square1,j,0.0791,0,V,5.0
V5,7.0,48.0,24.0,36.0,27.0,48.0,336.0,square1,j,0.0948,0,V,5.0
V5,8.0,50.0,24.0,35.0,33.0,24.0,360.0,square2,r,0.1639,1,V,5.0
V5,9.0,48.0,25.0,39.0,34.0,39.0,399.0,square3,i,0.396,2,V,5.0
V5,10.0,52.0,19.0,32.0,34.0,34.0,433.0,square4,f,0.3436,3,V,5.0
V5,11.0,48.0,22.0,32.0,32.0,32.0,465.0,square3,i,0.1795,2,V,5.0
V5,12.0,47.0,17.0,43.0,29.0,47.0,512.0,square1,j,0.0018,0,V,5.0
V5,13.0,46.0,21.0,42.0,29.0,46.0,558.0,square1,j,0.0112,0,V,5.0
V5,14.0,47.0,28.0,42.0,28.0,47.0,605.0,square1,j,0.0143,0,V,5.0
V5,15.0,50.0,29.0,38.0,36.0,50.0,655.0,square1,j,0.1798,0,V,5.0
V5,16.0,49.0,24.0,36.0,34.0,49.0,704.0,square1,j,0.0617,0,V,5.0
V5,17.0,50.0,20.0,38.0,35.0,50.0,754.0,square1,j,0.1628,0,V,5.0
V5,18.0,49.0,22.0,46.0,29.0,49.0,803.0,square1,j,0.0985,0,V,5.0
V5,19.0,46.0,23.0,40.0,31.0,46.0,849.0,square1,j,0.0858,0,V,5.0
V5,20.0,51.0,22.0,41.0,28.0,51.0,900.0,square1,j,0.0333,0,V,5.0
V5,21.0,51.0,26.0,36.0,31.0,26.0,926.0,square2,r,0.2447,1,V,5.0
V5,22.0,47.0,18.0,41.0,28.0,41.0,967.0,square3,i,0.3181,2,V,5.0
V5,23.0,52.0,20.0,36.0,29.0,29.0,996.0,square4,f,0.1657,3,V,5.0
V5,24.0,51.0,21.0,41.0,34.0,51.0,1047.0,square1,j,0.1674,0,V,5.0
V5,25.0,50.0,20.0,41.0,27.0,50.0,1097.0,square1,j,0.231,0,V,5.0
V5,26.0,49.0,29.0,37.0,28.0,49.0,1146.0,square1,j,0.1155,0,V,5.0
V5,27.0,10.0,13.0,42.0,32.0,10.0,1156.0,square1,j,0.0757,0,V,5.0
V5,28.0,9.0,19.0,40.0,27.0,19.0,1175.0,square2,r,0.0019,1,V,5.0
V5,29.0,17.0,17.0,38.0,29.0,38.0,1213.0,square3,i,0.2112,2,V,5.0
V5,30.0,8.0,18.0,36.0,29.0,29.0,1242.0,square4,f,0.0943,3,V,5.0
V5,31.0,16.0,24.0,34.0,29.0,34.0,1276.0,square3,i,0.0517,2,V,5.0
V5,32.0,9.0,17.0,35.0,31.0,35.0,1311.0,square3,i,0.1312,2,V,5.0
V5,33.0,11.0,19.0,36.0,28.0,36.0,1347.0,square3,i,0.0996,2,V,5.0
V5,34.0,10.0,19.0,38.0,28.0,38.0,1385.0,square3,i,0.093,2,V,5.0
V5,35.0,5.0,23.0,40.0,34.0,5.0,1390.0,square1,j,0.1624,0,V,5.0
V5,36.0,17.0,20.0,36.0,31.0,20.0,1410.0,square2,r,0.1132,1,V,5.0
V5,37.0,12.0,13.0,36.0,30.0,13.0,1423.0,square2,r,0.1106,1,V,5.0
V5,38.0,14.0,24.0,35.0,27.0,35.0,1458.0,square3,i,0.0153,2,V,5.0
V5,39.0,13.0,20.0,39.0,32.0,32.0,1490.0,square4,f,0.1271,3,V,5.0
V5,40.0,9.0,15.0,37.0,24.0,24.0,1514.0,square4,f,0.2152,3,V,5.0
V5,41.0,9.0,14.0,38.0,31.0,31.0,1545.0,square4,f,0.1048,3,V,5.0
V5,42.0,14.0,17.0,43.0,31.0,43.0,1588.0,square3,i,0.1966,2,V,5.0
V5,43.0,10.0,18.0,39.0,23.0,23.0,1611.0,square4,f,0.1452,3,V,5.0
V5,44.0,10.0,20.0,33.0,32.0,33.0,1644.0,square3,i,0.1253,2,V,5.0
V5,45.0,16.0,17.0,37.0,29.0,37.0,1681.0,square3,i,0.1123,2,V,5.0
V5,46.0,9.0,22.0,37.0,25.0,37.0,1718.0,square3,i,0.0142,2,V,5.0
V5,47.0,10.0,22.0,35.0,26.0,10.0,1728.0,square1,j,0.0672,0,V,5.0
V5,48.0,11.0,16.0,39.0,23.0,16.0,1744.0,square2,r,0.0666,1,V,5.0
V5,49.0,13.0,16.0,33.0,27.0,33.0,1777.0,square3,i,0.0652,2,V,5.0
V5,50.0,12.0,16.0,39.0,24.0,39.0,1816.0,square3,i,0.2132,2,V,5.0
V5,51.0,10.0,21.0,43.0,28.0,43.0,1859.0,square3,i,0.0618,2,V,5.0
V5,52.0,8.0,15.0,36.0,28.0,28.0,1887.0,square4,f,0.0115,3,V,5.0
V5,53.0,38.0,20.0,31.0,54.0,31.0,1918.0,square3,i,0.0016,2,V,5.0
V5,54.0,39.0,20.0,35.0,51.0,35.0,1953.0,square3,i,0.0871,2,V,5.0
V5,55.0,41.0,21.0,27.0,50.0,27.0,1980.0,square3,i,0.1471,2,V,5.0
V5,56.0,39.0,23.0,28.0,49.0,28.0,2008.0,square3,i,0.0804,2,V,5.0
V5,57.0,36.0,28.0,29.0,59.0,29.0,2037.0,square3,i,0.1144,2,V,5.0
V5,58.0,38.0,22.0,28.0,49.0,22.0,2059.0,square2,r,0.0774,1,V,5.0
V5,59.0,44.0,23.0,30.0,51.0,30.0,2089.0,square3,i,0.0021,2,V,5.0
V5,60.0,43.0,21.0,31.0,48.0,43.0,2132.0,square1,j,0.0815,0,V,5.0
V5,61.0,39.0,24.0,35.0,50.0,39.0,2171.0,square1,j,0.2299,0,V,5.0
V5,62.0,38.0,25.0,31.0,52.0,38.0,2209.0,square1,j,0.1368,0,V,5.0
V5,63.0,41.0,14.0,31.0,52.0,41.0,2250.0,square1,j,0.063,0,V,5.0
V5,64.0,43.0,23.0,30.0,51.0,43.0,2293.0,square1,j,0.0646,0,V,5.0
V5,65.0,41.0,23.0,35.0,52.0,41.0,2334.0,square1,j,0.0803,0,V,5.0
V5,66.0,41.0,17.0,33.0,47.0,41.0,2375.0,square1,j,0.0016,0,V,5.0
V5,67.0,44.0,23.0,32.0,49.0,44.0,2419.0,square1,j,0.1282,0,V,5.0
V5,68.0,44.0,24.0,31.0,44.0,44.0,2463.0,square1,j,0.0692,0,V,5.0
V5,69.0,43.0,28.0,27.0,48.0,43.0,2506.0,square1,j,0.0016,0,V,5.0
V5,70.0,38.0,22.0,26.0,50.0,38.0,2544.0,square1,j,0.237,0,V,5.0
V5,71.0,41.0,29.0,26.0,53.0,41.0,2585.0,square1,j,0.1455,0,V,5.0
V5,72.0,40.0,20.0,28.0,51.0,40.0,2625.0,square1,j,0.0331,0,V,5.0
V5,73.0,59.0,44.0,51.0,35.0,59.0,2684.0,square1,j,0.0087,0,V,5.0
V5,74.0,60.0,38.0,55.0,43.0,60.0,2744.0,square1,j,0.019,0,V,5.0
V5,75.0,63.0,45.0,50.0,37.0,45.0,2789.0,square2,r,0.0092,1,V,5.0
V5,76.0,62.0,42.0,50.0,37.0,50.0,2839.0,square3,i,0.0477,2,V,5.0
V5,77.0,57.0,37.0,52.0,35.0,57.0,2896.0,square1,j,0.0119,0,V,5.0
V5,78.0,66.0,45.0,54.0,37.0,37.0,2933.0,square4,f,0.281,3,V,5.0
V5,79.0,64.0,37.0,48.0,35.0,64.0,2997.0,square1,j,0.1975,0,V,5.0
V5,80.0,63.0,40.0,56.0,38.0,63.0,3060.0,square1,j,0.2109,0,V,5.0
V5,81.0,62.0,41.0,54.0,32.0,62.0,3122.0,square1,j,0.1038,0,V,5.0
V5,82.0,58.0,41.0,59.0,39.0,58.0,3180.0,square1,j,0.0984,0,V,5.0
V5,83.0,66.0,46.0,54.0,35.0,66.0,3246.0,square1,j,0.0326,0,V,5.0
V5,84.0,67.0,44.0,52.0,33.0,67.0,3313.0,square1,j,0.0633,0,V,5.0
V5,85.0,67.0,45.0,46.0,36.0,67.0,3380.0,square1,j,0.1036,0,V,5.0
V5,86.0,65.0,44.0,51.0,38.0,65.0,3445.0,square1,j,0.0262,0,V,5.0
V5,87.0,64.0,49.0,48.0,35.0,64.0,3509.0,square1,j,0.027,0,V,5.0
V5,88.0,68.0,47.0,56.0,36.0,68.0,3577.0,square1,j,0.0772,0,V,5.0
V5,89.0,60.0,42.0,57.0,32.0,60.0,3637.0,square1,j,0.0182,0,V,5.0
V5,90.0,59.0,43.0,53.0,34.0,59.0,3696.0,square1,j,0.0221,0,V,5.0
V5,91.0,64.0,43.0,51.0,34.0,64.0,3760.0,square1,j,0.0262,0,V,5.0
V5,92.0,65.0,41.0,57.0,38.0,65.0,3825.0,square1,j,0.0655,0,V,5.0
V5,93.0,59.0,48.0,54.0,40.0,54.0,3879.0,square3,i,0.0618,2,V,5.0
V5,94.0,66.0,44.0,53.0,43.0,53.0,3932.0,square3,i,0.1119,2,V,5.0
V5,95.0,63.0,43.0,50.0,40.0,50.0,3982.0,square3,i,0.1805,2,V,5.0
V5,96.0,62.0,44.0,50.0,33.0,62.0,4044.0,square1,j,0.0054,0,V,5.0
V5,97.0,64.0,49.0,55.0,37.0,64.0,4108.0,square1,j,0.0618,0,V,5.0
V5,98.0,65.0,44.0,53.0,36.0,65.0,4173.0,square1,j,0.086,0,V,5.0
V5,99.0,65.0,42.0,55.0,35.0,65.0,4238.0,square1,j,0.1189,0,V,5.0
