block,Trial,square1,square2,square3,square4,currPoints,totalPoints,square,choiceKey.keys,choiceKey.rt,armNum,blockType,blockNum
prac,0.0,100.0,0.0,0.0,0.0,99999,0.0,invalid,,,-1,p,0.0
prac,1.0,100.0,0.0,0.0,0.0,99999,0.0,invalid,,,-1,p,0.0
prac,2.0,100.0,0.0,0.0,0.0,0,0.0,square3,,,2,p,0.0
prac,3.0,100.0,0.0,0.0,0.0,99999,0.0,invalid,,,-1,p,0.0
prac,4.0,100.0,0.0,0.0,0.0,100,100.0,square1,,,0,p,0.0
prac,5.0,100.0,0.0,0.0,0.0,99999,100.0,invalid,,,-1,p,0.0
prac,6.0,100.0,0.0,0.0,0.0,99999,100.0,invalid,,,-1,p,0.0
prac,7.0,100.0,0.0,0.0,0.0,0,100.0,square3,,,2,p,0.0
prac,8.0,100.0,0.0,0.0,0.0,0,100.0,square2,,,1,p,0.0
prac,9.0,100.0,0.0,0.0,0.0,100,200.0,square1,,,0,p,0.0
V3,0.0,62.0,45.0,70.0,53.0,53,53.0,square4,r,1.0621,3,V,3.0
V3,1.0,63.0,47.0,76.0,60.0,63,116.0,square1,j,0.7817,0,V,3.0
V3,2.0,65.0,54.0,73.0,57.0,57,173.0,square4,r,0.5081,3,V,3.0
V3,3.0,68.0,51.0,71.0,51.0,68,241.0,square1,j,0.1195,0,V,3.0
V3,4.0,61.0,49.0,75.0,53.0,53,294.0,square4,r,0.359,3,V,3.0
V3,5.0,65.0,47.0,74.0,50.0,65,359.0,square1,j,0.1009,0,V,3.0
V3,6.0,61.0,51.0,72.0,57.0,61,420.0,square1,j,0.0887,0,V,3.0
V3,7.0,67.0,49.0,75.0,55.0,55,475.0,square4,r,0.1562,3,V,3.0
V3,8.0,64.0,48.0,76.0,56.0,64,539.0,square1,j,0.0195,0,V,3.0
V3,9.0,67.0,49.0,71.0,56.0,67,606.0,square1,j,0.0005,0,V,3.0
V3,10.0,65.0,50.0,71.0,56.0,50,656.0,square2,f,0.4621,1,V,3.0
V3,11.0,63.0,43.0,78.0,58.0,63,719.0,square1,j,0.5854,0,V,3.0
V3,12.0,66.0,53.0,73.0,54.0,99999,719.0,invalid,,,-1,V,3.0
V3,13.0,64.0,46.0,78.0,51.0,99999,719.0,invalid,,,-1,V,3.0
V3,14.0,67.0,51.0,71.0,58.0,67,786.0,square1,j,0.2235,0,V,3.0
V3,15.0,61.0,50.0,73.0,54.0,73,859.0,square3,i,0.8796,2,V,3.0
V3,16.0,64.0,52.0,74.0,54.0,74,933.0,square3,i,0.9123,2,V,3.0
V3,17.0,61.0,48.0,74.0,55.0,55,988.0,square4,r,1.1112,3,V,3.0
V3,18.0,65.0,50.0,70.0,59.0,65,1053.0,square1,j,1.228,0,V,3.0
V3,19.0,64.0,52.0,76.0,56.0,52,1105.0,square2,f,0.4156,1,V,3.0
V3,20.0,64.0,50.0,69.0,58.0,69,1174.0,square3,i,0.3173,2,V,3.0
V3,21.0,66.0,50.0,72.0,56.0,72,1246.0,square3,i,1.8863,2,V,3.0
V3,22.0,43.0,48.0,40.0,62.0,43,1289.0,square1,j,0.1098,0,V,3.0
V3,23.0,41.0,51.0,35.0,59.0,59,1348.0,square4,r,0.1141,3,V,3.0
V3,24.0,51.0,51.0,37.0,60.0,60,1408.0,square4,r,0.0069,3,V,3.0
V3,25.0,45.0,53.0,36.0,57.0,53,1461.0,square2,f,0.6405,1,V,3.0
V3,26.0,44.0,51.0,38.0,59.0,51,1512.0,square2,f,0.35,1,V,3.0
V3,27.0,43.0,51.0,34.0,66.0,51,1563.0,square2,f,0.2943,1,V,3.0
V3,28.0,47.0,51.0,40.0,67.0,67,1630.0,square4,r,0.0797,3,V,3.0
V3,29.0,42.0,55.0,35.0,65.0,35,1665.0,square3,i,0.1271,2,V,3.0
V3,30.0,49.0,54.0,36.0,62.0,49,1714.0,square1,j,0.8761,0,V,3.0
V3,31.0,50.0,53.0,42.0,66.0,66,1780.0,square4,r,0.3264,3,V,3.0
V3,32.0,47.0,53.0,34.0,58.0,99999,1780.0,invalid,,,-1,V,3.0
V3,33.0,45.0,56.0,34.0,62.0,99999,1780.0,invalid,,,-1,V,3.0
V3,34.0,48.0,54.0,38.0,64.0,99999,1780.0,invalid,,,-1,V,3.0
V3,35.0,39.0,55.0,42.0,65.0,65,1845.0,square4,r,0.312,3,V,3.0
V3,36.0,46.0,57.0,41.0,63.0,99999,1845.0,invalid,,,-1,V,3.0
V3,37.0,43.0,54.0,41.0,65.0,43,1888.0,square1,j,0.6775,0,V,3.0
V3,38.0,47.0,52.0,37.0,63.0,52,1940.0,square2,f,0.8928,1,V,3.0
V3,39.0,47.0,53.0,38.0,55.0,38,1978.0,square3,i,1.2511,2,V,3.0
V3,40.0,41.0,54.0,39.0,64.0,54,2032.0,square2,f,1.7446,1,V,3.0
V3,41.0,48.0,52.0,38.0,64.0,64,2096.0,square4,r,0.2845,3,V,3.0
V3,42.0,45.0,50.0,34.0,63.0,50,2146.0,square2,f,0.7052,1,V,3.0
V3,43.0,44.0,50.0,34.0,62.0,62,2208.0,square4,r,0.3906,3,V,3.0
V3,44.0,47.0,55.0,39.0,65.0,55,2263.0,square2,f,0.0604,1,V,3.0
V3,45.0,45.0,55.0,31.0,63.0,31,2294.0,square3,i,0.0435,2,V,3.0
V3,46.0,42.0,52.0,38.0,64.0,52,2346.0,square2,f,0.0513,1,V,3.0
V3,47.0,44.0,53.0,37.0,55.0,53,2399.0,square2,f,0.0121,1,V,3.0
V3,48.0,44.0,49.0,37.0,58.0,58,2457.0,square4,r,0.1562,3,V,3.0
V3,49.0,48.0,58.0,35.0,54.0,58,2515.0,square2,f,0.2872,1,V,3.0
V3,50.0,42.0,28.0,30.0,52.0,42,2557.0,square1,j,0.1795,0,V,3.0
V3,51.0,46.0,29.0,32.0,51.0,51,2608.0,square4,r,0.086,3,V,3.0
V3,52.0,37.0,20.0,36.0,50.0,37,2645.0,square1,j,0.2288,0,V,3.0
V3,53.0,44.0,22.0,34.0,55.0,22,2667.0,square2,f,0.2671,1,V,3.0
V3,54.0,37.0,27.0,26.0,50.0,50,2717.0,square4,r,0.4749,3,V,3.0
V3,55.0,41.0,21.0,39.0,53.0,39,2756.0,square3,i,0.0108,2,V,3.0
V3,56.0,40.0,20.0,38.0,51.0,40,2796.0,square1,j,0.1391,0,V,3.0
V3,57.0,44.0,28.0,31.0,57.0,57,2853.0,square4,r,0.0642,3,V,3.0
V3,58.0,46.0,20.0,28.0,49.0,20,2873.0,square2,f,0.1546,1,V,3.0
V3,59.0,44.0,24.0,30.0,55.0,99999,2873.0,invalid,,,-1,V,3.0
V3,60.0,42.0,29.0,29.0,51.0,99999,2873.0,invalid,,,-1,V,3.0
V3,61.0,41.0,21.0,30.0,46.0,99999,2873.0,invalid,,,-1,V,3.0
V3,62.0,41.0,27.0,31.0,49.0,99999,2873.0,invalid,,,-1,V,3.0
V3,63.0,42.0,27.0,34.0,51.0,51,2924.0,square4,r,1.5714,3,V,3.0
V3,64.0,41.0,24.0,30.0,47.0,41,2965.0,square1,j,0.7025,0,V,3.0
V3,65.0,36.0,18.0,34.0,48.0,18,2983.0,square2,f,0.1037,1,V,3.0
V3,66.0,39.0,28.0,35.0,45.0,45,3028.0,square4,r,0.419,3,V,3.0
V3,67.0,42.0,21.0,32.0,46.0,32,3060.0,square3,i,0.4371,2,V,3.0
V3,68.0,40.0,24.0,35.0,53.0,53,3113.0,square4,r,0.0323,3,V,3.0
V3,69.0,48.0,23.0,34.0,50.0,50,3163.0,square4,r,0.1118,3,V,3.0
V3,70.0,40.0,27.0,31.0,49.0,49,3212.0,square4,r,0.2711,3,V,3.0
V3,71.0,41.0,23.0,28.0,51.0,51,3263.0,square4,r,0.1017,3,V,3.0
V3,72.0,42.0,25.0,33.0,55.0,55,3318.0,square4,r,0.2355,3,V,3.0
V3,73.0,41.0,24.0,35.0,55.0,55,3373.0,square4,r,0.0691,3,V,3.0
V3,74.0,38.0,26.0,28.0,53.0,53,3426.0,square4,r,0.0487,3,V,3.0
V3,75.0,54.0,39.0,69.0,50.0,50,3476.0,square4,r,0.0312,3,V,3.0
V3,76.0,55.0,42.0,64.0,53.0,53,3529.0,square4,r,0.0005,3,V,3.0
V3,77.0,59.0,37.0,66.0,44.0,44,3573.0,square4,r,0.0822,3,V,3.0
V3,78.0,58.0,38.0,60.0,46.0,46,3619.0,square4,r,0.0939,3,V,3.0
V3,79.0,54.0,35.0,66.0,49.0,49,3668.0,square4,r,0.1059,3,V,3.0
V3,80.0,60.0,36.0,68.0,44.0,44,3712.0,square4,r,0.0997,3,V,3.0
V3,81.0,55.0,38.0,66.0,51.0,51,3763.0,square4,r,0.1206,3,V,3.0
V3,82.0,57.0,47.0,64.0,50.0,50,3813.0,square4,r,0.1867,3,V,3.0
V3,83.0,57.0,37.0,63.0,45.0,45,3858.0,square4,r,0.1261,3,V,3.0
V3,84.0,54.0,40.0,65.0,53.0,53,3911.0,square4,r,0.1187,3,V,3.0
V3,85.0,58.0,41.0,63.0,48.0,48,3959.0,square4,r,0.1937,3,V,3.0
V3,86.0,53.0,38.0,57.0,49.0,49,4008.0,square4,r,0.8189,3,V,3.0
V3,87.0,49.0,42.0,60.0,43.0,43,4051.0,square4,r,0.8023,3,V,3.0
V3,88.0,56.0,35.0,70.0,46.0,46,4097.0,square4,r,0.1689,3,V,3.0
V3,89.0,58.0,39.0,63.0,52.0,52,4149.0,square4,r,0.1914,3,V,3.0
V3,90.0,59.0,43.0,63.0,45.0,45,4194.0,square4,r,0.143,3,V,3.0
V3,91.0,54.0,37.0,69.0,49.0,49,4243.0,square4,r,0.0026,3,V,3.0
V3,92.0,56.0,41.0,61.0,47.0,47,4290.0,square4,r,0.3261,3,V,3.0
V3,93.0,58.0,35.0,68.0,47.0,58,4348.0,square1,j,0.1842,0,V,3.0
V3,94.0,61.0,37.0,67.0,51.0,61,4409.0,square1,j,0.1001,0,V,3.0
V3,95.0,57.0,32.0,64.0,47.0,57,4466.0,square1,j,0.0714,0,V,3.0
V3,96.0,53.0,38.0,63.0,48.0,53,4519.0,square1,j,0.1501,0,V,3.0
V3,97.0,57.0,44.0,71.0,50.0,57,4576.0,square1,j,0.1273,0,V,3.0
V3,98.0,56.0,39.0,70.0,47.0,56,4632.0,square1,j,0.0165,0,V,3.0
V3,99.0,62.0,40.0,67.0,49.0,62,4694.0,square1,j,0.1169,0,V,3.0
V12,0.0,47.0,30.0,38.0,55.0,99999,0.0,invalid,,,-1,V,12.0
V12,1.0,46.0,33.0,39.0,57.0,33,33.0,square2,r,0.8931,1,V,12.0
V12,2.0,51.0,29.0,42.0,52.0,42,75.0,square3,j,1.1777,2,V,12.0
V12,3.0,52.0,30.0,38.0,62.0,62,137.0,square4,i,0.6375,3,V,12.0
V12,4.0,48.0,30.0,39.0,62.0,48,185.0,square1,f,0.2705,0,V,12.0
V12,5.0,55.0,34.0,43.0,61.0,61,246.0,square4,i,0.335,3,V,12.0
V12,6.0,45.0,35.0,42.0,56.0,56,302.0,square4,i,0.2925,3,V,12.0
V12,7.0,48.0,29.0,35.0,57.0,57,359.0,square4,i,0.0005,3,V,12.0
V12,8.0,46.0,33.0,38.0,59.0,59,418.0,square4,i,0.0487,3,V,12.0
V12,9.0,44.0,31.0,42.0,56.0,56,474.0,square4,i,0.0845,3,V,12.0
V12,10.0,48.0,34.0,45.0,55.0,55,529.0,square4,i,0.134,3,V,12.0
V12,11.0,45.0,32.0,41.0,55.0,55,584.0,square4,i,0.0953,3,V,12.0
V12,12.0,52.0,26.0,42.0,57.0,57,641.0,square4,i,0.1216,3,V,12.0
V12,13.0,56.0,31.0,41.0,54.0,54,695.0,square4,i,0.1466,3,V,12.0
V12,14.0,44.0,34.0,40.0,64.0,64,759.0,square4,i,0.0882,3,V,12.0
V12,15.0,48.0,32.0,39.0,61.0,61,820.0,square4,i,0.2894,3,V,12.0
V12,16.0,49.0,33.0,37.0,58.0,58,878.0,square4,i,0.0689,3,V,12.0
V12,17.0,45.0,33.0,43.0,57.0,57,935.0,square4,i,0.06,3,V,12.0
V12,18.0,45.0,28.0,40.0,58.0,58,993.0,square4,i,0.0317,3,V,12.0
V12,19.0,42.0,33.0,43.0,59.0,59,1052.0,square4,i,0.0442,3,V,12.0
V12,20.0,46.0,30.0,38.0,62.0,62,1114.0,square4,i,0.1135,3,V,12.0
V12,21.0,46.0,35.0,40.0,55.0,55,1169.0,square4,i,0.0467,3,V,12.0
V12,22.0,46.0,34.0,36.0,63.0,63,1232.0,square4,i,0.0234,3,V,12.0
V12,23.0,54.0,34.0,42.0,56.0,56,1288.0,square4,i,0.0431,3,V,12.0
V12,24.0,44.0,30.0,41.0,59.0,59,1347.0,square4,i,0.0934,3,V,12.0
V12,25.0,49.0,33.0,37.0,64.0,64,1411.0,square4,i,0.0506,3,V,12.0
V12,26.0,52.0,34.0,39.0,57.0,57,1468.0,square4,i,0.1193,3,V,12.0
V12,27.0,50.0,26.0,37.0,55.0,55,1523.0,square4,i,1.2327,3,V,12.0
V12,28.0,41.0,29.0,46.0,21.0,21,1544.0,square4,i,1.1614,3,V,12.0
V12,29.0,41.0,28.0,51.0,20.0,20,1564.0,square4,i,0.1178,3,V,12.0
V12,30.0,32.0,31.0,46.0,22.0,22,1586.0,square4,i,0.0282,3,V,12.0
V12,31.0,38.0,28.0,45.0,22.0,28,1614.0,square2,r,0.1258,1,V,12.0
V12,32.0,35.0,27.0,44.0,16.0,35,1649.0,square1,f,0.1192,0,V,12.0
V12,33.0,39.0,29.0,49.0,21.0,39,1688.0,square1,f,0.0756,0,V,12.0
V12,34.0,39.0,28.0,49.0,15.0,49,1737.0,square3,j,0.2514,2,V,12.0
V12,35.0,36.0,29.0,50.0,17.0,50,1787.0,square3,j,0.0723,2,V,12.0
V12,36.0,41.0,28.0,48.0,12.0,48,1835.0,square3,j,0.036,2,V,12.0
V12,37.0,34.0,29.0,46.0,25.0,46,1881.0,square3,j,0.1532,2,V,12.0
V12,38.0,38.0,28.0,51.0,19.0,51,1932.0,square3,j,0.9357,2,V,12.0
V12,39.0,39.0,31.0,45.0,13.0,45,1977.0,square3,j,0.1179,2,V,12.0
V12,40.0,35.0,28.0,46.0,26.0,46,2023.0,square3,j,0.052,2,V,12.0
V12,41.0,38.0,27.0,46.0,20.0,46,2069.0,square3,j,0.0003,2,V,12.0
V12,42.0,40.0,26.0,50.0,23.0,99999,2069.0,invalid,,,-1,V,12.0
V12,43.0,33.0,30.0,45.0,18.0,99999,2069.0,invalid,,,-1,V,12.0
V12,44.0,39.0,31.0,46.0,22.0,46,2115.0,square3,j,0.9655,2,V,12.0
V12,45.0,32.0,26.0,42.0,20.0,42,2157.0,square3,j,0.0769,2,V,12.0
V12,46.0,36.0,29.0,43.0,24.0,43,2200.0,square3,j,0.1536,2,V,12.0
V12,47.0,37.0,30.0,46.0,21.0,46,2246.0,square3,j,0.0005,2,V,12.0
V12,48.0,37.0,27.0,44.0,19.0,44,2290.0,square3,j,0.1078,2,V,12.0
V12,49.0,36.0,33.0,55.0,16.0,55,2345.0,square3,j,0.1814,2,V,12.0
V12,50.0,45.0,28.0,44.0,18.0,44,2389.0,square3,j,0.177,2,V,12.0
V12,51.0,35.0,32.0,49.0,19.0,49,2438.0,square3,j,0.0737,2,V,12.0
V12,52.0,36.0,56.0,31.0,52.0,31,2469.0,square3,j,0.0352,2,V,12.0
V12,53.0,36.0,57.0,29.0,45.0,29,2498.0,square3,j,0.0259,2,V,12.0
V12,54.0,38.0,61.0,28.0,51.0,51,2549.0,square4,i,0.0184,3,V,12.0
V12,55.0,35.0,60.0,29.0,47.0,47,2596.0,square4,i,0.1356,3,V,12.0
V12,56.0,34.0,62.0,29.0,46.0,46,2642.0,square4,i,0.1625,3,V,12.0
V12,57.0,43.0,57.0,32.0,46.0,57,2699.0,square2,r,0.0268,1,V,12.0
V12,58.0,40.0,59.0,32.0,50.0,59,2758.0,square2,r,0.3596,1,V,12.0
V12,59.0,41.0,62.0,33.0,48.0,62,2820.0,square2,r,0.0706,1,V,12.0
V12,60.0,36.0,61.0,32.0,49.0,61,2881.0,square2,r,0.1134,1,V,12.0
V12,61.0,39.0,56.0,32.0,44.0,56,2937.0,square2,r,0.0271,1,V,12.0
V12,62.0,39.0,57.0,30.0,46.0,57,2994.0,square2,r,0.0932,1,V,12.0
V12,63.0,42.0,53.0,29.0,46.0,53,3047.0,square2,r,0.0776,1,V,12.0
V12,64.0,35.0,57.0,32.0,50.0,57,3104.0,square2,r,0.1899,1,V,12.0
V12,65.0,44.0,58.0,32.0,49.0,44,3148.0,square1,f,0.1223,0,V,12.0
V12,66.0,44.0,56.0,29.0,52.0,44,3192.0,square1,f,0.139,0,V,12.0
V12,67.0,41.0,60.0,30.0,49.0,41,3233.0,square1,f,0.1214,0,V,12.0
V12,68.0,42.0,58.0,32.0,45.0,58,3291.0,square2,r,0.0443,1,V,12.0
V12,69.0,36.0,60.0,33.0,50.0,60,3351.0,square2,r,0.0311,1,V,12.0
V12,70.0,36.0,57.0,27.0,46.0,57,3408.0,square2,r,0.1723,1,V,12.0
V12,71.0,41.0,59.0,32.0,48.0,59,3467.0,square2,r,0.1473,1,V,12.0
V12,72.0,34.0,59.0,31.0,49.0,59,3526.0,square2,r,0.114,1,V,12.0
V12,73.0,71.0,53.0,65.0,49.0,53,3579.0,square2,r,0.1285,1,V,12.0
V12,74.0,69.0,49.0,63.0,45.0,49,3628.0,square2,r,0.2772,1,V,12.0
V12,75.0,72.0,51.0,56.0,46.0,51,3679.0,square2,r,0.1756,1,V,12.0
V12,76.0,72.0,48.0,58.0,43.0,48,3727.0,square2,r,0.1493,1,V,12.0
V12,77.0,74.0,57.0,59.0,44.0,57,3784.0,square2,r,0.0066,1,V,12.0
V12,78.0,69.0,55.0,63.0,50.0,55,3839.0,square2,r,0.0453,1,V,12.0
V12,79.0,73.0,53.0,58.0,43.0,53,3892.0,square2,r,0.0614,1,V,12.0
V12,80.0,71.0,47.0,65.0,40.0,47,3939.0,square2,r,0.6328,1,V,12.0
V12,81.0,66.0,49.0,57.0,40.0,49,3988.0,square2,r,0.1622,1,V,12.0
V12,82.0,71.0,53.0,57.0,48.0,53,4041.0,square2,r,0.0676,1,V,12.0
V12,83.0,70.0,50.0,56.0,49.0,50,4091.0,square2,r,0.0063,1,V,12.0
V12,84.0,69.0,45.0,64.0,43.0,45,4136.0,square2,r,0.1615,1,V,12.0
V12,85.0,64.0,48.0,54.0,42.0,48,4184.0,square2,r,0.1523,1,V,12.0
V12,86.0,71.0,49.0,63.0,44.0,49,4233.0,square2,r,0.1433,1,V,12.0
V12,87.0,72.0,52.0,55.0,42.0,52,4285.0,square2,r,0.0007,1,V,12.0
V12,88.0,64.0,48.0,59.0,44.0,48,4333.0,square2,r,0.0183,1,V,12.0
V12,89.0,69.0,48.0,62.0,45.0,48,4381.0,square2,r,0.0005,1,V,12.0
V12,90.0,68.0,56.0,60.0,42.0,56,4437.0,square2,r,0.0078,1,V,12.0
V12,91.0,69.0,52.0,62.0,45.0,52,4489.0,square2,r,0.1698,1,V,12.0
V12,92.0,65.0,50.0,64.0,47.0,50,4539.0,square2,r,0.3284,1,V,12.0
V12,93.0,68.0,51.0,62.0,43.0,51,4590.0,square2,r,0.1612,1,V,12.0
V12,94.0,68.0,52.0,60.0,38.0,52,4642.0,square2,r,0.1719,1,V,12.0
V12,95.0,71.0,52.0,58.0,47.0,52,4694.0,square2,r,0.0985,1,V,12.0
V12,96.0,66.0,49.0,59.0,44.0,49,4743.0,square2,r,0.1638,1,V,12.0
V12,97.0,74.0,47.0,54.0,47.0,47,4790.0,square2,r,0.1024,1,V,12.0
V12,98.0,68.0,43.0,64.0,41.0,43,4833.0,square2,r,0.2766,1,V,12.0
V12,99.0,71.0,53.0,62.0,44.0,53,4886.0,square2,r,0.0005,1,V,12.0
V1,0.0,46.0,61.0,52.0,71.0,52,52.0,square3,r,1.6574,2,V,1.0
V1,1.0,45.0,63.0,54.0,78.0,54,106.0,square3,r,0.2076,2,V,1.0
V1,2.0,51.0,58.0,59.0,77.0,59,165.0,square3,r,0.0516,2,V,1.0
V1,3.0,53.0,65.0,56.0,75.0,56,221.0,square3,r,0.0865,2,V,1.0
V1,4.0,49.0,68.0,53.0,72.0,53,274.0,square3,r,0.0276,2,V,1.0
V1,5.0,47.0,70.0,59.0,76.0,59,333.0,square3,r,0.0442,2,V,1.0
V1,6.0,55.0,63.0,54.0,76.0,54,387.0,square3,r,0.0902,2,V,1.0
V1,7.0,47.0,67.0,55.0,74.0,55,442.0,square3,r,0.0004,2,V,1.0
V1,8.0,47.0,65.0,46.0,76.0,46,488.0,square3,r,0.2635,2,V,1.0
V1,9.0,46.0,68.0,59.0,78.0,59,547.0,square3,r,0.028,2,V,1.0
V1,10.0,58.0,67.0,58.0,79.0,58,605.0,square3,r,0.1855,2,V,1.0
V1,11.0,44.0,61.0,54.0,72.0,54,659.0,square3,r,0.0343,2,V,1.0
V1,12.0,44.0,65.0,56.0,75.0,56,715.0,square3,r,0.0098,2,V,1.0
V1,13.0,47.0,63.0,53.0,73.0,53,768.0,square3,r,0.0003,2,V,1.0
V1,14.0,49.0,66.0,56.0,75.0,56,824.0,square3,r,0.0205,2,V,1.0
V1,15.0,49.0,66.0,52.0,79.0,52,876.0,square3,r,0.0184,2,V,1.0
V1,16.0,51.0,61.0,48.0,72.0,48,924.0,square3,r,1.6862,2,V,1.0
V1,17.0,46.0,61.0,59.0,71.0,59,983.0,square3,r,0.0224,2,V,1.0
V1,18.0,45.0,61.0,53.0,72.0,53,1036.0,square3,r,0.0144,2,V,1.0
V1,19.0,49.0,63.0,54.0,76.0,54,1090.0,square3,r,0.2098,2,V,1.0
V1,20.0,46.0,66.0,52.0,72.0,52,1142.0,square3,r,0.0112,2,V,1.0
V1,21.0,50.0,65.0,51.0,73.0,51,1193.0,square3,r,0.0116,2,V,1.0
V1,22.0,56.0,62.0,56.0,77.0,56,1249.0,square3,r,0.0778,2,V,1.0
V1,23.0,45.0,67.0,54.0,83.0,54,1303.0,square3,r,0.011,2,V,1.0
V1,24.0,46.0,69.0,57.0,71.0,57,1360.0,square3,r,0.0099,2,V,1.0
V1,25.0,41.0,65.0,55.0,76.0,55,1415.0,square3,r,0.1841,2,V,1.0
V1,26.0,51.0,60.0,55.0,74.0,55,1470.0,square3,r,0.2248,2,V,1.0
V1,27.0,52.0,63.0,56.0,73.0,56,1526.0,square3,r,0.0285,2,V,1.0
V1,28.0,50.0,68.0,50.0,76.0,50,1576.0,square3,r,0.0576,2,V,1.0
V1,29.0,51.0,60.0,54.0,74.0,54,1630.0,square3,r,0.0005,2,V,1.0
V1,30.0,35.0,67.0,57.0,40.0,57,1687.0,square3,r,0.07,2,V,1.0
V1,31.0,38.0,60.0,52.0,35.0,52,1739.0,square3,r,0.058,2,V,1.0
V1,32.0,37.0,67.0,52.0,41.0,52,1791.0,square3,r,0.2047,2,V,1.0
V1,33.0,37.0,62.0,53.0,42.0,53,1844.0,square3,r,0.0649,2,V,1.0
V1,34.0,35.0,58.0,54.0,43.0,54,1898.0,square3,r,0.1182,2,V,1.0
V1,35.0,40.0,60.0,50.0,44.0,50,1948.0,square3,r,0.0773,2,V,1.0
V1,36.0,39.0,66.0,50.0,39.0,50,1998.0,square3,r,0.1126,2,V,1.0
V1,37.0,32.0,59.0,54.0,38.0,54,2052.0,square3,r,0.0386,2,V,1.0
V1,38.0,32.0,64.0,50.0,39.0,50,2102.0,square3,r,0.1185,2,V,1.0
V1,39.0,37.0,60.0,45.0,40.0,45,2147.0,square3,r,0.2498,2,V,1.0
V1,40.0,35.0,61.0,54.0,43.0,54,2201.0,square3,r,0.1677,2,V,1.0
V1,41.0,33.0,62.0,49.0,42.0,49,2250.0,square3,r,0.0489,2,V,1.0
V1,42.0,31.0,70.0,52.0,42.0,52,2302.0,square3,r,0.0718,2,V,1.0
V1,43.0,37.0,59.0,48.0,41.0,48,2350.0,square3,r,0.0113,2,V,1.0
V1,44.0,39.0,63.0,53.0,44.0,53,2403.0,square3,r,0.1397,2,V,1.0
V1,45.0,37.0,62.0,48.0,41.0,48,2451.0,square3,r,0.143,2,V,1.0
V1,46.0,34.0,65.0,52.0,39.0,52,2503.0,square3,r,0.1113,2,V,1.0
V1,47.0,42.0,59.0,52.0,43.0,52,2555.0,square3,r,0.1548,2,V,1.0
V1,48.0,39.0,62.0,50.0,38.0,50,2605.0,square3,r,0.1256,2,V,1.0
V1,49.0,33.0,63.0,49.0,40.0,49,2654.0,square3,r,0.4522,2,V,1.0
V1,50.0,38.0,66.0,54.0,37.0,54,2708.0,square3,r,0.1128,2,V,1.0
V1,51.0,33.0,66.0,50.0,37.0,50,2758.0,square3,r,0.0227,2,V,1.0
V1,52.0,41.0,65.0,55.0,44.0,55,2813.0,square3,r,0.2757,2,V,1.0
V1,53.0,75.0,50.0,46.0,60.0,46,2859.0,square3,r,0.0237,2,V,1.0
V1,54.0,74.0,53.0,45.0,61.0,45,2904.0,square3,r,0.0736,2,V,1.0
V1,55.0,74.0,54.0,43.0,65.0,43,2947.0,square3,r,0.1018,2,V,1.0
V1,56.0,73.0,54.0,44.0,56.0,44,2991.0,square3,r,0.0518,2,V,1.0
V1,57.0,67.0,58.0,52.0,63.0,52,3043.0,square3,r,0.1017,2,V,1.0
V1,58.0,72.0,51.0,43.0,62.0,43,3086.0,square3,r,0.0448,2,V,1.0
V1,59.0,68.0,47.0,49.0,56.0,49,3135.0,square3,r,0.0601,2,V,1.0
V1,60.0,72.0,55.0,46.0,65.0,46,3181.0,square3,r,0.4387,2,V,1.0
V1,61.0,76.0,50.0,46.0,62.0,46,3227.0,square3,r,0.1311,2,V,1.0
V1,62.0,77.0,58.0,46.0,66.0,58,3285.0,square2,f,0.0712,1,V,1.0
V1,63.0,72.0,53.0,48.0,66.0,53,3338.0,square2,f,0.105,1,V,1.0
V1,64.0,70.0,49.0,49.0,60.0,49,3387.0,square2,f,0.1267,1,V,1.0
V1,65.0,68.0,49.0,46.0,66.0,49,3436.0,square2,f,0.1528,1,V,1.0
V1,66.0,77.0,52.0,41.0,64.0,52,3488.0,square2,f,0.0901,1,V,1.0
V1,67.0,74.0,56.0,42.0,69.0,56,3544.0,square2,f,0.0096,1,V,1.0
V1,68.0,77.0,50.0,46.0,68.0,50,3594.0,square2,f,0.1049,1,V,1.0
V1,69.0,76.0,48.0,45.0,63.0,48,3642.0,square2,f,0.0162,1,V,1.0
V1,70.0,71.0,53.0,50.0,65.0,50,3692.0,square3,r,0.0693,2,V,1.0
V1,71.0,70.0,56.0,44.0,59.0,56,3748.0,square2,f,0.1443,1,V,1.0
V1,72.0,74.0,54.0,55.0,61.0,54,3802.0,square2,f,0.1312,1,V,1.0
V1,73.0,73.0,53.0,47.0,61.0,53,3855.0,square2,f,0.1103,1,V,1.0
V1,74.0,71.0,53.0,51.0,65.0,53,3908.0,square2,f,0.087,1,V,1.0
V1,75.0,72.0,51.0,48.0,64.0,64,3972.0,square4,j,0.0667,3,V,1.0
V1,76.0,72.0,53.0,49.0,62.0,62,4034.0,square4,j,0.1584,3,V,1.0
V1,77.0,62.0,76.0,64.0,86.0,86,4120.0,square4,j,0.0341,3,V,1.0
V1,78.0,61.0,74.0,63.0,87.0,87,4207.0,square4,j,0.0179,3,V,1.0
V1,79.0,56.0,78.0,67.0,89.0,89,4296.0,square4,j,0.108,3,V,1.0
V1,80.0,59.0,75.0,63.0,84.0,84,4380.0,square4,j,0.1669,3,V,1.0
V1,81.0,63.0,74.0,68.0,82.0,82,4462.0,square4,j,0.0599,3,V,1.0
V1,82.0,59.0,75.0,67.0,80.0,59,4521.0,square1,i,0.0974,0,V,1.0
V1,83.0,58.0,77.0,63.0,82.0,82,4603.0,square4,j,0.1533,3,V,1.0
V1,84.0,57.0,76.0,64.0,87.0,87,4690.0,square4,j,0.0557,3,V,1.0
V1,85.0,61.0,73.0,66.0,83.0,83,4773.0,square4,j,0.1742,3,V,1.0
V1,86.0,60.0,71.0,66.0,85.0,85,4858.0,square4,j,0.1057,3,V,1.0
V1,87.0,61.0,80.0,73.0,84.0,84,4942.0,square4,j,0.179,3,V,1.0
V1,88.0,67.0,77.0,67.0,85.0,85,5027.0,square4,j,0.1612,3,V,1.0
V1,89.0,60.0,79.0,63.0,86.0,86,5113.0,square4,j,0.1595,3,V,1.0
V1,90.0,60.0,74.0,66.0,88.0,88,5201.0,square4,j,0.0544,3,V,1.0
V1,91.0,57.0,81.0,61.0,79.0,79,5280.0,square4,j,0.432,3,V,1.0
V1,92.0,61.0,78.0,61.0,84.0,84,5364.0,square4,j,0.1707,3,V,1.0
V1,93.0,64.0,72.0,69.0,83.0,83,5447.0,square4,j,0.0846,3,V,1.0
V1,94.0,64.0,73.0,68.0,83.0,83,5530.0,square4,j,0.0572,3,V,1.0
V1,95.0,61.0,69.0,68.0,87.0,87,5617.0,square4,j,0.1481,3,V,1.0
V1,96.0,55.0,77.0,65.0,88.0,88,5705.0,square4,j,0.0935,3,V,1.0
V1,97.0,61.0,75.0,63.0,82.0,82,5787.0,square4,j,0.1379,3,V,1.0
V1,98.0,59.0,71.0,66.0,82.0,82,5869.0,square4,j,0.2079,3,V,1.0
V1,99.0,61.0,69.0,67.0,84.0,84,5953.0,square4,j,0.4076,3,V,1.0
NS1,0.0,60.0,65.0,21.0,53.0,99999,0.0,invalid,,,-1,N,1.0
NS1,1.0,56.0,62.0,31.0,51.0,99999,0.0,invalid,,,-1,N,1.0
NS1,2.0,58.0,62.0,24.0,57.0,62,62.0,square2,r,0.2975,1,N,1.0
NS1,3.0,56.0,58.0,33.0,58.0,33,95.0,square3,j,0.3115,2,N,1.0
NS1,4.0,60.0,58.0,32.0,58.0,60,155.0,square1,f,0.3261,0,N,1.0
NS1,5.0,56.0,59.0,31.0,54.0,56,211.0,square1,f,0.1175,0,N,1.0
NS1,6.0,58.0,57.0,37.0,56.0,58,269.0,square1,f,0.0005,0,N,1.0
NS1,7.0,57.0,53.0,37.0,57.0,57,326.0,square1,f,0.0402,0,N,1.0
NS1,8.0,58.0,57.0,37.0,54.0,58,384.0,square1,f,0.0004,0,N,1.0
NS1,9.0,53.0,50.0,36.0,55.0,53,437.0,square1,f,0.0598,0,N,1.0
NS1,10.0,58.0,47.0,32.0,53.0,58,495.0,square1,f,0.8483,0,N,1.0
NS1,11.0,55.0,44.0,34.0,53.0,53,548.0,square4,i,0.0887,3,N,1.0
NS1,12.0,56.0,44.0,30.0,45.0,45,593.0,square4,i,0.109,3,N,1.0
NS1,13.0,60.0,47.0,34.0,48.0,48,641.0,square4,i,0.0923,3,N,1.0
NS1,14.0,54.0,48.0,37.0,54.0,54,695.0,square4,i,0.11,3,N,1.0
NS1,15.0,53.0,44.0,35.0,51.0,51,746.0,square4,i,0.1865,3,N,1.0
NS1,16.0,50.0,50.0,35.0,43.0,43,789.0,square4,i,0.0443,3,N,1.0
NS1,17.0,53.0,46.0,35.0,44.0,44,833.0,square4,i,0.0239,3,N,1.0
NS1,18.0,54.0,51.0,42.0,48.0,48,881.0,square4,i,0.0905,3,N,1.0
NS1,19.0,62.0,51.0,44.0,53.0,53,934.0,square4,i,0.0003,3,N,1.0
NS1,20.0,63.0,47.0,42.0,47.0,47,981.0,square4,i,0.0378,3,N,1.0
NS1,21.0,67.0,51.0,41.0,46.0,46,1027.0,square4,i,0.0601,3,N,1.0
NS1,22.0,75.0,44.0,45.0,43.0,43,1070.0,square4,i,0.0533,3,N,1.0
NS1,23.0,64.0,42.0,41.0,47.0,47,1117.0,square4,i,0.1402,3,N,1.0
NS1,24.0,68.0,41.0,39.0,49.0,49,1166.0,square4,i,0.1269,3,N,1.0
NS1,25.0,71.0,43.0,33.0,42.0,42,1208.0,square4,i,0.0477,3,N,1.0
NS1,26.0,70.0,41.0,26.0,45.0,45,1253.0,square4,i,0.0518,3,N,1.0
NS1,27.0,72.0,42.0,34.0,48.0,48,1301.0,square4,i,0.069,3,N,1.0
NS1,28.0,71.0,41.0,33.0,45.0,33,1334.0,square3,j,0.2258,2,N,1.0
NS1,29.0,77.0,42.0,31.0,48.0,31,1365.0,square3,j,0.1075,2,N,1.0
NS1,30.0,73.0,41.0,33.0,51.0,41,1406.0,square2,r,0.1379,1,N,1.0
NS1,31.0,71.0,44.0,35.0,48.0,71,1477.0,square1,f,0.1471,0,N,1.0
NS1,32.0,81.0,47.0,33.0,50.0,81,1558.0,square1,f,0.0004,0,N,1.0
NS1,33.0,75.0,50.0,27.0,42.0,75,1633.0,square1,f,0.124,0,N,1.0
NS1,34.0,71.0,49.0,27.0,44.0,71,1704.0,square1,f,0.1017,0,N,1.0
NS1,35.0,69.0,47.0,23.0,47.0,69,1773.0,square1,f,0.1156,0,N,1.0
NS1,36.0,71.0,50.0,32.0,45.0,71,1844.0,square1,f,0.0959,0,N,1.0
NS1,37.0,66.0,48.0,33.0,52.0,66,1910.0,square1,f,0.1063,0,N,1.0
NS1,38.0,64.0,50.0,34.0,51.0,64,1974.0,square1,f,0.133,0,N,1.0
NS1,39.0,65.0,49.0,25.0,47.0,65,2039.0,square1,f,0.1879,0,N,1.0
NS1,40.0,66.0,46.0,23.0,50.0,66,2105.0,square1,f,0.0809,0,N,1.0
NS1,41.0,68.0,45.0,22.0,50.0,68,2173.0,square1,f,0.0102,0,N,1.0
NS1,42.0,74.0,41.0,28.0,50.0,74,2247.0,square1,f,0.0964,0,N,1.0
NS1,43.0,69.0,42.0,27.0,52.0,69,2316.0,square1,f,0.0986,0,N,1.0
NS1,44.0,71.0,38.0,32.0,49.0,71,2387.0,square1,f,0.0653,0,N,1.0
NS1,45.0,68.0,38.0,30.0,55.0,68,2455.0,square1,f,0.037,0,N,1.0
NS1,46.0,66.0,39.0,30.0,56.0,66,2521.0,square1,f,0.1365,0,N,1.0
NS1,47.0,62.0,35.0,31.0,50.0,62,2583.0,square1,f,0.0048,0,N,1.0
NS1,48.0,68.0,31.0,32.0,49.0,68,2651.0,square1,f,0.0728,0,N,1.0
NS1,49.0,66.0,33.0,35.0,46.0,66,2717.0,square1,f,0.171,0,N,1.0
NS1,50.0,64.0,30.0,32.0,46.0,64,2781.0,square1,f,0.1786,0,N,1.0
NS1,51.0,66.0,35.0,39.0,43.0,66,2847.0,square1,f,0.1276,0,N,1.0
NS1,52.0,67.0,33.0,37.0,49.0,67,2914.0,square1,f,0.1,0,N,1.0
NS1,53.0,70.0,32.0,35.0,47.0,70,2984.0,square1,f,0.0772,0,N,1.0
NS1,54.0,62.0,40.0,28.0,43.0,62,3046.0,square1,f,0.1307,0,N,1.0
NS1,55.0,66.0,39.0,26.0,43.0,66,3112.0,square1,f,0.1443,0,N,1.0
NS1,56.0,64.0,38.0,26.0,44.0,64,3176.0,square1,f,0.1074,0,N,1.0
NS1,57.0,63.0,41.0,24.0,48.0,63,3239.0,square1,f,0.1479,0,N,1.0
NS1,58.0,67.0,49.0,24.0,48.0,67,3306.0,square1,f,0.0027,0,N,1.0
NS1,59.0,57.0,51.0,27.0,43.0,51,3357.0,square2,r,0.0857,1,N,1.0
NS1,60.0,56.0,51.0,31.0,42.0,56,3413.0,square1,f,0.0006,0,N,1.0
NS1,61.0,55.0,50.0,25.0,49.0,55,3468.0,square1,f,0.1197,0,N,1.0
NS1,62.0,55.0,51.0,27.0,50.0,55,3523.0,square1,f,0.1227,0,N,1.0
NS1,63.0,53.0,51.0,27.0,50.0,53,3576.0,square1,f,0.9469,0,N,1.0
NS1,64.0,53.0,56.0,27.0,50.0,53,3629.0,square1,f,0.042,0,N,1.0
NS1,65.0,49.0,56.0,26.0,49.0,49,3678.0,square1,f,0.0023,0,N,1.0
NS1,66.0,47.0,61.0,29.0,50.0,47,3725.0,square1,f,0.0788,0,N,1.0
NS1,67.0,47.0,56.0,27.0,50.0,27,3752.0,square3,j,0.1344,2,N,1.0
NS1,68.0,47.0,64.0,29.0,48.0,47,3799.0,square1,f,0.0377,0,N,1.0
NS1,69.0,54.0,67.0,24.0,53.0,53,3852.0,square4,i,0.2967,3,N,1.0
NS1,70.0,44.0,70.0,21.0,48.0,48,3900.0,square4,i,0.1052,3,N,1.0
NS1,71.0,45.0,67.0,26.0,52.0,52,3952.0,square4,i,0.0349,3,N,1.0
NS1,72.0,44.0,64.0,22.0,49.0,64,4016.0,square2,r,0.135,1,N,1.0
NS1,73.0,43.0,60.0,23.0,51.0,60,4076.0,square2,r,0.0931,1,N,1.0
NS1,74.0,47.0,59.0,26.0,57.0,59,4135.0,square2,r,0.1069,1,N,1.0
NS1,75.0,44.0,56.0,27.0,51.0,56,4191.0,square2,r,0.1675,1,N,1.0
NS1,76.0,34.0,55.0,21.0,52.0,55,4246.0,square2,r,0.0419,1,N,1.0
NS1,77.0,39.0,64.0,17.0,55.0,64,4310.0,square2,r,0.0728,1,N,1.0
NS1,78.0,38.0,64.0,25.0,52.0,64,4374.0,square2,r,0.061,1,N,1.0
NS1,79.0,40.0,65.0,24.0,54.0,65,4439.0,square2,r,0.1729,1,N,1.0
NS1,80.0,44.0,66.0,21.0,53.0,66,4505.0,square2,r,0.0102,1,N,1.0
NS1,81.0,50.0,60.0,27.0,54.0,60,4565.0,square2,r,0.1464,1,N,1.0
NS1,82.0,43.0,62.0,20.0,57.0,62,4627.0,square2,r,0.1094,1,N,1.0
NS1,83.0,44.0,55.0,24.0,59.0,55,4682.0,square2,r,0.1141,1,N,1.0
NS1,84.0,41.0,51.0,28.0,61.0,51,4733.0,square2,r,0.1271,1,N,1.0
NS1,85.0,49.0,49.0,29.0,70.0,49,4782.0,square2,r,0.0004,1,N,1.0
NS1,86.0,47.0,44.0,26.0,66.0,44,4826.0,square2,r,0.3283,1,N,1.0
NS1,87.0,48.0,48.0,23.0,68.0,48,4874.0,square2,r,0.1724,1,N,1.0
NS1,88.0,46.0,51.0,20.0,70.0,51,4925.0,square2,r,0.0503,1,N,1.0
NS1,89.0,45.0,50.0,17.0,75.0,50,4975.0,square2,r,0.1051,1,N,1.0
NS1,90.0,50.0,48.0,18.0,74.0,48,5023.0,square2,r,0.0807,1,N,1.0
NS1,91.0,46.0,53.0,17.0,67.0,67,5090.0,square4,i,0.806,3,N,1.0
NS1,92.0,38.0,56.0,22.0,65.0,65,5155.0,square4,i,0.0005,3,N,1.0
NS1,93.0,38.0,53.0,22.0,66.0,66,5221.0,square4,i,0.1175,3,N,1.0
NS1,94.0,42.0,49.0,24.0,72.0,72,5293.0,square4,i,0.0004,3,N,1.0
NS1,95.0,44.0,48.0,25.0,70.0,70,5363.0,square4,i,0.0005,3,N,1.0
NS1,96.0,35.0,50.0,21.0,67.0,67,5430.0,square4,i,0.1344,3,N,1.0
NS1,97.0,43.0,55.0,16.0,72.0,72,5502.0,square4,i,0.1824,3,N,1.0
NS1,98.0,46.0,50.0,21.0,73.0,73,5575.0,square4,i,0.0699,3,N,1.0
NS1,99.0,43.0,46.0,27.0,71.0,71,5646.0,square4,i,1.6905,3,N,1.0
NS4,0.0,55.0,53.0,59.0,44.0,55,55.0,square1,j,1.3308,0,N,4.0
NS4,1.0,49.0,56.0,64.0,41.0,49,104.0,square1,j,0.1677,0,N,4.0
NS4,2.0,50.0,54.0,71.0,48.0,50,154.0,square1,j,0.0479,0,N,4.0
NS4,3.0,53.0,58.0,67.0,50.0,53,207.0,square1,j,0.0741,0,N,4.0
NS4,4.0,49.0,51.0,70.0,55.0,49,256.0,square1,j,0.0103,0,N,4.0
NS4,5.0,55.0,59.0,73.0,58.0,58,314.0,square4,r,0.2115,3,N,4.0
NS4,6.0,56.0,54.0,71.0,57.0,57,371.0,square4,r,0.0199,3,N,4.0
NS4,7.0,60.0,54.0,75.0,52.0,75,446.0,square3,i,0.0797,2,N,4.0
NS4,8.0,58.0,53.0,74.0,52.0,74,520.0,square3,i,0.1273,2,N,4.0
NS4,9.0,46.0,48.0,78.0,51.0,48,568.0,square2,f,0.1362,1,N,4.0
NS4,10.0,55.0,48.0,78.0,51.0,78,646.0,square3,i,0.0619,2,N,4.0
NS4,11.0,55.0,44.0,79.0,49.0,79,725.0,square3,i,0.2604,2,N,4.0
NS4,12.0,50.0,40.0,79.0,50.0,79,804.0,square3,i,0.1291,2,N,4.0
NS4,13.0,45.0,39.0,79.0,53.0,79,883.0,square3,i,0.1429,2,N,4.0
NS4,14.0,44.0,38.0,77.0,56.0,77,960.0,square3,i,0.1511,2,N,4.0
NS4,15.0,45.0,32.0,68.0,52.0,68,1028.0,square3,i,0.0508,2,N,4.0
NS4,16.0,49.0,32.0,74.0,53.0,74,1102.0,square3,i,0.0439,2,N,4.0
NS4,17.0,45.0,32.0,69.0,51.0,69,1171.0,square3,i,0.0613,2,N,4.0
NS4,18.0,50.0,34.0,69.0,47.0,69,1240.0,square3,i,0.0116,2,N,4.0
NS4,19.0,50.0,36.0,65.0,53.0,65,1305.0,square3,i,0.0184,2,N,4.0
NS4,20.0,45.0,36.0,62.0,53.0,62,1367.0,square3,i,0.0443,2,N,4.0
NS4,21.0,49.0,35.0,62.0,55.0,62,1429.0,square3,i,0.0567,2,N,4.0
NS4,22.0,53.0,32.0,61.0,60.0,61,1490.0,square3,i,0.2187,2,N,4.0
NS4,23.0,52.0,33.0,58.0,54.0,58,1548.0,square3,i,0.1595,2,N,4.0
NS4,24.0,48.0,32.0,52.0,60.0,52,1600.0,square3,i,0.0591,2,N,4.0
NS4,25.0,47.0,30.0,53.0,57.0,53,1653.0,square3,i,0.0982,2,N,4.0
NS4,26.0,50.0,30.0,60.0,55.0,60,1713.0,square3,i,0.1131,2,N,4.0
NS4,27.0,50.0,28.0,62.0,47.0,62,1775.0,square3,i,0.1183,2,N,4.0
NS4,28.0,54.0,28.0,58.0,49.0,58,1833.0,square3,i,0.0443,2,N,4.0
NS4,29.0,44.0,29.0,50.0,49.0,50,1883.0,square3,i,0.0942,2,N,4.0
NS4,30.0,43.0,26.0,55.0,57.0,55,1938.0,square3,i,0.1288,2,N,4.0
NS4,31.0,43.0,25.0,60.0,54.0,60,1998.0,square3,i,0.1713,2,N,4.0
NS4,32.0,34.0,27.0,58.0,56.0,58,2056.0,square3,i,0.152,2,N,4.0
NS4,33.0,34.0,20.0,60.0,62.0,60,2116.0,square3,i,0.1796,2,N,4.0
NS4,34.0,38.0,28.0,58.0,57.0,58,2174.0,square3,i,0.0365,2,N,4.0
NS4,35.0,40.0,24.0,63.0,59.0,63,2237.0,square3,i,0.0007,2,N,4.0
NS4,36.0,36.0,30.0,56.0,63.0,56,2293.0,square3,i,0.1226,2,N,4.0
NS4,37.0,40.0,29.0,54.0,63.0,54,2347.0,square3,i,0.1513,2,N,4.0
NS4,38.0,40.0,33.0,53.0,69.0,53,2400.0,square3,i,0.112,2,N,4.0
NS4,39.0,36.0,30.0,57.0,67.0,57,2457.0,square3,i,0.0724,2,N,4.0
NS4,40.0,33.0,33.0,58.0,68.0,58,2515.0,square3,i,0.1099,2,N,4.0
NS4,41.0,34.0,28.0,58.0,72.0,58,2573.0,square3,i,0.119,2,N,4.0
NS4,42.0,35.0,30.0,60.0,70.0,60,2633.0,square3,i,0.1673,2,N,4.0
NS4,43.0,35.0,34.0,57.0,63.0,57,2690.0,square3,i,0.1616,2,N,4.0
NS4,44.0,30.0,32.0,59.0,69.0,59,2749.0,square3,i,0.1178,2,N,4.0
NS4,45.0,29.0,31.0,60.0,66.0,60,2809.0,square3,i,0.1227,2,N,4.0
NS4,46.0,35.0,34.0,66.0,66.0,66,2875.0,square3,i,0.0755,2,N,4.0
NS4,47.0,35.0,28.0,63.0,62.0,63,2938.0,square3,i,0.1019,2,N,4.0
NS4,48.0,37.0,37.0,61.0,55.0,61,2999.0,square3,i,0.165,2,N,4.0
NS4,49.0,40.0,34.0,59.0,54.0,59,3058.0,square3,i,0.0005,2,N,4.0
NS4,50.0,39.0,38.0,68.0,51.0,68,3126.0,square3,i,0.3704,2,N,4.0
NS4,51.0,46.0,28.0,69.0,48.0,48,3174.0,square4,r,0.1728,3,N,4.0
NS4,52.0,40.0,34.0,62.0,49.0,62,3236.0,square3,i,0.1315,2,N,4.0
NS4,53.0,39.0,34.0,63.0,48.0,34,3270.0,square2,f,0.0774,1,N,4.0
NS4,54.0,44.0,31.0,58.0,47.0,44,3314.0,square1,j,0.2827,0,N,4.0
NS4,55.0,42.0,30.0,68.0,46.0,68,3382.0,square3,i,0.1431,2,N,4.0
NS4,56.0,36.0,25.0,69.0,44.0,69,3451.0,square3,i,0.1707,2,N,4.0
NS4,57.0,35.0,29.0,71.0,46.0,71,3522.0,square3,i,0.1067,2,N,4.0
NS4,58.0,43.0,28.0,68.0,47.0,68,3590.0,square3,i,0.1035,2,N,4.0
NS4,59.0,43.0,27.0,67.0,43.0,67,3657.0,square3,i,0.0766,2,N,4.0
NS4,60.0,40.0,25.0,72.0,46.0,72,3729.0,square3,i,0.0587,2,N,4.0
NS4,61.0,39.0,32.0,63.0,43.0,63,3792.0,square3,i,0.2443,2,N,4.0
NS4,62.0,39.0,29.0,61.0,39.0,61,3853.0,square3,i,0.1004,2,N,4.0
NS4,63.0,41.0,28.0,59.0,40.0,59,3912.0,square3,i,0.0178,2,N,4.0
NS4,64.0,41.0,31.0,57.0,51.0,57,3969.0,square3,i,0.1066,2,N,4.0
NS4,65.0,46.0,36.0,59.0,58.0,59,4028.0,square3,i,0.0005,2,N,4.0
NS4,66.0,45.0,36.0,53.0,46.0,53,4081.0,square3,i,0.0551,2,N,4.0
NS4,67.0,40.0,34.0,49.0,46.0,49,4130.0,square3,i,0.0002,2,N,4.0
NS4,68.0,43.0,37.0,48.0,48.0,48,4178.0,square3,i,0.1528,2,N,4.0
NS4,69.0,42.0,36.0,44.0,56.0,44,4222.0,square3,i,0.0522,2,N,4.0
NS4,70.0,40.0,38.0,47.0,58.0,47,4269.0,square3,i,0.1531,2,N,4.0
NS4,71.0,36.0,34.0,42.0,63.0,36,4305.0,square1,j,0.1213,0,N,4.0
NS4,72.0,38.0,36.0,36.0,66.0,36,4341.0,square2,f,0.3602,1,N,4.0
NS4,73.0,36.0,40.0,40.0,66.0,66,4407.0,square4,r,0.0253,3,N,4.0
NS4,74.0,31.0,38.0,46.0,67.0,67,4474.0,square4,r,0.2881,3,N,4.0
NS4,75.0,40.0,33.0,42.0,64.0,64,4538.0,square4,r,0.0542,3,N,4.0
NS4,76.0,38.0,35.0,42.0,64.0,64,4602.0,square4,r,0.2305,3,N,4.0
NS4,77.0,40.0,35.0,39.0,66.0,66,4668.0,square4,r,0.1157,3,N,4.0
NS4,78.0,40.0,33.0,38.0,68.0,68,4736.0,square4,r,0.1603,3,N,4.0
NS4,79.0,40.0,38.0,31.0,70.0,70,4806.0,square4,r,0.0635,3,N,4.0
NS4,80.0,37.0,35.0,33.0,73.0,73,4879.0,square4,r,0.0521,3,N,4.0
NS4,81.0,34.0,35.0,30.0,70.0,70,4949.0,square4,r,0.0412,3,N,4.0
NS4,82.0,35.0,37.0,31.0,66.0,66,5015.0,square4,r,0.0005,3,N,4.0
NS4,83.0,42.0,32.0,28.0,67.0,32,5047.0,square2,f,0.296,1,N,4.0
NS4,84.0,38.0,35.0,30.0,68.0,68,5115.0,square4,r,0.1056,3,N,4.0
NS4,85.0,43.0,35.0,32.0,64.0,64,5179.0,square4,r,0.0005,3,N,4.0
NS4,86.0,49.0,35.0,32.0,70.0,70,5249.0,square4,r,0.1374,3,N,4.0
NS4,87.0,48.0,34.0,32.0,69.0,69,5318.0,square4,r,0.0591,3,N,4.0
NS4,88.0,50.0,35.0,30.0,64.0,64,5382.0,square4,r,0.0057,3,N,4.0
NS4,89.0,48.0,34.0,32.0,68.0,68,5450.0,square4,r,0.1038,3,N,4.0
NS4,90.0,53.0,29.0,27.0,68.0,68,5518.0,square4,r,0.0711,3,N,4.0
NS4,91.0,54.0,27.0,34.0,68.0,68,5586.0,square4,r,0.0471,3,N,4.0
NS4,92.0,52.0,20.0,35.0,69.0,69,5655.0,square4,r,0.1361,3,N,4.0
NS4,93.0,42.0,15.0,33.0,68.0,68,5723.0,square4,r,0.1191,3,N,4.0
NS4,94.0,40.0,24.0,37.0,72.0,72,5795.0,square4,r,0.0005,3,N,4.0
NS4,95.0,43.0,25.0,43.0,69.0,69,5864.0,square4,r,0.0215,3,N,4.0
NS4,96.0,41.0,29.0,43.0,74.0,74,5938.0,square4,r,0.2924,3,N,4.0
NS4,97.0,46.0,32.0,42.0,78.0,78,6016.0,square4,r,0.1726,3,N,4.0
NS4,98.0,48.0,26.0,46.0,75.0,75,6091.0,square4,r,0.0005,3,N,4.0
NS4,99.0,46.0,27.0,45.0,71.0,71,6162.0,square4,r,0.1279,3,N,4.0
NS12,0.0,80.0,24.0,40.0,79.0,79,79.0,square4,i,0.9107,3,N,12.0
NS12,1.0,78.0,28.0,44.0,78.0,78,157.0,square4,i,0.0173,3,N,12.0
NS12,2.0,77.0,28.0,37.0,82.0,82,239.0,square4,i,0.1435,3,N,12.0
NS12,3.0,76.0,33.0,39.0,82.0,82,321.0,square4,i,0.2845,3,N,12.0
NS12,4.0,79.0,37.0,34.0,78.0,78,399.0,square4,i,0.1443,3,N,12.0
NS12,5.0,83.0,33.0,28.0,81.0,81,480.0,square4,i,0.0948,3,N,12.0
NS12,6.0,77.0,39.0,33.0,80.0,80,560.0,square4,i,0.0686,3,N,12.0
NS12,7.0,77.0,40.0,25.0,85.0,85,645.0,square4,i,0.0762,3,N,12.0
NS12,8.0,77.0,40.0,29.0,87.0,87,732.0,square4,i,0.0367,3,N,12.0
NS12,9.0,70.0,42.0,29.0,88.0,88,820.0,square4,i,0.0234,3,N,12.0
NS12,10.0,65.0,47.0,31.0,86.0,86,906.0,square4,i,0.1618,3,N,12.0
NS12,11.0,67.0,46.0,26.0,84.0,84,990.0,square4,i,0.0057,3,N,12.0
NS12,12.0,67.0,36.0,26.0,84.0,84,1074.0,square4,i,0.1948,3,N,12.0
NS12,13.0,69.0,33.0,23.0,82.0,82,1156.0,square4,i,0.0006,3,N,12.0
NS12,14.0,66.0,35.0,20.0,81.0,81,1237.0,square4,i,0.0449,3,N,12.0
NS12,15.0,66.0,30.0,23.0,78.0,78,1315.0,square4,i,0.1347,3,N,12.0
NS12,16.0,69.0,28.0,17.0,74.0,74,1389.0,square4,i,0.0009,3,N,12.0
NS12,17.0,66.0,32.0,20.0,78.0,78,1467.0,square4,i,0.1987,3,N,12.0
NS12,18.0,60.0,33.0,26.0,76.0,76,1543.0,square4,i,0.178,3,N,12.0
NS12,19.0,63.0,37.0,23.0,76.0,76,1619.0,square4,i,0.1048,3,N,12.0
NS12,20.0,59.0,36.0,24.0,78.0,59,1678.0,square1,r,0.2597,0,N,12.0
NS12,21.0,59.0,35.0,25.0,79.0,59,1737.0,square1,r,0.0115,0,N,12.0
NS12,22.0,61.0,37.0,26.0,88.0,61,1798.0,square1,r,0.1999,0,N,12.0
NS12,23.0,61.0,37.0,25.0,83.0,61,1859.0,square1,r,0.1234,0,N,12.0
NS12,24.0,61.0,39.0,26.0,85.0,61,1920.0,square1,r,0.1222,0,N,12.0
NS12,25.0,63.0,30.0,29.0,77.0,63,1983.0,square1,r,0.1023,0,N,12.0
NS12,26.0,58.0,39.0,29.0,83.0,58,2041.0,square1,r,0.0595,0,N,12.0
NS12,27.0,60.0,34.0,32.0,85.0,60,2101.0,square1,r,0.1444,0,N,12.0
NS12,28.0,63.0,32.0,35.0,77.0,63,2164.0,square1,r,0.0151,0,N,12.0
NS12,29.0,61.0,35.0,23.0,79.0,61,2225.0,square1,r,0.0092,0,N,12.0
NS12,30.0,57.0,27.0,30.0,69.0,57,2282.0,square1,r,0.0605,0,N,12.0
NS12,31.0,64.0,29.0,26.0,69.0,64,2346.0,square1,r,0.168,0,N,12.0
NS12,32.0,65.0,29.0,33.0,69.0,65,2411.0,square1,r,0.0466,0,N,12.0
NS12,33.0,68.0,29.0,33.0,73.0,68,2479.0,square1,r,0.1936,0,N,12.0
NS12,34.0,69.0,29.0,29.0,67.0,69,2548.0,square1,r,0.2265,0,N,12.0
NS12,35.0,66.0,32.0,30.0,61.0,66,2614.0,square1,r,0.204,0,N,12.0
NS12,36.0,64.0,27.0,26.0,58.0,64,2678.0,square1,r,0.0142,0,N,12.0
NS12,37.0,65.0,32.0,27.0,67.0,65,2743.0,square1,r,0.0184,0,N,12.0
NS12,38.0,63.0,32.0,30.0,64.0,63,2806.0,square1,r,0.0035,0,N,12.0
NS12,39.0,65.0,30.0,30.0,70.0,65,2871.0,square1,r,0.0004,0,N,12.0
NS12,40.0,71.0,37.0,32.0,69.0,71,2942.0,square1,r,0.1508,0,N,12.0
NS12,41.0,66.0,45.0,37.0,69.0,66,3008.0,square1,r,0.0301,0,N,12.0
NS12,42.0,75.0,42.0,35.0,65.0,75,3083.0,square1,r,0.0607,0,N,12.0
NS12,43.0,82.0,39.0,35.0,57.0,82,3165.0,square1,r,0.2073,0,N,12.0
NS12,44.0,81.0,34.0,34.0,61.0,81,3246.0,square1,r,0.1079,0,N,12.0
NS12,45.0,74.0,33.0,36.0,59.0,74,3320.0,square1,r,0.0764,0,N,12.0
NS12,46.0,77.0,32.0,40.0,57.0,77,3397.0,square1,r,0.1923,0,N,12.0
NS12,47.0,79.0,32.0,39.0,60.0,79,3476.0,square1,r,0.01,0,N,12.0
NS12,48.0,80.0,28.0,34.0,62.0,80,3556.0,square1,r,0.114,0,N,12.0
NS12,49.0,76.0,23.0,37.0,64.0,76,3632.0,square1,r,0.133,0,N,12.0
NS12,50.0,75.0,25.0,37.0,65.0,75,3707.0,square1,r,0.0431,0,N,12.0
NS12,51.0,74.0,25.0,39.0,70.0,74,3781.0,square1,r,0.1019,0,N,12.0
NS12,52.0,79.0,26.0,40.0,73.0,79,3860.0,square1,r,0.0443,0,N,12.0
NS12,53.0,75.0,25.0,33.0,69.0,75,3935.0,square1,r,0.1503,0,N,12.0
NS12,54.0,79.0,25.0,38.0,68.0,79,4014.0,square1,r,0.0003,0,N,12.0
NS12,55.0,81.0,22.0,34.0,68.0,81,4095.0,square1,r,0.025,0,N,12.0
NS12,56.0,72.0,29.0,39.0,69.0,72,4167.0,square1,r,0.1673,0,N,12.0
NS12,57.0,72.0,28.0,38.0,73.0,72,4239.0,square1,r,0.0415,0,N,12.0
NS12,58.0,69.0,25.0,32.0,71.0,69,4308.0,square1,r,0.0344,0,N,12.0
NS12,59.0,75.0,30.0,33.0,69.0,75,4383.0,square1,r,0.0313,0,N,12.0
NS12,60.0,68.0,28.0,39.0,68.0,68,4451.0,square1,r,0.0992,0,N,12.0
NS12,61.0,69.0,32.0,37.0,60.0,69,4520.0,square1,r,0.1158,0,N,12.0
NS12,62.0,63.0,37.0,39.0,55.0,63,4583.0,square1,r,0.0003,0,N,12.0
NS12,63.0,63.0,38.0,43.0,54.0,63,4646.0,square1,r,0.2603,0,N,12.0
NS12,64.0,60.0,30.0,35.0,55.0,60,4706.0,square1,r,0.1263,0,N,12.0
NS12,65.0,60.0,37.0,34.0,55.0,60,4766.0,square1,r,0.0629,0,N,12.0
NS12,66.0,61.0,40.0,35.0,51.0,61,4827.0,square1,r,0.3251,0,N,12.0
NS12,67.0,65.0,37.0,35.0,53.0,65,4892.0,square1,r,0.0276,0,N,12.0
NS12,68.0,62.0,33.0,38.0,50.0,62,4954.0,square1,r,0.0923,0,N,12.0
NS12,69.0,56.0,41.0,29.0,54.0,56,5010.0,square1,r,0.07,0,N,12.0
NS12,70.0,56.0,39.0,30.0,57.0,56,5066.0,square1,r,0.0502,0,N,12.0
NS12,71.0,61.0,40.0,33.0,64.0,61,5127.0,square1,r,0.0866,0,N,12.0
NS12,72.0,51.0,42.0,35.0,67.0,51,5178.0,square1,r,0.1343,0,N,12.0
NS12,73.0,56.0,39.0,39.0,67.0,56,5234.0,square1,r,0.1927,0,N,12.0
NS12,74.0,50.0,38.0,40.0,63.0,50,5284.0,square1,r,0.1522,0,N,12.0
NS12,75.0,52.0,37.0,41.0,67.0,52,5336.0,square1,r,0.0179,0,N,12.0
NS12,76.0,47.0,40.0,46.0,67.0,47,5383.0,square1,r,0.0005,0,N,12.0
NS12,77.0,45.0,35.0,47.0,67.0,45,5428.0,square1,r,0.1781,0,N,12.0
NS12,78.0,44.0,38.0,52.0,66.0,44,5472.0,square1,r,0.0005,0,N,12.0
NS12,79.0,41.0,38.0,52.0,64.0,41,5513.0,square1,r,0.0192,0,N,12.0
NS12,80.0,36.0,41.0,57.0,58.0,36,5549.0,square1,r,0.1558,0,N,12.0
NS12,81.0,36.0,42.0,66.0,63.0,36,5585.0,square1,r,0.0276,0,N,12.0
NS12,82.0,35.0,44.0,65.0,62.0,35,5620.0,square1,r,0.0286,0,N,12.0
NS12,83.0,37.0,42.0,70.0,65.0,37,5657.0,square1,r,0.0967,0,N,12.0
NS12,84.0,35.0,39.0,72.0,58.0,35,5692.0,square1,r,0.0042,0,N,12.0
NS12,85.0,30.0,40.0,62.0,55.0,30,5722.0,square1,r,0.0942,0,N,12.0
NS12,86.0,36.0,40.0,65.0,59.0,36,5758.0,square1,r,0.0189,0,N,12.0
NS12,87.0,31.0,41.0,67.0,57.0,31,5789.0,square1,r,0.0008,0,N,12.0
NS12,88.0,30.0,50.0,67.0,52.0,30,5819.0,square1,r,0.1092,0,N,12.0
NS12,89.0,28.0,41.0,69.0,54.0,28,5847.0,square1,r,0.1198,0,N,12.0
NS12,90.0,29.0,41.0,61.0,57.0,29,5876.0,square1,r,0.0006,0,N,12.0
NS12,91.0,30.0,36.0,59.0,54.0,30,5906.0,square1,r,0.0385,0,N,12.0
NS12,92.0,28.0,29.0,60.0,54.0,28,5934.0,square1,r,0.0212,0,N,12.0
NS12,93.0,30.0,35.0,62.0,52.0,30,5964.0,square1,r,0.0007,0,N,12.0
NS12,94.0,30.0,36.0,60.0,56.0,30,5994.0,square1,r,0.0529,0,N,12.0
NS12,95.0,29.0,33.0,63.0,60.0,29,6023.0,square1,r,0.0092,0,N,12.0
NS12,96.0,29.0,30.0,59.0,59.0,29,6052.0,square1,r,0.3719,0,N,12.0
NS12,97.0,31.0,35.0,61.0,61.0,31,6083.0,square1,r,0.1437,0,N,12.0
NS12,98.0,31.0,40.0,67.0,58.0,31,6114.0,square1,r,0.4278,0,N,12.0
NS12,99.0,33.0,37.0,65.0,67.0,33,6147.0,square1,r,0.2639,0,N,12.0
