block,Trial,square1,square2,square3,square4,currPoints,totalPoints,square,choiceKey.keys,choiceKey.rt,armNum,blockType,blockNum
prac,0.0,100.0,0.0,0.0,0.0,0,0.0,square3,,,2,p,0.0
prac,1.0,100.0,0.0,0.0,0.0,0,0.0,square4,,,3,p,0.0
prac,2.0,100.0,0.0,0.0,0.0,0,0.0,square2,,,1,p,0.0
prac,3.0,100.0,0.0,0.0,0.0,100,100.0,square1,,,0,p,0.0
prac,4.0,100.0,0.0,0.0,0.0,99999,100.0,invalid,,,-1,p,0.0
prac,5.0,100.0,0.0,0.0,0.0,99999,100.0,invalid,,,-1,p,0.0
prac,6.0,100.0,0.0,0.0,0.0,99999,100.0,invalid,,,-1,p,0.0
prac,7.0,100.0,0.0,0.0,0.0,100,200.0,square1,,,0,p,0.0
prac,8.0,100.0,0.0,0.0,0.0,100,300.0,square1,,,0,p,0.0
prac,9.0,100.0,0.0,0.0,0.0,100,400.0,square1,,,0,p,0.0
V3,0.0,62.0,45.0,70.0,53.0,53,53.0,square4,f,0.6481,3,V,3.0
V3,1.0,63.0,47.0,76.0,60.0,47,100.0,square2,r,0.3446,1,V,3.0
V3,2.0,65.0,54.0,73.0,57.0,65,165.0,square1,i,0.3045,0,V,3.0
V3,3.0,68.0,51.0,71.0,51.0,71,236.0,square3,j,0.2901,2,V,3.0
V3,4.0,61.0,49.0,75.0,53.0,75,311.0,square3,j,0.3395,2,V,3.0
V3,5.0,65.0,47.0,74.0,50.0,74,385.0,square3,j,0.3945,2,V,3.0
V3,6.0,61.0,51.0,72.0,57.0,72,457.0,square3,j,0.387,2,V,3.0
V3,7.0,67.0,49.0,75.0,55.0,75,532.0,square3,j,0.3393,2,V,3.0
V3,8.0,64.0,48.0,76.0,56.0,76,608.0,square3,j,0.1911,2,V,3.0
V3,9.0,67.0,49.0,71.0,56.0,71,679.0,square3,j,0.1482,2,V,3.0
V3,10.0,65.0,50.0,71.0,56.0,71,750.0,square3,j,0.6065,2,V,3.0
V3,11.0,63.0,43.0,78.0,58.0,78,828.0,square3,j,0.05,2,V,3.0
V3,12.0,66.0,53.0,73.0,54.0,73,901.0,square3,j,0.467,2,V,3.0
V3,13.0,64.0,46.0,78.0,51.0,78,979.0,square3,j,0.3838,2,V,3.0
V3,14.0,67.0,51.0,71.0,58.0,71,1050.0,square3,j,0.252,2,V,3.0
V3,15.0,61.0,50.0,73.0,54.0,73,1123.0,square3,j,0.0943,2,V,3.0
V3,16.0,64.0,52.0,74.0,54.0,74,1197.0,square3,j,0.0853,2,V,3.0
V3,17.0,61.0,48.0,74.0,55.0,74,1271.0,square3,j,0.0556,2,V,3.0
V3,18.0,65.0,50.0,70.0,59.0,70,1341.0,square3,j,0.11,2,V,3.0
V3,19.0,64.0,52.0,76.0,56.0,76,1417.0,square3,j,0.1167,2,V,3.0
V3,20.0,64.0,50.0,69.0,58.0,69,1486.0,square3,j,0.6945,2,V,3.0
V3,21.0,66.0,50.0,72.0,56.0,56,1542.0,square4,f,0.3004,3,V,3.0
V3,22.0,43.0,48.0,40.0,62.0,48,1590.0,square2,r,0.3621,1,V,3.0
V3,23.0,41.0,51.0,35.0,59.0,41,1631.0,square1,i,0.0783,0,V,3.0
V3,24.0,51.0,51.0,37.0,60.0,37,1668.0,square3,j,0.3488,2,V,3.0
V3,25.0,45.0,53.0,36.0,57.0,57,1725.0,square4,f,0.3036,3,V,3.0
V3,26.0,44.0,51.0,38.0,59.0,51,1776.0,square2,r,0.1733,1,V,3.0
V3,27.0,43.0,51.0,34.0,66.0,43,1819.0,square1,i,0.6591,0,V,3.0
V3,28.0,47.0,51.0,40.0,67.0,67,1886.0,square4,f,0.0464,3,V,3.0
V3,29.0,42.0,55.0,35.0,65.0,35,1921.0,square3,j,0.4626,2,V,3.0
V3,30.0,49.0,54.0,36.0,62.0,62,1983.0,square4,f,0.5538,3,V,3.0
V3,31.0,50.0,53.0,42.0,66.0,66,2049.0,square4,f,0.3367,3,V,3.0
V3,32.0,47.0,53.0,34.0,58.0,58,2107.0,square4,f,0.0012,3,V,3.0
V3,33.0,45.0,56.0,34.0,62.0,62,2169.0,square4,f,0.2075,3,V,3.0
V3,34.0,48.0,54.0,38.0,64.0,64,2233.0,square4,f,0.0354,3,V,3.0
V3,35.0,39.0,55.0,42.0,65.0,65,2298.0,square4,f,0.4208,3,V,3.0
V3,36.0,46.0,57.0,41.0,63.0,63,2361.0,square4,f,0.3739,3,V,3.0
V3,37.0,43.0,54.0,41.0,65.0,65,2426.0,square4,f,0.2449,3,V,3.0
V3,38.0,47.0,52.0,37.0,63.0,63,2489.0,square4,f,0.2345,3,V,3.0
V3,39.0,47.0,53.0,38.0,55.0,55,2544.0,square4,f,0.0688,3,V,3.0
V3,40.0,41.0,54.0,39.0,64.0,64,2608.0,square4,f,0.1858,3,V,3.0
V3,41.0,48.0,52.0,38.0,64.0,64,2672.0,square4,f,0.0481,3,V,3.0
V3,42.0,45.0,50.0,34.0,63.0,63,2735.0,square4,f,0.7588,3,V,3.0
V3,43.0,44.0,50.0,34.0,62.0,62,2797.0,square4,f,0.2685,3,V,3.0
V3,44.0,47.0,55.0,39.0,65.0,65,2862.0,square4,f,0.48,3,V,3.0
V3,45.0,45.0,55.0,31.0,63.0,63,2925.0,square4,f,0.25,3,V,3.0
V3,46.0,42.0,52.0,38.0,64.0,64,2989.0,square4,f,0.0285,3,V,3.0
V3,47.0,44.0,53.0,37.0,55.0,55,3044.0,square4,f,0.0465,3,V,3.0
V3,48.0,44.0,49.0,37.0,58.0,58,3102.0,square4,f,0.4396,3,V,3.0
V3,49.0,48.0,58.0,35.0,54.0,54,3156.0,square4,f,0.014,3,V,3.0
V3,50.0,42.0,28.0,30.0,52.0,52,3208.0,square4,f,0.2144,3,V,3.0
V3,51.0,46.0,29.0,32.0,51.0,51,3259.0,square4,f,0.3304,3,V,3.0
V3,52.0,37.0,20.0,36.0,50.0,20,3279.0,square2,r,0.1124,1,V,3.0
V3,53.0,44.0,22.0,34.0,55.0,44,3323.0,square1,i,0.4516,0,V,3.0
V3,54.0,37.0,27.0,26.0,50.0,26,3349.0,square3,j,0.2343,2,V,3.0
V3,55.0,41.0,21.0,39.0,53.0,53,3402.0,square4,f,0.1514,3,V,3.0
V3,56.0,40.0,20.0,38.0,51.0,51,3453.0,square4,f,0.0266,3,V,3.0
V3,57.0,44.0,28.0,31.0,57.0,57,3510.0,square4,f,0.1133,3,V,3.0
V3,58.0,46.0,20.0,28.0,49.0,49,3559.0,square4,f,0.0693,3,V,3.0
V3,59.0,44.0,24.0,30.0,55.0,55,3614.0,square4,f,0.3025,3,V,3.0
V3,60.0,42.0,29.0,29.0,51.0,51,3665.0,square4,f,0.0007,3,V,3.0
V3,61.0,41.0,21.0,30.0,46.0,46,3711.0,square4,f,0.2249,3,V,3.0
V3,62.0,41.0,27.0,31.0,49.0,49,3760.0,square4,f,0.2549,3,V,3.0
V3,63.0,42.0,27.0,34.0,51.0,51,3811.0,square4,f,0.1097,3,V,3.0
V3,64.0,41.0,24.0,30.0,47.0,47,3858.0,square4,f,0.1535,3,V,3.0
V3,65.0,36.0,18.0,34.0,48.0,48,3906.0,square4,f,0.1026,3,V,3.0
V3,66.0,39.0,28.0,35.0,45.0,45,3951.0,square4,f,0.0444,3,V,3.0
V3,67.0,42.0,21.0,32.0,46.0,21,3972.0,square2,r,0.0496,1,V,3.0
V3,68.0,40.0,24.0,35.0,53.0,40,4012.0,square1,i,0.3681,0,V,3.0
V3,69.0,48.0,23.0,34.0,50.0,34,4046.0,square3,j,0.0839,2,V,3.0
V3,70.0,40.0,27.0,31.0,49.0,49,4095.0,square4,f,0.0872,3,V,3.0
V3,71.0,41.0,23.0,28.0,51.0,51,4146.0,square4,f,0.1888,3,V,3.0
V3,72.0,42.0,25.0,33.0,55.0,55,4201.0,square4,f,0.0021,3,V,3.0
V3,73.0,41.0,24.0,35.0,55.0,55,4256.0,square4,f,0.0669,3,V,3.0
V3,74.0,38.0,26.0,28.0,53.0,53,4309.0,square4,f,0.0501,3,V,3.0
V3,75.0,54.0,39.0,69.0,50.0,50,4359.0,square4,f,0.1577,3,V,3.0
V3,76.0,55.0,42.0,64.0,53.0,53,4412.0,square4,f,0.0473,3,V,3.0
V3,77.0,59.0,37.0,66.0,44.0,44,4456.0,square4,f,0.0261,3,V,3.0
V3,78.0,58.0,38.0,60.0,46.0,46,4502.0,square4,f,0.2838,3,V,3.0
V3,79.0,54.0,35.0,66.0,49.0,49,4551.0,square4,f,0.022,3,V,3.0
V3,80.0,60.0,36.0,68.0,44.0,44,4595.0,square4,f,0.0498,3,V,3.0
V3,81.0,55.0,38.0,66.0,51.0,51,4646.0,square4,f,0.2613,3,V,3.0
V3,82.0,57.0,47.0,64.0,50.0,50,4696.0,square4,f,0.0671,3,V,3.0
V3,83.0,57.0,37.0,63.0,45.0,45,4741.0,square4,f,0.1763,3,V,3.0
V3,84.0,54.0,40.0,65.0,53.0,53,4794.0,square4,f,0.0018,3,V,3.0
V3,85.0,58.0,41.0,63.0,48.0,48,4842.0,square4,f,0.1508,3,V,3.0
V3,86.0,53.0,38.0,57.0,49.0,49,4891.0,square4,f,0.1523,3,V,3.0
V3,87.0,49.0,42.0,60.0,43.0,43,4934.0,square4,f,0.0665,3,V,3.0
V3,88.0,56.0,35.0,70.0,46.0,46,4980.0,square4,f,0.0593,3,V,3.0
V3,89.0,58.0,39.0,63.0,52.0,52,5032.0,square4,f,0.037,3,V,3.0
V3,90.0,59.0,43.0,63.0,45.0,45,5077.0,square4,f,0.0456,3,V,3.0
V3,91.0,54.0,37.0,69.0,49.0,49,5126.0,square4,f,0.2813,3,V,3.0
V3,92.0,56.0,41.0,61.0,47.0,47,5173.0,square4,f,0.1482,3,V,3.0
V3,93.0,58.0,35.0,68.0,47.0,47,5220.0,square4,f,0.0668,3,V,3.0
V3,94.0,61.0,37.0,67.0,51.0,51,5271.0,square4,f,0.0834,3,V,3.0
V3,95.0,57.0,32.0,64.0,47.0,47,5318.0,square4,f,0.1291,3,V,3.0
V3,96.0,53.0,38.0,63.0,48.0,48,5366.0,square4,f,0.2515,3,V,3.0
V3,97.0,57.0,44.0,71.0,50.0,50,5416.0,square4,f,0.1008,3,V,3.0
V3,98.0,56.0,39.0,70.0,47.0,47,5463.0,square4,f,0.0195,3,V,3.0
V3,99.0,62.0,40.0,67.0,49.0,49,5512.0,square4,f,0.2176,3,V,3.0
V11,0.0,42.0,67.0,57.0,49.0,99999,0.0,invalid,,,-1,V,11.0
V11,1.0,42.0,71.0,60.0,53.0,71,71.0,square2,f,0.3856,1,V,11.0
V11,2.0,45.0,76.0,58.0,51.0,76,147.0,square2,f,0.0685,1,V,11.0
V11,3.0,44.0,65.0,60.0,49.0,44,191.0,square1,r,0.1457,0,V,11.0
V11,4.0,46.0,73.0,64.0,51.0,64,255.0,square3,i,0.2179,2,V,11.0
V11,5.0,47.0,67.0,58.0,54.0,54,309.0,square4,j,0.0666,3,V,11.0
V11,6.0,43.0,68.0,58.0,50.0,68,377.0,square2,f,0.0586,1,V,11.0
V11,7.0,42.0,67.0,60.0,58.0,42,419.0,square1,r,0.0021,0,V,11.0
V11,8.0,44.0,67.0,60.0,53.0,60,479.0,square3,i,0.1339,2,V,11.0
V11,9.0,44.0,67.0,59.0,54.0,54,533.0,square4,j,0.0716,3,V,11.0
V11,10.0,49.0,76.0,57.0,52.0,76,609.0,square2,f,0.2159,1,V,11.0
V11,11.0,45.0,71.0,58.0,51.0,71,680.0,square2,f,0.1919,1,V,11.0
V11,12.0,45.0,72.0,58.0,56.0,72,752.0,square2,f,0.2213,1,V,11.0
V11,13.0,49.0,67.0,63.0,54.0,67,819.0,square2,f,0.1675,1,V,11.0
V11,14.0,50.0,75.0,57.0,48.0,75,894.0,square2,f,0.2306,1,V,11.0
V11,15.0,40.0,71.0,61.0,51.0,71,965.0,square2,f,0.1223,1,V,11.0
V11,16.0,47.0,72.0,56.0,54.0,72,1037.0,square2,f,0.1942,1,V,11.0
V11,17.0,40.0,71.0,61.0,46.0,71,1108.0,square2,f,0.2146,1,V,11.0
V11,18.0,44.0,69.0,59.0,51.0,69,1177.0,square2,f,0.2286,1,V,11.0
V11,19.0,44.0,73.0,59.0,47.0,73,1250.0,square2,f,0.3755,1,V,11.0
V11,20.0,47.0,69.0,64.0,54.0,69,1319.0,square2,f,0.1515,1,V,11.0
V11,21.0,78.0,49.0,70.0,65.0,49,1368.0,square2,f,0.1988,1,V,11.0
V11,22.0,78.0,56.0,73.0,62.0,56,1424.0,square2,f,0.8179,1,V,11.0
V11,23.0,84.0,54.0,71.0,65.0,54,1478.0,square2,f,0.1503,1,V,11.0
V11,24.0,80.0,55.0,72.0,67.0,80,1558.0,square1,r,0.1754,0,V,11.0
V11,25.0,80.0,55.0,75.0,63.0,75,1633.0,square3,i,0.184,2,V,11.0
V11,26.0,80.0,56.0,67.0,62.0,62,1695.0,square4,j,0.2004,3,V,11.0
V11,27.0,80.0,51.0,68.0,62.0,80,1775.0,square1,r,0.1002,0,V,11.0
V11,28.0,79.0,57.0,67.0,57.0,79,1854.0,square1,r,0.2668,0,V,11.0
V11,29.0,79.0,50.0,67.0,62.0,79,1933.0,square1,r,0.0009,0,V,11.0
V11,30.0,88.0,54.0,74.0,61.0,88,2021.0,square1,r,0.2384,0,V,11.0
V11,31.0,81.0,51.0,75.0,63.0,81,2102.0,square1,r,0.0411,0,V,11.0
V11,32.0,76.0,51.0,69.0,65.0,76,2178.0,square1,r,0.2244,0,V,11.0
V11,33.0,78.0,54.0,72.0,64.0,78,2256.0,square1,r,0.1513,0,V,11.0
V11,34.0,77.0,53.0,71.0,62.0,77,2333.0,square1,r,0.1797,0,V,11.0
V11,35.0,74.0,59.0,75.0,62.0,74,2407.0,square1,r,0.168,0,V,11.0
V11,36.0,79.0,50.0,72.0,62.0,79,2486.0,square1,r,0.0824,0,V,11.0
V11,37.0,74.0,54.0,68.0,62.0,74,2560.0,square1,r,0.2497,0,V,11.0
V11,38.0,80.0,57.0,65.0,58.0,80,2640.0,square1,r,0.1937,0,V,11.0
V11,39.0,73.0,52.0,75.0,66.0,73,2713.0,square1,r,0.0861,0,V,11.0
V11,40.0,82.0,57.0,71.0,57.0,82,2795.0,square1,r,0.1863,0,V,11.0
V11,41.0,78.0,53.0,73.0,64.0,78,2873.0,square1,r,0.1312,0,V,11.0
V11,42.0,72.0,56.0,67.0,59.0,72,2945.0,square1,r,0.1073,0,V,11.0
V11,43.0,81.0,54.0,73.0,63.0,81,3026.0,square1,r,0.0934,0,V,11.0
V11,44.0,76.0,54.0,75.0,59.0,76,3102.0,square1,r,0.0773,0,V,11.0
V11,45.0,79.0,59.0,71.0,64.0,79,3181.0,square1,r,0.1132,0,V,11.0
V11,46.0,80.0,55.0,67.0,57.0,80,3261.0,square1,r,0.1188,0,V,11.0
V11,47.0,84.0,53.0,75.0,56.0,84,3345.0,square1,r,0.0073,0,V,11.0
V11,48.0,83.0,57.0,71.0,60.0,83,3428.0,square1,r,0.1153,0,V,11.0
V11,49.0,79.0,52.0,71.0,60.0,79,3507.0,square1,r,0.0008,0,V,11.0
V11,50.0,76.0,50.0,69.0,60.0,76,3583.0,square1,r,0.1504,0,V,11.0
V11,51.0,79.0,54.0,72.0,57.0,79,3662.0,square1,r,0.0667,0,V,11.0
V11,52.0,80.0,54.0,72.0,64.0,80,3742.0,square1,r,0.1151,0,V,11.0
V11,53.0,35.0,50.0,55.0,69.0,35,3777.0,square1,r,0.0229,0,V,11.0
V11,54.0,45.0,48.0,55.0,73.0,45,3822.0,square1,r,0.0012,0,V,11.0
V11,55.0,43.0,53.0,58.0,70.0,58,3880.0,square3,i,0.2203,2,V,11.0
V11,56.0,40.0,46.0,60.0,62.0,62,3942.0,square4,j,0.1169,3,V,11.0
V11,57.0,44.0,46.0,53.0,71.0,46,3988.0,square2,f,0.2227,1,V,11.0
V11,58.0,44.0,52.0,55.0,68.0,44,4032.0,square1,r,0.068,0,V,11.0
V11,59.0,44.0,44.0,57.0,66.0,57,4089.0,square3,i,0.0433,2,V,11.0
V11,60.0,40.0,46.0,57.0,62.0,62,4151.0,square4,j,0.1683,3,V,11.0
V11,61.0,42.0,52.0,58.0,62.0,62,4213.0,square4,j,0.1499,3,V,11.0
V11,62.0,40.0,49.0,56.0,71.0,71,4284.0,square4,j,0.1755,3,V,11.0
V11,63.0,40.0,54.0,60.0,66.0,66,4350.0,square4,j,0.0007,3,V,11.0
V11,64.0,41.0,43.0,51.0,66.0,66,4416.0,square4,j,0.02,3,V,11.0
V11,65.0,39.0,48.0,59.0,66.0,66,4482.0,square4,j,0.2796,3,V,11.0
V11,66.0,40.0,48.0,59.0,69.0,69,4551.0,square4,j,0.2376,3,V,11.0
V11,67.0,46.0,45.0,58.0,69.0,69,4620.0,square4,j,0.2541,3,V,11.0
V11,68.0,41.0,50.0,56.0,69.0,69,4689.0,square4,j,0.0824,3,V,11.0
V11,69.0,48.0,49.0,57.0,71.0,71,4760.0,square4,j,0.1174,3,V,11.0
V11,70.0,41.0,47.0,58.0,65.0,65,4825.0,square4,j,0.01,3,V,11.0
V11,71.0,37.0,46.0,58.0,60.0,60,4885.0,square4,j,0.1996,3,V,11.0
V11,72.0,41.0,47.0,54.0,65.0,65,4950.0,square4,j,0.1812,3,V,11.0
V11,73.0,42.0,47.0,60.0,67.0,67,5017.0,square4,j,0.2444,3,V,11.0
V11,74.0,43.0,49.0,57.0,64.0,64,5081.0,square4,j,0.2864,3,V,11.0
V11,75.0,38.0,46.0,57.0,66.0,66,5147.0,square4,j,0.2339,3,V,11.0
V11,76.0,42.0,50.0,58.0,68.0,68,5215.0,square4,j,0.1485,3,V,11.0
V11,77.0,36.0,49.0,58.0,64.0,64,5279.0,square4,j,0.0008,3,V,11.0
V11,78.0,40.0,50.0,56.0,67.0,67,5346.0,square4,j,0.001,3,V,11.0
V11,79.0,39.0,48.0,56.0,67.0,67,5413.0,square4,j,0.1711,3,V,11.0
V11,80.0,51.0,33.0,30.0,45.0,45,5458.0,square4,j,0.164,3,V,11.0
V11,81.0,49.0,31.0,23.0,48.0,31,5489.0,square2,f,0.0696,1,V,11.0
V11,82.0,55.0,30.0,25.0,42.0,55,5544.0,square1,r,0.1327,0,V,11.0
V11,83.0,50.0,33.0,27.0,48.0,27,5571.0,square3,i,0.04,2,V,11.0
V11,84.0,52.0,34.0,25.0,43.0,43,5614.0,square4,j,0.0749,3,V,11.0
V11,85.0,49.0,28.0,28.0,44.0,44,5658.0,square4,j,0.0615,3,V,11.0
V11,86.0,57.0,29.0,27.0,48.0,29,5687.0,square2,f,0.0331,1,V,11.0
V11,87.0,49.0,29.0,21.0,38.0,49,5736.0,square1,r,0.1312,0,V,11.0
V11,88.0,55.0,32.0,29.0,46.0,29,5765.0,square3,i,0.2017,2,V,11.0
V11,89.0,50.0,28.0,23.0,43.0,43,5808.0,square4,j,0.0193,3,V,11.0
V11,90.0,54.0,34.0,32.0,41.0,34,5842.0,square2,f,0.2305,1,V,11.0
V11,91.0,50.0,34.0,26.0,44.0,34,5876.0,square2,f,0.1673,1,V,11.0
V11,92.0,51.0,31.0,27.0,50.0,51,5927.0,square1,r,0.0674,0,V,11.0
V11,93.0,49.0,38.0,28.0,42.0,49,5976.0,square1,r,0.0961,0,V,11.0
V11,94.0,50.0,29.0,25.0,46.0,50,6026.0,square1,r,0.2177,0,V,11.0
V11,95.0,51.0,36.0,22.0,40.0,51,6077.0,square1,r,0.0085,0,V,11.0
V11,96.0,52.0,34.0,32.0,45.0,52,6129.0,square1,r,0.2283,0,V,11.0
V11,97.0,53.0,27.0,32.0,44.0,53,6182.0,square1,r,0.2886,0,V,11.0
V11,98.0,60.0,31.0,25.0,48.0,60,6242.0,square1,r,0.0509,0,V,11.0
V11,99.0,53.0,33.0,23.0,42.0,53,6295.0,square1,r,0.0708,0,V,11.0
V10,0.0,28.0,21.0,37.0,46.0,37,37.0,square3,r,0.9555,2,V,10.0
V10,1.0,26.0,19.0,41.0,49.0,49,86.0,square4,i,0.0193,3,V,10.0
V10,2.0,29.0,20.0,43.0,48.0,20,106.0,square2,j,0.3823,1,V,10.0
V10,3.0,27.0,27.0,37.0,44.0,27,133.0,square1,f,0.0012,0,V,10.0
V10,4.0,28.0,16.0,36.0,47.0,36,169.0,square3,r,0.3327,2,V,10.0
V10,5.0,33.0,25.0,42.0,54.0,54,223.0,square4,i,0.0008,3,V,10.0
V10,6.0,28.0,19.0,35.0,45.0,45,268.0,square4,i,0.1172,3,V,10.0
V10,7.0,30.0,24.0,35.0,49.0,49,317.0,square4,i,0.2179,3,V,10.0
V10,8.0,37.0,29.0,41.0,47.0,47,364.0,square4,i,0.0478,3,V,10.0
V10,9.0,28.0,21.0,41.0,48.0,48,412.0,square4,i,0.0008,3,V,10.0
V10,10.0,27.0,22.0,39.0,42.0,42,454.0,square4,i,0.0013,3,V,10.0
V10,11.0,32.0,16.0,41.0,48.0,48,502.0,square4,i,0.23,3,V,10.0
V10,12.0,34.0,15.0,33.0,49.0,49,551.0,square4,i,0.2297,3,V,10.0
V10,13.0,36.0,19.0,41.0,45.0,45,596.0,square4,i,0.1036,3,V,10.0
V10,14.0,28.0,23.0,35.0,53.0,53,649.0,square4,i,0.0968,3,V,10.0
V10,15.0,26.0,28.0,40.0,50.0,50,699.0,square4,i,0.1996,3,V,10.0
V10,16.0,30.0,25.0,42.0,47.0,47,746.0,square4,i,0.1594,3,V,10.0
V10,17.0,31.0,19.0,38.0,50.0,50,796.0,square4,i,0.0384,3,V,10.0
V10,18.0,34.0,21.0,35.0,48.0,48,844.0,square4,i,0.1664,3,V,10.0
V10,19.0,31.0,24.0,39.0,46.0,46,890.0,square4,i,0.0945,3,V,10.0
V10,20.0,28.0,22.0,42.0,47.0,47,937.0,square4,i,0.0206,3,V,10.0
V10,21.0,24.0,20.0,41.0,47.0,47,984.0,square4,i,0.0479,3,V,10.0
V10,22.0,32.0,22.0,34.0,44.0,44,1028.0,square4,i,0.0507,3,V,10.0
V10,23.0,29.0,23.0,37.0,47.0,47,1075.0,square4,i,0.0016,3,V,10.0
V10,24.0,25.0,25.0,38.0,46.0,46,1121.0,square4,i,0.1,3,V,10.0
V10,25.0,30.0,24.0,41.0,45.0,45,1166.0,square4,i,0.0997,3,V,10.0
V10,26.0,32.0,17.0,38.0,49.0,49,1215.0,square4,i,0.0561,3,V,10.0
V10,27.0,34.0,21.0,38.0,47.0,47,1262.0,square4,i,0.0756,3,V,10.0
V10,28.0,29.0,21.0,37.0,45.0,45,1307.0,square4,i,0.1854,3,V,10.0
V10,29.0,30.0,20.0,31.0,47.0,47,1354.0,square4,i,0.4207,3,V,10.0
V10,30.0,28.0,21.0,35.0,44.0,44,1398.0,square4,i,0.1943,3,V,10.0
V10,31.0,36.0,25.0,14.0,8.0,8,1406.0,square4,i,0.2335,3,V,10.0
V10,32.0,38.0,27.0,19.0,11.0,27,1433.0,square2,j,0.2169,1,V,10.0
V10,33.0,39.0,21.0,20.0,13.0,39,1472.0,square1,f,0.1889,0,V,10.0
V10,34.0,34.0,24.0,20.0,10.0,20,1492.0,square3,r,0.2387,2,V,10.0
V10,35.0,44.0,29.0,17.0,11.0,44,1536.0,square1,f,0.1205,0,V,10.0
V10,36.0,33.0,30.0,17.0,9.0,33,1569.0,square1,f,0.0827,0,V,10.0
V10,37.0,31.0,27.0,12.0,6.0,31,1600.0,square1,f,0.1863,0,V,10.0
V10,38.0,34.0,29.0,15.0,10.0,34,1634.0,square1,f,0.0311,0,V,10.0
V10,39.0,35.0,21.0,19.0,5.0,35,1669.0,square1,f,0.1444,0,V,10.0
V10,40.0,32.0,26.0,18.0,6.0,32,1701.0,square1,f,0.1734,0,V,10.0
V10,41.0,34.0,32.0,13.0,9.0,34,1735.0,square1,f,0.1481,0,V,10.0
V10,42.0,35.0,30.0,16.0,8.0,16,1751.0,square3,r,0.2838,2,V,10.0
V10,43.0,38.0,32.0,16.0,8.0,16,1767.0,square3,r,0.0387,2,V,10.0
V10,44.0,34.0,20.0,18.0,3.0,20,1787.0,square2,j,0.1883,1,V,10.0
V10,45.0,38.0,22.0,23.0,9.0,22,1809.0,square2,j,0.2028,1,V,10.0
V10,46.0,36.0,28.0,16.0,10.0,10,1819.0,square4,i,0.0596,3,V,10.0
V10,47.0,36.0,27.0,13.0,8.0,36,1855.0,square1,f,0.0913,0,V,10.0
V10,48.0,35.0,27.0,14.0,12.0,35,1890.0,square1,f,0.2171,0,V,10.0
V10,49.0,33.0,28.0,16.0,10.0,33,1923.0,square1,f,0.0505,0,V,10.0
V10,50.0,31.0,29.0,19.0,8.0,31,1954.0,square1,f,0.0895,0,V,10.0
V10,51.0,32.0,21.0,20.0,12.0,32,1986.0,square1,f,0.2329,0,V,10.0
V10,52.0,29.0,25.0,21.0,10.0,29,2015.0,square1,f,0.2675,0,V,10.0
V10,53.0,39.0,29.0,23.0,2.0,39,2054.0,square1,f,0.0012,0,V,10.0
V10,54.0,33.0,28.0,19.0,7.0,33,2087.0,square1,f,0.0496,0,V,10.0
V10,55.0,34.0,24.0,15.0,8.0,34,2121.0,square1,f,0.2106,0,V,10.0
V10,56.0,35.0,20.0,21.0,9.0,35,2156.0,square1,f,0.0842,0,V,10.0
V10,57.0,33.0,27.0,19.0,7.0,33,2189.0,square1,f,0.0774,0,V,10.0
V10,58.0,38.0,24.0,16.0,7.0,38,2227.0,square1,f,0.0006,0,V,10.0
V10,59.0,34.0,29.0,15.0,5.0,34,2261.0,square1,f,0.0015,0,V,10.0
V10,60.0,34.0,22.0,19.0,9.0,34,2295.0,square1,f,0.0233,0,V,10.0
V10,61.0,39.0,31.0,20.0,10.0,39,2334.0,square1,f,0.0617,0,V,10.0
V10,62.0,35.0,24.0,18.0,6.0,35,2369.0,square1,f,0.1929,0,V,10.0
V10,63.0,35.0,26.0,18.0,9.0,35,2404.0,square1,f,0.0658,0,V,10.0
V10,64.0,31.0,55.0,23.0,23.0,31,2435.0,square1,f,0.0018,0,V,10.0
V10,65.0,35.0,50.0,22.0,27.0,35,2470.0,square1,f,0.1008,0,V,10.0
V10,66.0,35.0,53.0,25.0,29.0,35,2505.0,square1,f,0.1567,0,V,10.0
V10,67.0,38.0,44.0,17.0,29.0,38,2543.0,square1,f,0.2835,0,V,10.0
V10,68.0,36.0,48.0,22.0,27.0,36,2579.0,square1,f,0.2835,0,V,10.0
V10,69.0,41.0,53.0,17.0,28.0,41,2620.0,square1,f,0.2507,0,V,10.0
V10,70.0,40.0,48.0,23.0,28.0,40,2660.0,square1,f,0.3664,0,V,10.0
V10,71.0,39.0,43.0,24.0,20.0,39,2699.0,square1,f,0.0524,0,V,10.0
V10,72.0,36.0,49.0,19.0,25.0,36,2735.0,square1,f,0.0015,0,V,10.0
V10,73.0,39.0,49.0,23.0,32.0,39,2774.0,square1,f,0.1834,0,V,10.0
V10,74.0,36.0,44.0,17.0,29.0,36,2810.0,square1,f,0.1804,0,V,10.0
V10,75.0,37.0,46.0,20.0,30.0,37,2847.0,square1,f,0.0648,0,V,10.0
V10,76.0,38.0,47.0,23.0,30.0,38,2885.0,square1,f,0.0662,0,V,10.0
V10,77.0,36.0,49.0,22.0,32.0,36,2921.0,square1,f,0.0802,0,V,10.0
V10,78.0,41.0,44.0,19.0,27.0,41,2962.0,square1,f,0.0903,0,V,10.0
V10,79.0,41.0,48.0,22.0,27.0,41,3003.0,square1,f,0.1282,0,V,10.0
V10,80.0,34.0,44.0,26.0,29.0,34,3037.0,square1,f,0.1219,0,V,10.0
V10,81.0,38.0,47.0,18.0,29.0,38,3075.0,square1,f,0.0915,0,V,10.0
V10,82.0,43.0,43.0,23.0,28.0,43,3118.0,square1,f,0.0968,0,V,10.0
V10,83.0,34.0,51.0,23.0,26.0,34,3152.0,square1,f,0.1761,0,V,10.0
V10,84.0,36.0,46.0,18.0,25.0,36,3188.0,square1,f,0.1525,0,V,10.0
V10,85.0,39.0,46.0,25.0,26.0,25,3213.0,square3,r,0.0997,2,V,10.0
V10,86.0,39.0,50.0,27.0,27.0,27,3240.0,square4,i,0.1364,3,V,10.0
V10,87.0,38.0,46.0,20.0,30.0,46,3286.0,square2,j,0.0015,1,V,10.0
V10,88.0,37.0,49.0,22.0,28.0,49,3335.0,square2,j,0.129,1,V,10.0
V10,89.0,34.0,51.0,25.0,26.0,51,3386.0,square2,j,0.0405,1,V,10.0
V10,90.0,41.0,49.0,22.0,29.0,49,3435.0,square2,j,0.1667,1,V,10.0
V10,91.0,37.0,45.0,26.0,32.0,45,3480.0,square2,j,0.0196,1,V,10.0
V10,92.0,42.0,42.0,27.0,28.0,42,3522.0,square2,j,0.1786,1,V,10.0
V10,93.0,41.0,48.0,19.0,36.0,48,3570.0,square2,j,0.1777,1,V,10.0
V10,94.0,43.0,49.0,23.0,31.0,49,3619.0,square2,j,0.2762,1,V,10.0
V10,95.0,39.0,46.0,18.0,27.0,46,3665.0,square2,j,0.0364,1,V,10.0
V10,96.0,37.0,48.0,24.0,27.0,48,3713.0,square2,j,0.2484,1,V,10.0
V10,97.0,42.0,50.0,23.0,31.0,50,3763.0,square2,j,0.1929,1,V,10.0
V10,98.0,33.0,47.0,25.0,32.0,47,3810.0,square2,j,0.0009,1,V,10.0
V10,99.0,39.0,48.0,23.0,32.0,48,3858.0,square2,j,0.0007,1,V,10.0
S10,0.0,72.0,76.0,80.0,64.0,76,76.0,square2,r,0.7562,1,S,10.0
S10,1.0,76.0,75.0,74.0,65.0,76,152.0,square1,i,0.3964,0,S,10.0
S10,2.0,70.0,72.0,79.0,74.0,74,226.0,square4,j,0.6573,3,S,10.0
S10,3.0,69.0,77.0,76.0,68.0,76,302.0,square3,f,0.2674,2,S,10.0
S10,4.0,72.0,79.0,77.0,70.0,79,381.0,square2,r,0.0246,1,S,10.0
S10,5.0,68.0,74.0,72.0,64.0,74,455.0,square2,r,0.1003,1,S,10.0
S10,6.0,70.0,77.0,72.0,62.0,77,532.0,square2,r,0.1414,1,S,10.0
S10,7.0,78.0,81.0,80.0,74.0,81,613.0,square2,r,0.0104,1,S,10.0
S10,8.0,78.0,78.0,82.0,66.0,78,691.0,square1,i,0.0125,0,S,10.0
S10,9.0,69.0,76.0,77.0,65.0,69,760.0,square1,i,0.0013,0,S,10.0
S10,10.0,72.0,78.0,72.0,75.0,72,832.0,square1,i,0.183,0,S,10.0
S10,11.0,71.0,76.0,78.0,66.0,71,903.0,square1,i,0.084,0,S,10.0
S10,12.0,73.0,83.0,79.0,69.0,69,972.0,square4,j,0.1341,3,S,10.0
S10,13.0,68.0,77.0,65.0,65.0,65,1037.0,square4,j,0.0576,3,S,10.0
S10,14.0,69.0,84.0,79.0,65.0,65,1102.0,square4,j,0.1952,3,S,10.0
S10,15.0,72.0,84.0,70.0,71.0,71,1173.0,square4,j,0.1623,3,S,10.0
S10,16.0,79.0,80.0,82.0,67.0,82,1255.0,square3,f,0.1922,2,S,10.0
S10,17.0,69.0,83.0,75.0,70.0,75,1330.0,square3,f,0.1015,2,S,10.0
S10,18.0,69.0,75.0,69.0,68.0,69,1399.0,square3,f,0.0686,2,S,10.0
S10,19.0,70.0,83.0,73.0,66.0,73,1472.0,square3,f,0.1801,2,S,10.0
S10,20.0,69.0,83.0,75.0,66.0,83,1555.0,square2,r,0.1166,1,S,10.0
S10,21.0,77.0,70.0,75.0,70.0,70,1625.0,square2,r,0.1869,1,S,10.0
S10,22.0,73.0,77.0,81.0,69.0,77,1702.0,square2,r,0.1172,1,S,10.0
S10,23.0,73.0,78.0,70.0,65.0,78,1780.0,square2,r,0.3072,1,S,10.0
S10,24.0,70.0,80.0,75.0,66.0,80,1860.0,square2,r,0.0955,1,S,10.0
S10,25.0,70.0,80.0,73.0,72.0,80,1940.0,square2,r,0.1737,1,S,10.0
S10,26.0,73.0,75.0,73.0,75.0,75,2015.0,square2,r,0.1853,1,S,10.0
S10,27.0,77.0,81.0,83.0,66.0,81,2096.0,square2,r,0.0497,1,S,10.0
S10,28.0,73.0,79.0,79.0,73.0,79,2175.0,square2,r,0.2619,1,S,10.0
S10,29.0,73.0,79.0,72.0,69.0,79,2254.0,square2,r,0.0005,1,S,10.0
S10,30.0,71.0,85.0,79.0,69.0,85,2339.0,square2,r,0.1781,1,S,10.0
S10,31.0,71.0,85.0,83.0,66.0,85,2424.0,square2,r,0.1504,1,S,10.0
S10,32.0,78.0,79.0,77.0,65.0,79,2503.0,square2,r,0.0376,1,S,10.0
S10,33.0,83.0,79.0,72.0,68.0,79,2582.0,square2,r,0.0861,1,S,10.0
S10,34.0,68.0,74.0,79.0,72.0,74,2656.0,square2,r,0.0006,1,S,10.0
S10,35.0,70.0,83.0,79.0,67.0,83,2739.0,square2,r,0.1366,1,S,10.0
S10,36.0,67.0,76.0,75.0,72.0,76,2815.0,square2,r,0.122,1,S,10.0
S10,37.0,76.0,82.0,79.0,60.0,82,2897.0,square2,r,0.1637,1,S,10.0
S10,38.0,72.0,75.0,69.0,68.0,75,2972.0,square2,r,0.2318,1,S,10.0
S10,39.0,73.0,78.0,76.0,70.0,78,3050.0,square2,r,0.2188,1,S,10.0
S10,40.0,76.0,77.0,66.0,60.0,77,3127.0,square2,r,0.1855,1,S,10.0
S10,41.0,74.0,83.0,73.0,67.0,83,3210.0,square2,r,0.2117,1,S,10.0
S10,42.0,72.0,69.0,80.0,63.0,69,3279.0,square2,r,0.0207,1,S,10.0
S10,43.0,69.0,74.0,72.0,68.0,74,3353.0,square2,r,0.2133,1,S,10.0
S10,44.0,67.0,76.0,70.0,65.0,76,3429.0,square2,r,0.0197,1,S,10.0
S10,45.0,76.0,81.0,74.0,72.0,81,3510.0,square2,r,0.1323,1,S,10.0
S10,46.0,76.0,79.0,76.0,66.0,79,3589.0,square2,r,0.1652,1,S,10.0
S10,47.0,67.0,81.0,84.0,60.0,81,3670.0,square2,r,0.1958,1,S,10.0
S10,48.0,73.0,83.0,75.0,66.0,83,3753.0,square2,r,0.1835,1,S,10.0
S10,49.0,66.0,77.0,74.0,71.0,77,3830.0,square2,r,0.2004,1,S,10.0
S6,0.0,40.0,29.0,39.0,26.0,40,40.0,square1,r,0.7713,0,S,6.0
S6,1.0,34.0,40.0,31.0,25.0,31,71.0,square3,i,0.657,2,S,6.0
S6,2.0,37.0,31.0,25.0,30.0,31,102.0,square2,j,0.1516,1,S,6.0
S6,3.0,39.0,37.0,30.0,27.0,27,129.0,square4,f,0.1977,3,S,6.0
S6,4.0,42.0,40.0,28.0,32.0,42,171.0,square1,r,0.2007,0,S,6.0
S6,5.0,35.0,35.0,39.0,29.0,35,206.0,square1,r,0.0858,0,S,6.0
S6,6.0,48.0,30.0,37.0,33.0,48,254.0,square1,r,0.0642,0,S,6.0
S6,7.0,47.0,34.0,31.0,29.0,47,301.0,square1,r,0.1169,0,S,6.0
S6,8.0,43.0,35.0,30.0,25.0,30,331.0,square3,i,0.0275,2,S,6.0
S6,9.0,36.0,38.0,35.0,35.0,35,366.0,square3,i,0.0007,2,S,6.0
S6,10.0,38.0,35.0,31.0,21.0,31,397.0,square3,i,0.0833,2,S,6.0
S6,11.0,30.0,36.0,31.0,20.0,31,428.0,square3,i,0.01,2,S,6.0
S6,12.0,37.0,40.0,33.0,22.0,40,468.0,square2,j,0.0576,1,S,6.0
S6,13.0,32.0,41.0,35.0,29.0,41,509.0,square2,j,0.0668,1,S,6.0
S6,14.0,41.0,29.0,30.0,32.0,29,538.0,square2,j,0.1502,1,S,6.0
S6,15.0,43.0,37.0,31.0,27.0,37,575.0,square2,j,0.0649,1,S,6.0
S6,16.0,34.0,34.0,35.0,31.0,34,609.0,square2,j,0.0011,1,S,6.0
S6,17.0,47.0,40.0,29.0,28.0,40,649.0,square2,j,0.0995,1,S,6.0
S6,18.0,37.0,38.0,34.0,35.0,35,684.0,square4,f,0.1953,3,S,6.0
S6,19.0,36.0,39.0,31.0,26.0,26,710.0,square4,f,0.0013,3,S,6.0
S6,20.0,44.0,40.0,31.0,25.0,25,735.0,square4,f,0.0661,3,S,6.0
S6,21.0,39.0,41.0,35.0,24.0,24,759.0,square4,f,0.3236,3,S,6.0
S6,22.0,41.0,38.0,41.0,31.0,41,800.0,square1,r,0.0006,0,S,6.0
S6,23.0,37.0,31.0,30.0,32.0,37,837.0,square1,r,0.0993,0,S,6.0
S6,24.0,48.0,34.0,34.0,21.0,48,885.0,square1,r,0.2341,0,S,6.0
S6,25.0,42.0,45.0,26.0,29.0,42,927.0,square1,r,0.245,0,S,6.0
S6,26.0,40.0,39.0,36.0,28.0,40,967.0,square1,r,0.0704,0,S,6.0
S6,27.0,42.0,33.0,29.0,29.0,42,1009.0,square1,r,0.1145,0,S,6.0
S6,28.0,41.0,30.0,29.0,29.0,41,1050.0,square1,r,0.1022,0,S,6.0
S6,29.0,42.0,40.0,32.0,27.0,42,1092.0,square1,r,0.1492,0,S,6.0
S6,30.0,42.0,36.0,30.0,26.0,42,1134.0,square1,r,0.1046,0,S,6.0
S6,31.0,42.0,34.0,35.0,29.0,42,1176.0,square1,r,0.0269,0,S,6.0
S6,32.0,35.0,36.0,31.0,23.0,35,1211.0,square1,r,0.0745,0,S,6.0
S6,33.0,35.0,31.0,35.0,30.0,35,1246.0,square1,r,0.2154,0,S,6.0
S6,34.0,40.0,38.0,31.0,27.0,40,1286.0,square1,r,0.1705,0,S,6.0
S6,35.0,42.0,37.0,34.0,34.0,42,1328.0,square1,r,0.1881,0,S,6.0
S6,36.0,37.0,46.0,31.0,34.0,37,1365.0,square1,r,0.1446,0,S,6.0
S6,37.0,38.0,40.0,30.0,26.0,38,1403.0,square1,r,0.0298,0,S,6.0
S6,38.0,36.0,34.0,31.0,33.0,36,1439.0,square1,r,0.0574,0,S,6.0
S6,39.0,44.0,37.0,33.0,31.0,44,1483.0,square1,r,0.047,0,S,6.0
S6,40.0,40.0,38.0,31.0,25.0,40,1523.0,square1,r,0.0626,0,S,6.0
S6,41.0,49.0,35.0,35.0,28.0,49,1572.0,square1,r,0.2165,0,S,6.0
S6,42.0,44.0,40.0,32.0,28.0,44,1616.0,square1,r,0.0015,0,S,6.0
S6,43.0,43.0,36.0,33.0,26.0,43,1659.0,square1,r,0.0647,0,S,6.0
S6,44.0,38.0,33.0,34.0,26.0,38,1697.0,square1,r,0.1691,0,S,6.0
S6,45.0,32.0,35.0,30.0,28.0,32,1729.0,square1,r,0.0965,0,S,6.0
S6,46.0,38.0,36.0,34.0,30.0,38,1767.0,square1,r,0.2246,0,S,6.0
S6,47.0,44.0,35.0,32.0,31.0,44,1811.0,square1,r,0.0007,0,S,6.0
S6,48.0,40.0,40.0,31.0,33.0,40,1851.0,square1,r,0.1996,0,S,6.0
S6,49.0,41.0,29.0,29.0,29.0,41,1892.0,square1,r,0.0978,0,S,6.0
S2,0.0,62.0,57.0,71.0,74.0,57,57.0,square2,r,0.837,1,S,2.0
S2,1.0,64.0,59.0,72.0,67.0,67,124.0,square4,i,0.1368,3,S,2.0
S2,2.0,68.0,57.0,75.0,68.0,75,199.0,square3,j,0.0551,2,S,2.0
S2,3.0,69.0,57.0,80.0,70.0,69,268.0,square1,f,0.0303,0,S,2.0
S2,4.0,66.0,60.0,74.0,68.0,60,328.0,square2,r,0.1765,1,S,2.0
S2,5.0,63.0,62.0,77.0,72.0,72,400.0,square4,i,0.0447,3,S,2.0
S2,6.0,69.0,61.0,75.0,74.0,74,474.0,square4,i,0.0337,3,S,2.0
S2,7.0,74.0,66.0,79.0,72.0,72,546.0,square4,i,0.2203,3,S,2.0
S2,8.0,81.0,65.0,76.0,72.0,72,618.0,square4,i,0.1686,3,S,2.0
S2,9.0,70.0,66.0,78.0,70.0,78,696.0,square3,j,0.0817,2,S,2.0
S2,10.0,70.0,72.0,70.0,74.0,70,766.0,square3,j,0.0228,2,S,2.0
S2,11.0,64.0,66.0,72.0,67.0,72,838.0,square3,j,0.0009,2,S,2.0
S2,12.0,66.0,57.0,70.0,67.0,70,908.0,square3,j,0.1948,2,S,2.0
S2,13.0,68.0,68.0,71.0,73.0,68,976.0,square1,f,0.1184,0,S,2.0
S2,14.0,70.0,63.0,77.0,71.0,70,1046.0,square1,f,0.0499,0,S,2.0
S2,15.0,64.0,66.0,75.0,66.0,64,1110.0,square1,f,0.1908,0,S,2.0
S2,16.0,67.0,61.0,73.0,70.0,67,1177.0,square1,f,0.1956,0,S,2.0
S2,17.0,65.0,58.0,71.0,75.0,75,1252.0,square4,i,0.0509,3,S,2.0
S2,18.0,72.0,64.0,81.0,61.0,61,1313.0,square4,i,0.1805,3,S,2.0
S2,19.0,60.0,63.0,72.0,65.0,65,1378.0,square4,i,0.1172,3,S,2.0
S2,20.0,68.0,56.0,71.0,70.0,70,1448.0,square4,i,0.1479,3,S,2.0
S2,21.0,65.0,65.0,74.0,71.0,74,1522.0,square3,j,0.1783,2,S,2.0
S2,22.0,69.0,62.0,77.0,72.0,77,1599.0,square3,j,0.1429,2,S,2.0
S2,23.0,64.0,71.0,74.0,65.0,74,1673.0,square3,j,0.1814,2,S,2.0
S2,24.0,66.0,62.0,78.0,70.0,78,1751.0,square3,j,0.2124,2,S,2.0
S2,25.0,67.0,69.0,76.0,66.0,76,1827.0,square3,j,0.0197,2,S,2.0
S2,26.0,65.0,63.0,74.0,69.0,74,1901.0,square3,j,0.0703,2,S,2.0
S2,27.0,68.0,64.0,67.0,68.0,67,1968.0,square3,j,0.0007,2,S,2.0
S2,28.0,61.0,52.0,71.0,68.0,71,2039.0,square3,j,0.0835,2,S,2.0
S2,29.0,67.0,64.0,73.0,69.0,73,2112.0,square3,j,0.117,2,S,2.0
S2,30.0,67.0,53.0,77.0,67.0,77,2189.0,square3,j,0.0208,2,S,2.0
S2,31.0,67.0,69.0,69.0,68.0,69,2258.0,square3,j,0.0199,2,S,2.0
S2,32.0,71.0,63.0,73.0,70.0,73,2331.0,square3,j,0.0277,2,S,2.0
S2,33.0,61.0,65.0,68.0,71.0,68,2399.0,square3,j,0.0464,2,S,2.0
S2,34.0,66.0,55.0,78.0,68.0,78,2477.0,square3,j,0.1833,2,S,2.0
S2,35.0,60.0,57.0,66.0,66.0,66,2543.0,square3,j,0.1966,2,S,2.0
S2,36.0,64.0,63.0,73.0,72.0,73,2616.0,square3,j,0.0456,2,S,2.0
S2,37.0,65.0,62.0,75.0,68.0,75,2691.0,square3,j,0.1197,2,S,2.0
S2,38.0,69.0,57.0,71.0,62.0,71,2762.0,square3,j,0.0095,2,S,2.0
S2,39.0,72.0,66.0,74.0,74.0,74,2836.0,square3,j,0.0445,2,S,2.0
S2,40.0,66.0,63.0,76.0,59.0,76,2912.0,square3,j,0.0009,2,S,2.0
S2,41.0,74.0,64.0,67.0,76.0,67,2979.0,square3,j,0.0695,2,S,2.0
S2,42.0,62.0,67.0,72.0,68.0,72,3051.0,square3,j,0.0006,2,S,2.0
S2,43.0,69.0,63.0,75.0,71.0,75,3126.0,square3,j,0.2865,2,S,2.0
S2,44.0,72.0,60.0,74.0,67.0,74,3200.0,square3,j,0.2534,2,S,2.0
S2,45.0,69.0,63.0,76.0,73.0,76,3276.0,square3,j,0.2043,2,S,2.0
S2,46.0,64.0,71.0,75.0,72.0,75,3351.0,square3,j,0.0521,2,S,2.0
S2,47.0,75.0,62.0,75.0,69.0,75,3426.0,square3,j,0.2169,2,S,2.0
S2,48.0,66.0,65.0,74.0,68.0,74,3500.0,square3,j,0.0016,2,S,2.0
S2,49.0,67.0,64.0,72.0,76.0,72,3572.0,square3,j,0.632,2,S,2.0
S9,0.0,36.0,36.0,32.0,32.0,36,36.0,square2,i,0.8471,1,S,9.0
S9,1.0,40.0,29.0,36.0,24.0,36,72.0,square3,r,0.0287,2,S,9.0
S9,2.0,31.0,43.0,22.0,29.0,29,101.0,square4,f,0.0847,3,S,9.0
S9,3.0,41.0,33.0,28.0,27.0,41,142.0,square1,j,0.0233,0,S,9.0
S9,4.0,34.0,29.0,32.0,31.0,34,176.0,square1,j,0.2012,0,S,9.0
S9,5.0,41.0,32.0,22.0,29.0,41,217.0,square1,j,0.0982,0,S,9.0
S9,6.0,44.0,30.0,21.0,28.0,44,261.0,square1,j,0.2155,0,S,9.0
S9,7.0,39.0,37.0,26.0,24.0,37,298.0,square2,i,0.1348,1,S,9.0
S9,8.0,41.0,33.0,23.0,20.0,33,331.0,square2,i,0.1711,1,S,9.0
S9,9.0,30.0,35.0,24.0,27.0,35,366.0,square2,i,0.1588,1,S,9.0
S9,10.0,41.0,29.0,23.0,28.0,29,395.0,square2,i,0.0806,1,S,9.0
S9,11.0,37.0,38.0,22.0,33.0,22,417.0,square3,r,0.0675,2,S,9.0
S9,12.0,35.0,31.0,27.0,32.0,27,444.0,square3,r,0.2341,2,S,9.0
S9,13.0,38.0,37.0,30.0,29.0,30,474.0,square3,r,0.1455,2,S,9.0
S9,14.0,36.0,38.0,30.0,37.0,30,504.0,square3,r,0.1405,2,S,9.0
S9,15.0,40.0,29.0,27.0,24.0,40,544.0,square1,j,0.0007,0,S,9.0
S9,16.0,33.0,37.0,29.0,28.0,33,577.0,square1,j,0.0932,0,S,9.0
S9,17.0,41.0,32.0,36.0,31.0,41,618.0,square1,j,0.0068,0,S,9.0
S9,18.0,39.0,26.0,16.0,35.0,39,657.0,square1,j,0.0285,0,S,9.0
S9,19.0,35.0,30.0,23.0,27.0,35,692.0,square1,j,0.0101,0,S,9.0
S9,20.0,39.0,34.0,23.0,29.0,39,731.0,square1,j,0.1674,0,S,9.0
S9,21.0,35.0,37.0,28.0,31.0,35,766.0,square1,j,0.0838,0,S,9.0
S9,22.0,37.0,30.0,23.0,38.0,30,796.0,square2,i,0.0208,1,S,9.0
S9,23.0,37.0,34.0,27.0,34.0,34,830.0,square2,i,0.1125,1,S,9.0
S9,24.0,31.0,34.0,26.0,27.0,34,864.0,square2,i,0.0469,1,S,9.0
S9,25.0,38.0,40.0,29.0,24.0,40,904.0,square2,i,0.1083,1,S,9.0
S9,26.0,43.0,31.0,21.0,24.0,31,935.0,square2,i,0.1157,1,S,9.0
S9,27.0,30.0,31.0,23.0,28.0,30,965.0,square1,j,0.053,0,S,9.0
S9,28.0,44.0,32.0,31.0,32.0,44,1009.0,square1,j,0.2144,0,S,9.0
S9,29.0,36.0,38.0,22.0,22.0,36,1045.0,square1,j,0.0011,0,S,9.0
S9,30.0,41.0,30.0,26.0,29.0,41,1086.0,square1,j,0.0222,0,S,9.0
S9,31.0,39.0,37.0,30.0,32.0,39,1125.0,square1,j,0.05,0,S,9.0
S9,32.0,35.0,39.0,28.0,31.0,35,1160.0,square1,j,0.2056,0,S,9.0
S9,33.0,37.0,39.0,29.0,32.0,37,1197.0,square1,j,0.1973,0,S,9.0
S9,34.0,46.0,33.0,21.0,25.0,46,1243.0,square1,j,0.2316,0,S,9.0
S9,35.0,38.0,33.0,28.0,28.0,38,1281.0,square1,j,0.0009,0,S,9.0
S9,36.0,40.0,37.0,21.0,32.0,40,1321.0,square1,j,0.1851,0,S,9.0
S9,37.0,38.0,43.0,23.0,37.0,38,1359.0,square1,j,0.1136,0,S,9.0
S9,38.0,36.0,31.0,29.0,29.0,36,1395.0,square1,j,0.0228,0,S,9.0
S9,39.0,41.0,29.0,26.0,28.0,41,1436.0,square1,j,0.0909,0,S,9.0
S9,40.0,32.0,36.0,26.0,28.0,32,1468.0,square1,j,0.0014,0,S,9.0
S9,41.0,40.0,37.0,35.0,28.0,40,1508.0,square1,j,0.0622,0,S,9.0
S9,42.0,43.0,32.0,26.0,37.0,43,1551.0,square1,j,0.0232,0,S,9.0
S9,43.0,40.0,31.0,23.0,31.0,40,1591.0,square1,j,0.1299,0,S,9.0
S9,44.0,42.0,38.0,24.0,40.0,42,1633.0,square1,j,0.0259,0,S,9.0
S9,45.0,36.0,35.0,30.0,33.0,36,1669.0,square1,j,0.2279,0,S,9.0
S9,46.0,38.0,30.0,33.0,26.0,38,1707.0,square1,j,0.3994,0,S,9.0
S9,47.0,39.0,37.0,25.0,26.0,39,1746.0,square1,j,0.1877,0,S,9.0
S9,48.0,36.0,35.0,26.0,27.0,36,1782.0,square1,j,0.0011,0,S,9.0
S9,49.0,40.0,32.0,24.0,28.0,40,1822.0,square1,j,0.0006,0,S,9.0
S3,0.0,38.0,48.0,42.0,57.0,38,38.0,square1,r,0.6394,0,S,3.0
S3,1.0,29.0,43.0,51.0,57.0,57,95.0,square4,i,0.49,3,S,3.0
S3,2.0,41.0,49.0,46.0,49.0,49,144.0,square2,j,0.4165,1,S,3.0
S3,3.0,44.0,50.0,45.0,52.0,45,189.0,square3,f,0.2339,2,S,3.0
S3,4.0,37.0,51.0,45.0,58.0,45,234.0,square3,f,0.0387,2,S,3.0
S3,5.0,47.0,43.0,42.0,49.0,42,276.0,square3,f,0.166,2,S,3.0
S3,6.0,44.0,53.0,51.0,58.0,51,327.0,square3,f,0.0017,2,S,3.0
S3,7.0,39.0,47.0,46.0,54.0,47,374.0,square2,j,0.1785,1,S,3.0
S3,8.0,43.0,53.0,41.0,52.0,53,427.0,square2,j,0.0094,1,S,3.0
S3,9.0,42.0,46.0,41.0,53.0,46,473.0,square2,j,0.1322,1,S,3.0
S3,10.0,37.0,49.0,49.0,55.0,49,522.0,square2,j,0.1148,1,S,3.0
S3,11.0,40.0,47.0,36.0,59.0,59,581.0,square4,i,0.0491,3,S,3.0
S3,12.0,46.0,51.0,39.0,56.0,56,637.0,square4,i,0.2354,3,S,3.0
S3,13.0,39.0,48.0,45.0,57.0,57,694.0,square4,i,0.1757,3,S,3.0
S3,14.0,39.0,55.0,43.0,47.0,47,741.0,square4,i,0.1673,3,S,3.0
S3,15.0,46.0,46.0,47.0,52.0,52,793.0,square4,i,0.2341,3,S,3.0
S3,16.0,42.0,49.0,50.0,55.0,55,848.0,square4,i,0.0007,3,S,3.0
S3,17.0,45.0,45.0,56.0,47.0,47,895.0,square4,i,0.4169,3,S,3.0
S3,18.0,46.0,43.0,45.0,50.0,50,945.0,square4,i,0.4315,3,S,3.0
S3,19.0,41.0,47.0,50.0,55.0,55,1000.0,square4,i,0.2492,3,S,3.0
S3,20.0,45.0,52.0,49.0,52.0,52,1052.0,square4,i,0.1208,3,S,3.0
S3,21.0,40.0,43.0,47.0,46.0,46,1098.0,square4,i,0.1666,3,S,3.0
S3,22.0,45.0,46.0,44.0,47.0,47,1145.0,square4,i,0.1606,3,S,3.0
S3,23.0,36.0,50.0,42.0,46.0,46,1191.0,square4,i,0.1667,3,S,3.0
S3,24.0,42.0,54.0,49.0,55.0,42,1233.0,square1,r,0.1328,0,S,3.0
S3,25.0,43.0,51.0,44.0,54.0,43,1276.0,square1,r,0.1965,0,S,3.0
S3,26.0,49.0,50.0,52.0,52.0,49,1325.0,square1,r,0.2146,0,S,3.0
S3,27.0,47.0,52.0,44.0,50.0,47,1372.0,square1,r,0.1338,0,S,3.0
S3,28.0,37.0,48.0,40.0,47.0,40,1412.0,square3,f,0.1669,2,S,3.0
S3,29.0,50.0,43.0,50.0,57.0,50,1462.0,square3,f,0.1005,2,S,3.0
S3,30.0,50.0,50.0,46.0,47.0,46,1508.0,square3,f,0.2481,2,S,3.0
S3,31.0,37.0,53.0,49.0,56.0,49,1557.0,square3,f,0.0455,2,S,3.0
S3,32.0,42.0,50.0,43.0,58.0,50,1607.0,square2,j,0.2358,1,S,3.0
S3,33.0,44.0,49.0,46.0,59.0,49,1656.0,square2,j,0.0795,1,S,3.0
S3,34.0,42.0,50.0,50.0,58.0,50,1706.0,square2,j,0.0016,1,S,3.0
S3,35.0,43.0,46.0,45.0,50.0,46,1752.0,square2,j,0.1692,1,S,3.0
S3,36.0,46.0,52.0,50.0,48.0,52,1804.0,square2,j,0.0525,1,S,3.0
S3,37.0,48.0,50.0,49.0,52.0,50,1854.0,square2,j,0.1512,1,S,3.0
S3,38.0,39.0,43.0,50.0,55.0,55,1909.0,square4,i,0.9577,3,S,3.0
S3,39.0,50.0,53.0,46.0,57.0,57,1966.0,square4,i,0.2499,3,S,3.0
S3,40.0,41.0,46.0,48.0,55.0,55,2021.0,square4,i,0.0198,3,S,3.0
S3,41.0,49.0,49.0,40.0,56.0,56,2077.0,square4,i,0.0628,3,S,3.0
S3,42.0,47.0,49.0,43.0,48.0,48,2125.0,square4,i,0.1166,3,S,3.0
S3,43.0,46.0,43.0,41.0,58.0,58,2183.0,square4,i,0.5941,3,S,3.0
S3,44.0,46.0,52.0,51.0,55.0,55,2238.0,square4,i,0.3339,3,S,3.0
S3,45.0,46.0,41.0,46.0,49.0,49,2287.0,square4,i,0.0509,3,S,3.0
S3,46.0,32.0,56.0,40.0,50.0,50,2337.0,square4,i,0.2885,3,S,3.0
S3,47.0,42.0,49.0,44.0,51.0,51,2388.0,square4,i,1.3058,3,S,3.0
S3,48.0,36.0,45.0,38.0,50.0,50,2438.0,square4,i,0.2508,3,S,3.0
S3,49.0,45.0,48.0,47.0,52.0,52,2490.0,square4,i,0.3726,3,S,3.0
S8,0.0,58.0,60.0,52.0,45.0,60,60.0,square2,r,0.7718,1,S,8.0
S8,1.0,55.0,57.0,56.0,52.0,55,115.0,square1,i,0.1146,0,S,8.0
S8,2.0,54.0,58.0,58.0,49.0,58,173.0,square3,j,0.0467,2,S,8.0
S8,3.0,55.0,62.0,52.0,53.0,53,226.0,square4,f,0.6539,3,S,8.0
S8,4.0,55.0,60.0,49.0,51.0,60,286.0,square2,r,0.1,1,S,8.0
S8,5.0,48.0,63.0,61.0,49.0,63,349.0,square2,r,0.1818,1,S,8.0
S8,6.0,58.0,63.0,59.0,55.0,63,412.0,square2,r,0.214,1,S,8.0
S8,7.0,56.0,53.0,49.0,51.0,53,465.0,square2,r,0.0501,1,S,8.0
S8,8.0,61.0,63.0,66.0,49.0,63,528.0,square2,r,0.2288,1,S,8.0
S8,9.0,60.0,59.0,53.0,47.0,53,581.0,square3,j,0.0088,2,S,8.0
S8,10.0,55.0,63.0,52.0,55.0,52,633.0,square3,j,0.2079,2,S,8.0
S8,11.0,62.0,60.0,54.0,50.0,54,687.0,square3,j,0.015,2,S,8.0
S8,12.0,58.0,64.0,51.0,52.0,51,738.0,square3,j,0.1333,2,S,8.0
S8,13.0,62.0,59.0,53.0,53.0,62,800.0,square1,i,0.1605,0,S,8.0
S8,14.0,51.0,62.0,61.0,54.0,51,851.0,square1,i,0.0013,0,S,8.0
S8,15.0,56.0,68.0,56.0,50.0,56,907.0,square1,i,0.0012,0,S,8.0
S8,16.0,58.0,64.0,56.0,50.0,58,965.0,square1,i,0.2004,0,S,8.0
S8,17.0,64.0,63.0,60.0,42.0,42,1007.0,square4,f,0.0328,3,S,8.0
S8,18.0,54.0,64.0,57.0,55.0,64,1071.0,square2,r,0.2556,1,S,8.0
S8,19.0,56.0,53.0,57.0,53.0,53,1124.0,square2,r,0.0091,1,S,8.0
S8,20.0,59.0,64.0,56.0,49.0,64,1188.0,square2,r,0.2669,1,S,8.0
S8,21.0,54.0,59.0,55.0,48.0,59,1247.0,square2,r,0.2368,1,S,8.0
S8,22.0,63.0,63.0,59.0,49.0,63,1310.0,square2,r,0.0457,1,S,8.0
S8,23.0,59.0,60.0,48.0,52.0,60,1370.0,square2,r,0.1127,1,S,8.0
S8,24.0,55.0,53.0,60.0,50.0,53,1423.0,square2,r,0.2838,1,S,8.0
S8,25.0,57.0,60.0,55.0,54.0,60,1483.0,square2,r,0.1508,1,S,8.0
S8,26.0,62.0,66.0,57.0,58.0,66,1549.0,square2,r,0.2152,1,S,8.0
S8,27.0,58.0,55.0,52.0,48.0,55,1604.0,square2,r,0.0089,1,S,8.0
S8,28.0,53.0,59.0,53.0,55.0,59,1663.0,square2,r,0.1034,1,S,8.0
S8,29.0,60.0,58.0,57.0,53.0,58,1721.0,square2,r,0.2202,1,S,8.0
S8,30.0,57.0,67.0,52.0,56.0,67,1788.0,square2,r,0.1142,1,S,8.0
S8,31.0,60.0,58.0,52.0,50.0,58,1846.0,square2,r,0.1543,1,S,8.0
S8,32.0,54.0,61.0,56.0,57.0,61,1907.0,square2,r,0.1641,1,S,8.0
S8,33.0,66.0,64.0,63.0,52.0,64,1971.0,square2,r,0.0961,1,S,8.0
S8,34.0,54.0,65.0,66.0,56.0,65,2036.0,square2,r,0.1403,1,S,8.0
S8,35.0,54.0,62.0,61.0,48.0,62,2098.0,square2,r,0.0007,1,S,8.0
S8,36.0,53.0,63.0,54.0,55.0,63,2161.0,square2,r,0.0007,1,S,8.0
S8,37.0,64.0,58.0,57.0,51.0,58,2219.0,square2,r,0.1002,1,S,8.0
S8,38.0,68.0,65.0,59.0,57.0,65,2284.0,square2,r,0.117,1,S,8.0
S8,39.0,64.0,65.0,51.0,55.0,65,2349.0,square2,r,0.246,1,S,8.0
S8,40.0,63.0,61.0,57.0,47.0,61,2410.0,square2,r,0.2943,1,S,8.0
S8,41.0,65.0,58.0,55.0,49.0,58,2468.0,square2,r,0.0973,1,S,8.0
S8,42.0,52.0,60.0,51.0,56.0,60,2528.0,square2,r,0.0599,1,S,8.0
S8,43.0,63.0,57.0,48.0,50.0,57,2585.0,square2,r,0.3331,1,S,8.0
S8,44.0,59.0,63.0,53.0,53.0,63,2648.0,square2,r,0.2465,1,S,8.0
S8,45.0,62.0,62.0,60.0,53.0,62,2710.0,square2,r,0.4483,1,S,8.0
S8,46.0,56.0,62.0,57.0,60.0,62,2772.0,square2,r,0.1644,1,S,8.0
S8,47.0,60.0,63.0,58.0,56.0,63,2835.0,square2,r,0.2127,1,S,8.0
S8,48.0,59.0,63.0,49.0,53.0,63,2898.0,square2,r,0.2177,1,S,8.0
S8,49.0,67.0,67.0,59.0,55.0,67,2965.0,square2,r,0.0634,1,S,8.0
