block,Trial,square1,square2,square3,square4,currPoints,totalPoints,square,choiceKey.keys,choiceKey.rt,armNum,blockType,blockNum
prac,0.0,100.0,0.0,0.0,0.0,0.0,0.0,square2,,,1,p,0.0
prac,1.0,100.0,0.0,0.0,0.0,0.0,0.0,square4,,,3,p,0.0
prac,2.0,100.0,0.0,0.0,0.0,0.0,0.0,square3,,,2,p,0.0
prac,3.0,100.0,0.0,0.0,0.0,100.0,100.0,square1,,,0,p,0.0
prac,4.0,100.0,0.0,0.0,0.0,100.0,200.0,square1,,,0,p,0.0
prac,5.0,100.0,0.0,0.0,0.0,100.0,300.0,square1,,,0,p,0.0
prac,6.0,100.0,0.0,0.0,0.0,100.0,400.0,square1,,,0,p,0.0
prac,7.0,100.0,0.0,0.0,0.0,100.0,500.0,square1,,,0,p,0.0
prac,8.0,100.0,0.0,0.0,0.0,100.0,600.0,square1,,,0,p,0.0
prac,9.0,100.0,0.0,0.0,0.0,100.0,700.0,square1,,,0,p,0.0
S6,0.0,40.0,29.0,39.0,26.0,39.0,39.0,square3,f,0.494,2,S,6.0
S6,1.0,34.0,40.0,31.0,25.0,34.0,73.0,square1,r,0.096,0,S,6.0
S6,2.0,37.0,31.0,25.0,30.0,31.0,104.0,square2,i,0.043,1,S,6.0
S6,3.0,39.0,37.0,30.0,27.0,27.0,131.0,square4,j,0.13,3,S,6.0
S6,4.0,42.0,40.0,28.0,32.0,28.0,159.0,square3,f,0.045,2,S,6.0
S6,5.0,35.0,35.0,39.0,29.0,35.0,194.0,square1,r,0.046,0,S,6.0
S6,6.0,48.0,30.0,37.0,33.0,30.0,224.0,square2,i,0.076,1,S,6.0
S6,7.0,47.0,34.0,31.0,29.0,29.0,253.0,square4,j,0.015,3,S,6.0
S6,8.0,43.0,35.0,30.0,25.0,43.0,296.0,square1,r,0.065,0,S,6.0
S6,9.0,36.0,38.0,35.0,35.0,36.0,332.0,square1,r,0.045,0,S,6.0
S6,10.0,38.0,35.0,31.0,21.0,38.0,370.0,square1,r,0.077,0,S,6.0
S6,11.0,30.0,36.0,31.0,20.0,30.0,400.0,square1,r,0.07,0,S,6.0
S6,12.0,37.0,40.0,33.0,22.0,33.0,433.0,square3,f,0.028,2,S,6.0
S6,13.0,32.0,41.0,35.0,29.0,41.0,474.0,square2,i,0.081,1,S,6.0
S6,14.0,41.0,29.0,30.0,32.0,32.0,506.0,square4,j,0.149,3,S,6.0
S6,15.0,43.0,37.0,31.0,27.0,31.0,537.0,square3,f,0.029,2,S,6.0
S6,16.0,34.0,34.0,35.0,31.0,34.0,571.0,square2,i,0.151,1,S,6.0
S6,17.0,47.0,40.0,29.0,28.0,47.0,618.0,square1,r,0.046,0,S,6.0
S6,18.0,37.0,38.0,34.0,35.0,37.0,655.0,square1,r,0.048,0,S,6.0
S6,19.0,36.0,39.0,31.0,26.0,31.0,686.0,square3,f,0.03,2,S,6.0
S6,20.0,44.0,40.0,31.0,25.0,40.0,726.0,square2,i,0.059,1,S,6.0
S6,21.0,39.0,41.0,35.0,24.0,24.0,750.0,square4,j,0.049,3,S,6.0
S6,22.0,41.0,38.0,41.0,31.0,41.0,791.0,square1,r,0.051,0,S,6.0
S6,23.0,37.0,31.0,30.0,32.0,30.0,821.0,square3,f,0.002,2,S,6.0
S6,24.0,48.0,34.0,34.0,21.0,48.0,869.0,square1,r,0.096,0,S,6.0
S6,25.0,42.0,45.0,26.0,29.0,45.0,914.0,square2,i,0.034,1,S,6.0
S6,26.0,40.0,39.0,36.0,28.0,40.0,954.0,square1,r,0.066,0,S,6.0
S6,27.0,42.0,33.0,29.0,29.0,33.0,987.0,square2,i,0.044,1,S,6.0
S6,28.0,41.0,30.0,29.0,29.0,41.0,1028.0,square1,r,0.026,0,S,6.0
S6,29.0,42.0,40.0,32.0,27.0,32.0,1060.0,square3,f,0.123,2,S,6.0
S6,30.0,42.0,36.0,30.0,26.0,26.0,1086.0,square4,j,0.095,3,S,6.0
S6,31.0,42.0,34.0,35.0,29.0,42.0,1128.0,square1,r,0.147,0,S,6.0
S6,32.0,35.0,36.0,31.0,23.0,36.0,1164.0,square2,i,0.117,1,S,6.0
S6,33.0,35.0,31.0,35.0,30.0,35.0,1199.0,square1,r,0.054,0,S,6.0
S6,34.0,40.0,38.0,31.0,27.0,40.0,1239.0,square1,r,0.028,0,S,6.0
S6,35.0,42.0,37.0,34.0,34.0,42.0,1281.0,square1,r,0.115,0,S,6.0
S6,36.0,37.0,46.0,31.0,34.0,37.0,1318.0,square1,r,0.001,0,S,6.0
S6,37.0,38.0,40.0,30.0,26.0,38.0,1356.0,square1,r,0.014,0,S,6.0
S6,38.0,36.0,34.0,31.0,33.0,36.0,1392.0,square1,r,0.088,0,S,6.0
S6,39.0,44.0,37.0,33.0,31.0,37.0,1429.0,square2,i,0.048,1,S,6.0
S6,40.0,40.0,38.0,31.0,25.0,31.0,1460.0,square3,f,0.148,2,S,6.0
S6,41.0,49.0,35.0,35.0,28.0,28.0,1488.0,square4,j,0.065,3,S,6.0
S6,42.0,44.0,40.0,32.0,28.0,40.0,1528.0,square2,i,0.066,1,S,6.0
S6,43.0,43.0,36.0,33.0,26.0,43.0,1571.0,square1,r,0.064,0,S,6.0
S6,44.0,38.0,33.0,34.0,26.0,38.0,1609.0,square1,r,0.064,0,S,6.0
S6,45.0,32.0,35.0,30.0,28.0,32.0,1641.0,square1,r,0.016,0,S,6.0
S6,46.0,38.0,36.0,34.0,30.0,38.0,1679.0,square1,r,0.159,0,S,6.0
S6,47.0,44.0,35.0,32.0,31.0,32.0,1711.0,square3,f,0.131,2,S,6.0
S6,48.0,40.0,40.0,31.0,33.0,40.0,1751.0,square2,i,0.15,1,S,6.0
S6,49.0,41.0,29.0,29.0,29.0,29.0,1780.0,square4,j,0.078,3,S,6.0
S1,0.0,72.0,58.0,70.0,66.0,70.0,70.0,square3,r,1.658,2,S,1.0
S1,1.0,75.0,64.0,66.0,69.0,75.0,145.0,square1,i,0.06,0,S,1.0
S1,2.0,75.0,62.0,62.0,79.0,79.0,224.0,square4,f,0.082,3,S,1.0
S1,3.0,68.0,62.0,63.0,69.0,62.0,286.0,square2,j,0.017,1,S,1.0
S1,4.0,82.0,63.0,64.0,73.0,73.0,359.0,square4,f,0.094,3,S,1.0
S1,5.0,66.0,70.0,65.0,73.0,65.0,424.0,square3,r,0.002,2,S,1.0
S1,6.0,73.0,65.0,62.0,65.0,73.0,497.0,square1,i,0.135,0,S,1.0
S1,7.0,70.0,61.0,65.0,66.0,66.0,563.0,square4,f,0.13,3,S,1.0
S1,8.0,78.0,63.0,67.0,68.0,63.0,626.0,square2,j,0.037,1,S,1.0
S1,9.0,74.0,67.0,66.0,68.0,74.0,700.0,square1,i,0.061,0,S,1.0
S1,10.0,73.0,59.0,68.0,68.0,68.0,768.0,square3,r,0.094,2,S,1.0
S1,11.0,76.0,65.0,62.0,81.0,81.0,849.0,square4,f,0.147,3,S,1.0
S1,12.0,77.0,66.0,69.0,63.0,66.0,915.0,square2,j,0.011,1,S,1.0
S1,13.0,75.0,63.0,68.0,73.0,73.0,988.0,square4,f,0.13,3,S,1.0
S1,14.0,67.0,60.0,67.0,69.0,67.0,1055.0,square1,i,0.001,0,S,1.0
S1,15.0,70.0,63.0,69.0,73.0,73.0,1128.0,square4,f,0.013,3,S,1.0
S1,16.0,69.0,61.0,69.0,69.0,69.0,1197.0,square1,i,0.052,0,S,1.0
S1,17.0,73.0,68.0,67.0,73.0,73.0,1270.0,square4,f,0.098,3,S,1.0
S1,18.0,70.0,58.0,73.0,66.0,66.0,1336.0,square4,f,0.113,3,S,1.0
S1,19.0,75.0,58.0,62.0,68.0,68.0,1404.0,square4,f,0.012,3,S,1.0
S1,20.0,76.0,58.0,72.0,67.0,67.0,1471.0,square4,f,0.009,3,S,1.0
S1,21.0,69.0,66.0,66.0,67.0,67.0,1538.0,square4,f,0.609,3,S,1.0
S1,22.0,70.0,68.0,65.0,65.0,65.0,1603.0,square3,r,0.001,2,S,1.0
S1,23.0,71.0,60.0,64.0,64.0,71.0,1674.0,square1,i,0.03,0,S,1.0
S1,24.0,70.0,72.0,62.0,67.0,67.0,1741.0,square4,f,0.065,3,S,1.0
S1,25.0,68.0,60.0,70.0,65.0,60.0,1801.0,square2,j,0.077,1,S,1.0
S1,26.0,76.0,64.0,72.0,69.0,69.0,1870.0,square4,f,0.115,3,S,1.0
S1,27.0,71.0,56.0,70.0,65.0,65.0,1935.0,square4,f,0.126,3,S,1.0
S1,28.0,67.0,67.0,71.0,76.0,76.0,2011.0,square4,f,0.103,3,S,1.0
S1,29.0,78.0,64.0,64.0,74.0,74.0,2085.0,square4,f,0.16,3,S,1.0
S1,30.0,74.0,63.0,65.0,71.0,71.0,2156.0,square4,f,0.053,3,S,1.0
S1,31.0,78.0,58.0,69.0,69.0,69.0,2225.0,square4,f,0.163,3,S,1.0
S1,32.0,71.0,67.0,68.0,60.0,60.0,2285.0,square4,f,0.001,3,S,1.0
S1,33.0,68.0,63.0,65.0,73.0,73.0,2358.0,square4,f,0.132,3,S,1.0
S1,34.0,71.0,62.0,74.0,73.0,73.0,2431.0,square4,f,0.13,3,S,1.0
S1,35.0,75.0,59.0,67.0,77.0,77.0,2508.0,square4,f,0.149,3,S,1.0
S1,36.0,77.0,60.0,66.0,67.0,67.0,2575.0,square4,f,0.201,3,S,1.0
S1,37.0,69.0,60.0,69.0,75.0,75.0,2650.0,square4,f,0.097,3,S,1.0
S1,38.0,77.0,64.0,62.0,70.0,70.0,2720.0,square4,f,0.197,3,S,1.0
S1,39.0,72.0,66.0,69.0,65.0,65.0,2785.0,square4,f,0.17,3,S,1.0
S1,40.0,69.0,63.0,66.0,69.0,69.0,2854.0,square4,f,0.185,3,S,1.0
S1,41.0,72.0,62.0,70.0,70.0,70.0,2924.0,square4,f,0.082,3,S,1.0
S1,42.0,78.0,60.0,63.0,62.0,62.0,2986.0,square4,f,0.002,3,S,1.0
S1,43.0,71.0,62.0,67.0,73.0,73.0,3059.0,square4,f,0.129,3,S,1.0
S1,44.0,75.0,63.0,69.0,73.0,69.0,3128.0,square3,r,0.002,2,S,1.0
S1,45.0,66.0,60.0,68.0,73.0,66.0,3194.0,square1,i,0.073,0,S,1.0
S1,46.0,74.0,67.0,69.0,71.0,67.0,3261.0,square2,j,0.063,1,S,1.0
S1,47.0,71.0,66.0,68.0,70.0,70.0,3331.0,square4,f,0.182,3,S,1.0
S1,48.0,72.0,75.0,71.0,77.0,77.0,3408.0,square4,f,0.027,3,S,1.0
S1,49.0,65.0,57.0,66.0,75.0,75.0,3483.0,square4,f,0.034,3,S,1.0
S4,0.0,18.0,16.0,34.0,20.0,18.0,18.0,square1,r,0.364,0,S,4.0
S4,1.0,33.0,26.0,26.0,23.0,26.0,44.0,square2,i,0.134,1,S,4.0
S4,2.0,35.0,15.0,33.0,22.0,22.0,66.0,square4,j,0.047,3,S,4.0
S4,3.0,28.0,19.0,27.0,27.0,27.0,93.0,square3,f,0.012,2,S,4.0
S4,4.0,27.0,16.0,25.0,28.0,16.0,109.0,square2,i,0.001,1,S,4.0
S4,5.0,23.0,22.0,31.0,24.0,31.0,140.0,square3,f,0.008,2,S,4.0
S4,6.0,25.0,20.0,34.0,23.0,34.0,174.0,square3,f,0.041,2,S,4.0
S4,7.0,21.0,22.0,30.0,21.0,30.0,204.0,square3,f,0.064,2,S,4.0
S4,8.0,33.0,24.0,33.0,17.0,33.0,237.0,square3,f,0.056,2,S,4.0
S4,9.0,24.0,18.0,31.0,28.0,31.0,268.0,square3,f,0.094,2,S,4.0
S4,10.0,31.0,26.0,35.0,20.0,35.0,303.0,square3,f,0.014,2,S,4.0
S4,11.0,25.0,15.0,31.0,25.0,31.0,334.0,square3,f,0.07,2,S,4.0
S4,12.0,24.0,16.0,29.0,22.0,29.0,363.0,square3,f,0.093,2,S,4.0
S4,13.0,28.0,23.0,25.0,17.0,25.0,388.0,square3,f,0.145,2,S,4.0
S4,14.0,22.0,23.0,21.0,23.0,21.0,409.0,square3,f,0.113,2,S,4.0
S4,15.0,25.0,19.0,28.0,25.0,28.0,437.0,square3,f,0.061,2,S,4.0
S4,16.0,26.0,17.0,30.0,21.0,30.0,467.0,square3,f,0.142,2,S,4.0
S4,17.0,22.0,21.0,29.0,22.0,29.0,496.0,square3,f,0.083,2,S,4.0
S4,18.0,28.0,22.0,32.0,22.0,32.0,528.0,square3,f,0.002,2,S,4.0
S4,19.0,26.0,19.0,31.0,26.0,31.0,559.0,square3,f,0.061,2,S,4.0
S4,20.0,28.0,18.0,28.0,25.0,28.0,587.0,square3,f,0.079,2,S,4.0
S4,21.0,33.0,26.0,21.0,29.0,21.0,608.0,square3,f,0.23,2,S,4.0
S4,22.0,31.0,19.0,29.0,20.0,29.0,637.0,square3,f,0.066,2,S,4.0
S4,23.0,27.0,21.0,36.0,26.0,36.0,673.0,square3,f,0.034,2,S,4.0
S4,24.0,28.0,15.0,32.0,21.0,32.0,705.0,square3,f,0.097,2,S,4.0
S4,25.0,27.0,18.0,28.0,25.0,28.0,733.0,square3,f,0.084,2,S,4.0
S4,26.0,26.0,20.0,27.0,14.0,27.0,760.0,square3,f,0.076,2,S,4.0
S4,27.0,28.0,19.0,36.0,18.0,36.0,796.0,square3,f,0.114,2,S,4.0
S4,28.0,28.0,19.0,28.0,23.0,28.0,824.0,square3,f,0.215,2,S,4.0
S4,29.0,25.0,22.0,29.0,23.0,29.0,853.0,square3,f,0.064,2,S,4.0
S4,30.0,26.0,16.0,30.0,20.0,30.0,883.0,square3,f,0.113,2,S,4.0
S4,31.0,23.0,25.0,26.0,30.0,26.0,909.0,square3,f,0.064,2,S,4.0
S4,32.0,21.0,26.0,22.0,23.0,22.0,931.0,square3,f,0.065,2,S,4.0
S4,33.0,25.0,22.0,24.0,17.0,24.0,955.0,square3,f,0.1,2,S,4.0
S4,34.0,30.0,22.0,33.0,24.0,33.0,988.0,square3,f,0.126,2,S,4.0
S4,35.0,23.0,21.0,35.0,26.0,35.0,1023.0,square3,f,0.028,2,S,4.0
S4,36.0,19.0,21.0,33.0,24.0,33.0,1056.0,square3,f,0.047,2,S,4.0
S4,37.0,20.0,17.0,26.0,26.0,26.0,1082.0,square3,f,0.03,2,S,4.0
S4,38.0,28.0,20.0,28.0,26.0,28.0,1110.0,square3,f,0.045,2,S,4.0
S4,39.0,28.0,23.0,40.0,27.0,40.0,1150.0,square3,f,0.164,2,S,4.0
S4,40.0,25.0,24.0,32.0,22.0,32.0,1182.0,square3,f,0.163,2,S,4.0
S4,41.0,23.0,23.0,26.0,17.0,26.0,1208.0,square3,f,0.13,2,S,4.0
S4,42.0,26.0,18.0,33.0,22.0,33.0,1241.0,square3,f,0.097,2,S,4.0
S4,43.0,22.0,21.0,36.0,25.0,36.0,1277.0,square3,f,0.048,2,S,4.0
S4,44.0,21.0,18.0,33.0,14.0,33.0,1310.0,square3,f,0.166,2,S,4.0
S4,45.0,29.0,19.0,30.0,29.0,30.0,1340.0,square3,f,0.159,2,S,4.0
S4,46.0,21.0,16.0,22.0,23.0,22.0,1362.0,square3,f,0.004,2,S,4.0
S4,47.0,22.0,18.0,28.0,22.0,28.0,1390.0,square3,f,0.312,2,S,4.0
S4,48.0,33.0,21.0,32.0,26.0,32.0,1422.0,square3,f,0.128,2,S,4.0
S4,49.0,23.0,17.0,20.0,21.0,20.0,1442.0,square3,f,0.132,2,S,4.0
S8,0.0,58.0,60.0,52.0,45.0,45.0,45.0,square4,r,1.074,3,S,8.0
S8,1.0,55.0,57.0,56.0,52.0,56.0,101.0,square3,i,0.001,2,S,8.0
S8,2.0,54.0,58.0,58.0,49.0,58.0,159.0,square2,j,0.146,1,S,8.0
S8,3.0,55.0,62.0,52.0,53.0,55.0,214.0,square1,f,0.096,0,S,8.0
S8,4.0,55.0,60.0,49.0,51.0,60.0,274.0,square2,j,0.092,1,S,8.0
S8,5.0,48.0,63.0,61.0,49.0,61.0,335.0,square3,i,0.018,2,S,8.0
S8,6.0,58.0,63.0,59.0,55.0,63.0,398.0,square2,j,0.029,1,S,8.0
S8,7.0,56.0,53.0,49.0,51.0,49.0,447.0,square3,i,0.095,2,S,8.0
S8,8.0,61.0,63.0,66.0,49.0,63.0,510.0,square2,j,0.116,1,S,8.0
S8,9.0,60.0,59.0,53.0,47.0,59.0,569.0,square2,j,0.075,1,S,8.0
S8,10.0,55.0,63.0,52.0,55.0,55.0,624.0,square1,f,0.001,0,S,8.0
S8,11.0,62.0,60.0,54.0,50.0,50.0,674.0,square4,r,0.102,3,S,8.0
S8,12.0,58.0,64.0,51.0,52.0,51.0,725.0,square3,i,0.114,2,S,8.0
S8,13.0,62.0,59.0,53.0,53.0,59.0,784.0,square2,j,0.012,1,S,8.0
S8,14.0,51.0,62.0,61.0,54.0,62.0,846.0,square2,j,0.029,1,S,8.0
S8,15.0,56.0,68.0,56.0,50.0,68.0,914.0,square2,j,0.001,1,S,8.0
S8,16.0,58.0,64.0,56.0,50.0,64.0,978.0,square2,j,0.028,1,S,8.0
S8,17.0,64.0,63.0,60.0,42.0,63.0,1041.0,square2,j,0.028,1,S,8.0
S8,18.0,54.0,64.0,57.0,55.0,64.0,1105.0,square2,j,0.031,1,S,8.0
S8,19.0,56.0,53.0,57.0,53.0,53.0,1158.0,square2,j,0.153,1,S,8.0
S8,20.0,59.0,64.0,56.0,49.0,64.0,1222.0,square2,j,0.345,1,S,8.0
S8,21.0,54.0,59.0,55.0,48.0,59.0,1281.0,square2,j,0.132,1,S,8.0
S8,22.0,63.0,63.0,59.0,49.0,63.0,1344.0,square2,j,0.035,1,S,8.0
S8,23.0,59.0,60.0,48.0,52.0,60.0,1404.0,square2,j,0.068,1,S,8.0
S8,24.0,55.0,53.0,60.0,50.0,53.0,1457.0,square2,j,0.102,1,S,8.0
S8,25.0,57.0,60.0,55.0,54.0,60.0,1517.0,square2,j,0.002,1,S,8.0
S8,26.0,62.0,66.0,57.0,58.0,66.0,1583.0,square2,j,0.166,1,S,8.0
S8,27.0,58.0,55.0,52.0,48.0,55.0,1638.0,square2,j,0.129,1,S,8.0
S8,28.0,53.0,59.0,53.0,55.0,59.0,1697.0,square2,j,0.099,1,S,8.0
S8,29.0,60.0,58.0,57.0,53.0,58.0,1755.0,square2,j,0.176,1,S,8.0
S8,30.0,57.0,67.0,52.0,56.0,67.0,1822.0,square2,j,0.151,1,S,8.0
S8,31.0,60.0,58.0,52.0,50.0,58.0,1880.0,square2,j,0.131,1,S,8.0
S8,32.0,54.0,61.0,56.0,57.0,61.0,1941.0,square2,j,0.176,1,S,8.0
S8,33.0,66.0,64.0,63.0,52.0,64.0,2005.0,square2,j,0.1,1,S,8.0
S8,34.0,54.0,65.0,66.0,56.0,65.0,2070.0,square2,j,0.113,1,S,8.0
S8,35.0,54.0,62.0,61.0,48.0,62.0,2132.0,square2,j,0.145,1,S,8.0
S8,36.0,53.0,63.0,54.0,55.0,63.0,2195.0,square2,j,0.15,1,S,8.0
S8,37.0,64.0,58.0,57.0,51.0,58.0,2253.0,square2,j,0.187,1,S,8.0
S8,38.0,68.0,65.0,59.0,57.0,65.0,2318.0,square2,j,0.146,1,S,8.0
S8,39.0,64.0,65.0,51.0,55.0,65.0,2383.0,square2,j,0.045,1,S,8.0
S8,40.0,63.0,61.0,57.0,47.0,61.0,2444.0,square2,j,0.094,1,S,8.0
S8,41.0,65.0,58.0,55.0,49.0,58.0,2502.0,square2,j,0.101,1,S,8.0
S8,42.0,52.0,60.0,51.0,56.0,60.0,2562.0,square2,j,0.012,1,S,8.0
S8,43.0,63.0,57.0,48.0,50.0,57.0,2619.0,square2,j,0.046,1,S,8.0
S8,44.0,59.0,63.0,53.0,53.0,63.0,2682.0,square2,j,0.234,1,S,8.0
S8,45.0,62.0,62.0,60.0,53.0,62.0,2744.0,square2,j,0.148,1,S,8.0
S8,46.0,56.0,62.0,57.0,60.0,62.0,2806.0,square2,j,0.201,1,S,8.0
S8,47.0,60.0,63.0,58.0,56.0,63.0,2869.0,square2,j,0.081,1,S,8.0
S8,48.0,59.0,63.0,49.0,53.0,63.0,2932.0,square2,j,0.164,1,S,8.0
S8,49.0,67.0,67.0,59.0,55.0,67.0,2999.0,square2,j,0.093,1,S,8.0
S12,0.0,38.0,42.0,30.0,42.0,30.0,30.0,square3,j,1.14,2,S,12.0
S12,1.0,30.0,42.0,28.0,37.0,42.0,72.0,square2,f,0.117,1,S,12.0
S12,2.0,34.0,41.0,38.0,43.0,34.0,106.0,square1,r,0.066,0,S,12.0
S12,3.0,38.0,51.0,38.0,38.0,38.0,144.0,square4,i,0.14,3,S,12.0
S12,4.0,32.0,37.0,33.0,45.0,37.0,181.0,square2,f,0.012,1,S,12.0
S12,5.0,38.0,52.0,36.0,35.0,35.0,216.0,square4,i,0.078,3,S,12.0
S12,6.0,30.0,43.0,30.0,38.0,30.0,246.0,square3,j,0.03,2,S,12.0
S12,7.0,38.0,39.0,30.0,39.0,39.0,285.0,square2,f,0.11,1,S,12.0
S12,8.0,37.0,49.0,35.0,38.0,38.0,323.0,square4,i,0.057,3,S,12.0
S12,9.0,37.0,44.0,29.0,38.0,44.0,367.0,square2,f,0.142,1,S,12.0
S12,10.0,35.0,42.0,30.0,45.0,42.0,409.0,square2,f,0.143,1,S,12.0
S12,11.0,34.0,45.0,36.0,32.0,45.0,454.0,square2,f,0.004,1,S,12.0
S12,12.0,33.0,45.0,35.0,42.0,45.0,499.0,square2,f,0.197,1,S,12.0
S12,13.0,36.0,36.0,29.0,40.0,36.0,535.0,square2,f,0.11,1,S,12.0
S12,14.0,36.0,49.0,32.0,42.0,49.0,584.0,square2,f,0.166,1,S,12.0
S12,15.0,35.0,43.0,35.0,46.0,43.0,627.0,square2,f,0.048,1,S,12.0
S12,16.0,39.0,48.0,41.0,43.0,48.0,675.0,square2,f,0.13,1,S,12.0
S12,17.0,35.0,47.0,27.0,38.0,47.0,722.0,square2,f,0.046,1,S,12.0
S12,18.0,37.0,51.0,33.0,33.0,51.0,773.0,square2,f,0.019,1,S,12.0
S12,19.0,41.0,42.0,33.0,36.0,42.0,815.0,square2,f,0.013,1,S,12.0
S12,20.0,34.0,44.0,26.0,41.0,44.0,859.0,square2,f,0.065,1,S,12.0
S12,21.0,35.0,37.0,29.0,35.0,37.0,896.0,square2,f,0.035,1,S,12.0
S12,22.0,37.0,48.0,31.0,41.0,48.0,944.0,square2,f,0.162,1,S,12.0
S12,23.0,36.0,43.0,27.0,45.0,43.0,987.0,square2,f,0.099,1,S,12.0
S12,24.0,39.0,48.0,38.0,38.0,48.0,1035.0,square2,f,0.115,1,S,12.0
S12,25.0,31.0,43.0,30.0,40.0,43.0,1078.0,square2,f,0.063,1,S,12.0
S12,26.0,35.0,48.0,34.0,33.0,48.0,1126.0,square2,f,0.042,1,S,12.0
S12,27.0,46.0,46.0,28.0,38.0,46.0,1172.0,square2,f,0.029,1,S,12.0
S12,28.0,32.0,37.0,32.0,40.0,37.0,1209.0,square2,f,0.115,1,S,12.0
S12,29.0,38.0,41.0,32.0,44.0,41.0,1250.0,square2,f,0.125,1,S,12.0
S12,30.0,32.0,48.0,29.0,42.0,48.0,1298.0,square2,f,0.159,1,S,12.0
S12,31.0,34.0,46.0,30.0,42.0,46.0,1344.0,square2,f,0.111,1,S,12.0
S12,32.0,39.0,43.0,41.0,40.0,43.0,1387.0,square2,f,0.06,1,S,12.0
S12,33.0,36.0,47.0,33.0,46.0,47.0,1434.0,square2,f,0.166,1,S,12.0
S12,34.0,36.0,41.0,34.0,41.0,41.0,1475.0,square2,f,0.144,1,S,12.0
S12,35.0,34.0,42.0,31.0,43.0,42.0,1517.0,square2,f,0.077,1,S,12.0
S12,36.0,39.0,43.0,26.0,33.0,43.0,1560.0,square2,f,0.099,1,S,12.0
S12,37.0,39.0,49.0,30.0,42.0,49.0,1609.0,square2,f,0.101,1,S,12.0
S12,38.0,33.0,47.0,36.0,41.0,47.0,1656.0,square2,f,0.027,1,S,12.0
S12,39.0,29.0,46.0,35.0,36.0,46.0,1702.0,square2,f,0.113,1,S,12.0
S12,40.0,39.0,39.0,29.0,36.0,39.0,1741.0,square2,f,0.317,1,S,12.0
S12,41.0,33.0,44.0,31.0,40.0,44.0,1785.0,square2,f,0.162,1,S,12.0
S12,42.0,34.0,46.0,25.0,37.0,46.0,1831.0,square2,f,0.148,1,S,12.0
S12,43.0,37.0,42.0,30.0,42.0,42.0,1873.0,square2,f,0.172,1,S,12.0
S12,44.0,33.0,49.0,36.0,39.0,49.0,1922.0,square2,f,0.015,1,S,12.0
S12,45.0,35.0,40.0,30.0,47.0,40.0,1962.0,square2,f,0.132,1,S,12.0
S12,46.0,40.0,41.0,29.0,35.0,41.0,2003.0,square2,f,0.093,1,S,12.0
S12,47.0,32.0,42.0,28.0,43.0,42.0,2045.0,square2,f,0.142,1,S,12.0
S12,48.0,43.0,47.0,31.0,38.0,47.0,2092.0,square2,f,0.097,1,S,12.0
S12,49.0,37.0,41.0,35.0,40.0,41.0,2133.0,square2,f,0.175,1,S,12.0
S10,0.0,72.0,76.0,80.0,64.0,80.0,80.0,square3,f,1.896,2,S,10.0
S10,1.0,76.0,75.0,74.0,65.0,76.0,156.0,square1,j,0.001,0,S,10.0
S10,2.0,70.0,72.0,79.0,74.0,72.0,228.0,square2,i,0.002,1,S,10.0
S10,3.0,69.0,77.0,76.0,68.0,68.0,296.0,square4,r,0.002,3,S,10.0
S10,4.0,72.0,79.0,77.0,70.0,77.0,373.0,square3,f,0.08,2,S,10.0
S10,5.0,68.0,74.0,72.0,64.0,68.0,441.0,square1,j,0.001,0,S,10.0
S10,6.0,70.0,77.0,72.0,62.0,77.0,518.0,square2,i,0.098,1,S,10.0
S10,7.0,78.0,81.0,80.0,74.0,74.0,592.0,square4,r,0.062,3,S,10.0
S10,8.0,78.0,78.0,82.0,66.0,82.0,674.0,square3,f,0.13,2,S,10.0
S10,9.0,69.0,76.0,77.0,65.0,76.0,750.0,square2,i,0.073,1,S,10.0
S10,10.0,72.0,78.0,72.0,75.0,72.0,822.0,square3,f,0.002,2,S,10.0
S10,11.0,71.0,76.0,78.0,66.0,78.0,900.0,square3,f,0.141,2,S,10.0
S10,12.0,73.0,83.0,79.0,69.0,79.0,979.0,square3,f,0.178,2,S,10.0
S10,13.0,68.0,77.0,65.0,65.0,65.0,1044.0,square3,f,0.012,2,S,10.0
S10,14.0,69.0,84.0,79.0,65.0,79.0,1123.0,square3,f,0.144,2,S,10.0
S10,15.0,72.0,84.0,70.0,71.0,70.0,1193.0,square3,f,0.159,2,S,10.0
S10,16.0,79.0,80.0,82.0,67.0,82.0,1275.0,square3,f,0.082,2,S,10.0
S10,17.0,69.0,83.0,75.0,70.0,75.0,1350.0,square3,f,0.045,2,S,10.0
S10,18.0,69.0,75.0,69.0,68.0,69.0,1419.0,square3,f,0.098,2,S,10.0
S10,19.0,70.0,83.0,73.0,66.0,73.0,1492.0,square3,f,0.384,2,S,10.0
S10,20.0,69.0,83.0,75.0,66.0,75.0,1567.0,square3,f,0.617,2,S,10.0
S10,21.0,77.0,70.0,75.0,70.0,75.0,1642.0,square3,f,0.117,2,S,10.0
S10,22.0,73.0,77.0,81.0,69.0,81.0,1723.0,square3,f,0.164,2,S,10.0
S10,23.0,73.0,78.0,70.0,65.0,70.0,1793.0,square3,f,0.116,2,S,10.0
S10,24.0,70.0,80.0,75.0,66.0,75.0,1868.0,square3,f,0.147,2,S,10.0
S10,25.0,70.0,80.0,73.0,72.0,73.0,1941.0,square3,f,0.03,2,S,10.0
S10,26.0,73.0,75.0,73.0,75.0,73.0,2014.0,square3,f,0.097,2,S,10.0
S10,27.0,77.0,81.0,83.0,66.0,83.0,2097.0,square3,f,0.114,2,S,10.0
S10,28.0,73.0,79.0,79.0,73.0,79.0,2176.0,square3,f,0.016,2,S,10.0
S10,29.0,73.0,79.0,72.0,69.0,72.0,2248.0,square3,f,0.032,2,S,10.0
S10,30.0,71.0,85.0,79.0,69.0,79.0,2327.0,square3,f,0.002,2,S,10.0
S10,31.0,71.0,85.0,83.0,66.0,83.0,2410.0,square3,f,0.212,2,S,10.0
S10,32.0,78.0,79.0,77.0,65.0,77.0,2487.0,square3,f,0.132,2,S,10.0
S10,33.0,83.0,79.0,72.0,68.0,72.0,2559.0,square3,f,0.193,2,S,10.0
S10,34.0,68.0,74.0,79.0,72.0,79.0,2638.0,square3,f,0.22,2,S,10.0
S10,35.0,70.0,83.0,79.0,67.0,79.0,2717.0,square3,f,0.177,2,S,10.0
S10,36.0,67.0,76.0,75.0,72.0,75.0,2792.0,square3,f,0.001,2,S,10.0
S10,37.0,76.0,82.0,79.0,60.0,79.0,2871.0,square3,f,0.179,2,S,10.0
S10,38.0,72.0,75.0,69.0,68.0,69.0,2940.0,square3,f,0.198,2,S,10.0
S10,39.0,73.0,78.0,76.0,70.0,76.0,3016.0,square3,f,0.163,2,S,10.0
S10,40.0,76.0,77.0,66.0,60.0,66.0,3082.0,square3,f,0.129,2,S,10.0
S10,41.0,74.0,83.0,73.0,67.0,73.0,3155.0,square3,f,0.009,2,S,10.0
S10,42.0,72.0,69.0,80.0,63.0,80.0,3235.0,square3,f,0.113,2,S,10.0
S10,43.0,69.0,74.0,72.0,68.0,72.0,3307.0,square3,f,0.197,2,S,10.0
S10,44.0,67.0,76.0,70.0,65.0,70.0,3377.0,square3,f,0.113,2,S,10.0
S10,45.0,76.0,81.0,74.0,72.0,74.0,3451.0,square3,f,0.13,2,S,10.0
S10,46.0,76.0,79.0,76.0,66.0,76.0,3527.0,square3,f,0.001,2,S,10.0
S10,47.0,67.0,81.0,84.0,60.0,84.0,3611.0,square3,f,0.131,2,S,10.0
S10,48.0,73.0,83.0,75.0,66.0,75.0,3686.0,square3,f,0.147,2,S,10.0
S10,49.0,66.0,77.0,74.0,71.0,74.0,3760.0,square3,f,0.078,2,S,10.0
V6,0.0,43.0,59.0,68.0,49.0,59.0,59.0,square2,j,1.074,1,V,6.0
V6,1.0,43.0,62.0,71.0,50.0,50.0,109.0,square4,f,0.075,3,V,6.0
V6,2.0,48.0,61.0,72.0,51.0,48.0,157.0,square1,r,0.041,0,V,6.0
V6,3.0,46.0,55.0,71.0,51.0,71.0,228.0,square3,i,0.001,2,V,6.0
V6,4.0,44.0,61.0,74.0,48.0,74.0,302.0,square3,i,0.001,2,V,6.0
V6,5.0,45.0,62.0,70.0,51.0,70.0,372.0,square3,i,0.067,2,V,6.0
V6,6.0,42.0,67.0,73.0,46.0,73.0,445.0,square3,i,0.031,2,V,6.0
V6,7.0,44.0,63.0,71.0,53.0,71.0,516.0,square3,i,0.027,2,V,6.0
V6,8.0,41.0,62.0,73.0,52.0,73.0,589.0,square3,i,0.095,2,V,6.0
V6,9.0,46.0,59.0,72.0,54.0,72.0,661.0,square3,i,0.109,2,V,6.0
V6,10.0,45.0,59.0,70.0,53.0,70.0,731.0,square3,i,0.013,2,V,6.0
V6,11.0,45.0,60.0,70.0,49.0,70.0,801.0,square3,i,0.085,2,V,6.0
V6,12.0,45.0,66.0,64.0,48.0,64.0,865.0,square3,i,0.154,2,V,6.0
V6,13.0,45.0,61.0,69.0,47.0,69.0,934.0,square3,i,0.049,2,V,6.0
V6,14.0,47.0,60.0,71.0,56.0,60.0,994.0,square2,j,0.014,1,V,6.0
V6,15.0,46.0,64.0,67.0,52.0,52.0,1046.0,square4,f,0.1,3,V,6.0
V6,16.0,50.0,60.0,69.0,54.0,50.0,1096.0,square1,r,0.045,0,V,6.0
V6,17.0,43.0,60.0,70.0,53.0,70.0,1166.0,square3,i,0.112,2,V,6.0
V6,18.0,46.0,63.0,72.0,55.0,72.0,1238.0,square3,i,0.066,2,V,6.0
V6,19.0,46.0,65.0,73.0,51.0,73.0,1311.0,square3,i,0.031,2,V,6.0
V6,20.0,44.0,63.0,66.0,51.0,66.0,1377.0,square3,i,0.097,2,V,6.0
V6,21.0,43.0,63.0,70.0,49.0,70.0,1447.0,square3,i,0.096,2,V,6.0
V6,22.0,45.0,63.0,71.0,50.0,71.0,1518.0,square3,i,0.047,2,V,6.0
V6,23.0,45.0,38.0,28.0,60.0,38.0,1556.0,square2,j,0.092,1,V,6.0
V6,24.0,46.0,33.0,33.0,53.0,53.0,1609.0,square4,f,0.079,3,V,6.0
V6,25.0,45.0,36.0,32.0,63.0,45.0,1654.0,square1,r,0.109,0,V,6.0
V6,26.0,52.0,37.0,28.0,57.0,28.0,1682.0,square3,i,0.012,2,V,6.0
V6,27.0,45.0,33.0,30.0,62.0,62.0,1744.0,square4,f,0.123,3,V,6.0
V6,28.0,43.0,37.0,24.0,51.0,51.0,1795.0,square4,f,0.063,3,V,6.0
V6,29.0,48.0,39.0,34.0,61.0,61.0,1856.0,square4,f,0.092,3,V,6.0
V6,30.0,48.0,44.0,35.0,59.0,59.0,1915.0,square4,f,0.112,3,V,6.0
V6,31.0,50.0,39.0,34.0,53.0,53.0,1968.0,square4,f,0.077,3,V,6.0
V6,32.0,44.0,33.0,33.0,54.0,54.0,2022.0,square4,f,0.069,3,V,6.0
V6,33.0,48.0,37.0,30.0,56.0,56.0,2078.0,square4,f,0.07,3,V,6.0
V6,34.0,52.0,37.0,27.0,59.0,59.0,2137.0,square4,f,0.837,3,V,6.0
V6,35.0,47.0,32.0,29.0,59.0,59.0,2196.0,square4,f,0.13,3,V,6.0
V6,36.0,45.0,37.0,27.0,56.0,56.0,2252.0,square4,f,0.029,3,V,6.0
V6,37.0,39.0,37.0,31.0,57.0,57.0,2309.0,square4,f,0.001,3,V,6.0
V6,38.0,50.0,38.0,29.0,56.0,56.0,2365.0,square4,f,0.169,3,V,6.0
V6,39.0,48.0,37.0,27.0,57.0,57.0,2422.0,square4,f,0.016,3,V,6.0
V6,40.0,53.0,37.0,29.0,57.0,57.0,2479.0,square4,f,0.015,3,V,6.0
V6,41.0,41.0,34.0,33.0,58.0,58.0,2537.0,square4,f,0.065,3,V,6.0
V6,42.0,50.0,37.0,31.0,57.0,57.0,2594.0,square4,f,0.044,3,V,6.0
V6,43.0,48.0,34.0,30.0,58.0,58.0,2652.0,square4,f,0.085,3,V,6.0
V6,44.0,44.0,37.0,33.0,60.0,60.0,2712.0,square4,f,0.068,3,V,6.0
V6,45.0,44.0,32.0,33.0,55.0,55.0,2767.0,square4,f,0.111,3,V,6.0
V6,46.0,44.0,36.0,33.0,59.0,59.0,2826.0,square4,f,0.078,3,V,6.0
V6,47.0,42.0,34.0,29.0,52.0,52.0,2878.0,square4,f,0.113,3,V,6.0
V6,48.0,46.0,41.0,28.0,60.0,46.0,2924.0,square1,r,0.139,0,V,6.0
V6,49.0,46.0,40.0,27.0,55.0,27.0,2951.0,square3,i,0.025,2,V,6.0
V6,50.0,46.0,41.0,32.0,55.0,41.0,2992.0,square2,j,0.075,1,V,6.0
V6,51.0,41.0,39.0,30.0,55.0,55.0,3047.0,square4,f,0.07,3,V,6.0
V6,52.0,47.0,37.0,31.0,55.0,55.0,3102.0,square4,f,0.01,3,V,6.0
V6,53.0,57.0,36.0,30.0,58.0,58.0,3160.0,square4,f,0.062,3,V,6.0
V6,54.0,42.0,38.0,28.0,50.0,50.0,3210.0,square4,f,0.094,3,V,6.0
V6,55.0,56.0,42.0,67.0,46.0,46.0,3256.0,square4,f,0.06,3,V,6.0
V6,56.0,54.0,37.0,68.0,46.0,46.0,3302.0,square4,f,0.036,3,V,6.0
V6,57.0,57.0,40.0,64.0,52.0,57.0,3359.0,square1,r,0.13,0,V,6.0
V6,58.0,53.0,45.0,68.0,45.0,68.0,3427.0,square3,i,0.067,2,V,6.0
V6,59.0,59.0,41.0,69.0,49.0,41.0,3468.0,square2,j,0.114,1,V,6.0
V6,60.0,62.0,41.0,71.0,51.0,71.0,3539.0,square3,i,0.094,2,V,6.0
V6,61.0,58.0,50.0,72.0,51.0,58.0,3597.0,square1,r,0.118,0,V,6.0
V6,62.0,61.0,43.0,65.0,47.0,65.0,3662.0,square3,i,0.002,2,V,6.0
V6,63.0,55.0,40.0,67.0,51.0,67.0,3729.0,square3,i,0.098,2,V,6.0
V6,64.0,56.0,43.0,67.0,47.0,67.0,3796.0,square3,i,0.112,2,V,6.0
V6,65.0,62.0,46.0,67.0,48.0,67.0,3863.0,square3,i,0.909,2,V,6.0
V6,66.0,55.0,44.0,67.0,48.0,67.0,3930.0,square3,i,0.099,2,V,6.0
V6,67.0,61.0,46.0,70.0,49.0,70.0,4000.0,square3,i,0.002,2,V,6.0
V6,68.0,63.0,41.0,72.0,46.0,72.0,4072.0,square3,i,0.057,2,V,6.0
V6,69.0,59.0,41.0,68.0,48.0,68.0,4140.0,square3,i,0.078,2,V,6.0
V6,70.0,59.0,37.0,70.0,45.0,70.0,4210.0,square3,i,0.057,2,V,6.0
V6,71.0,83.0,64.0,56.0,70.0,56.0,4266.0,square3,i,0.297,2,V,6.0
V6,72.0,82.0,59.0,53.0,75.0,53.0,4319.0,square3,i,0.06,2,V,6.0
V6,73.0,85.0,67.0,58.0,73.0,58.0,4377.0,square3,i,0.098,2,V,6.0
V6,74.0,79.0,67.0,61.0,73.0,61.0,4438.0,square3,i,0.162,2,V,6.0
V6,75.0,84.0,62.0,53.0,69.0,53.0,4491.0,square3,i,0.012,2,V,6.0
V6,76.0,81.0,60.0,55.0,76.0,60.0,4551.0,square2,j,0.078,1,V,6.0
V6,77.0,84.0,61.0,60.0,72.0,72.0,4623.0,square4,f,0.032,3,V,6.0
V6,78.0,90.0,61.0,54.0,74.0,90.0,4713.0,square1,r,0.064,0,V,6.0
V6,79.0,80.0,64.0,51.0,75.0,80.0,4793.0,square1,r,0.113,0,V,6.0
V6,80.0,85.0,62.0,56.0,78.0,85.0,4878.0,square1,r,0.063,0,V,6.0
V6,81.0,86.0,65.0,58.0,69.0,86.0,4964.0,square1,r,0.029,0,V,6.0
V6,82.0,83.0,62.0,58.0,77.0,83.0,5047.0,square1,r,0.08,0,V,6.0
V6,83.0,87.0,61.0,59.0,70.0,87.0,5134.0,square1,r,0.001,0,V,6.0
V6,84.0,89.0,65.0,54.0,78.0,89.0,5223.0,square1,r,0.113,0,V,6.0
V6,85.0,78.0,63.0,55.0,75.0,78.0,5301.0,square1,r,0.047,0,V,6.0
V6,86.0,87.0,67.0,52.0,75.0,87.0,5388.0,square1,r,0.23,0,V,6.0
V6,87.0,86.0,62.0,60.0,75.0,86.0,5474.0,square1,r,0.117,0,V,6.0
V6,88.0,79.0,67.0,56.0,76.0,79.0,5553.0,square1,r,0.045,0,V,6.0
V6,89.0,83.0,61.0,57.0,75.0,57.0,5610.0,square3,i,0.064,2,V,6.0
V6,90.0,83.0,67.0,51.0,76.0,67.0,5677.0,square2,j,0.08,1,V,6.0
V6,91.0,83.0,63.0,55.0,69.0,69.0,5746.0,square4,f,0.107,3,V,6.0
V6,92.0,89.0,56.0,53.0,68.0,89.0,5835.0,square1,r,0.024,0,V,6.0
V6,93.0,84.0,61.0,59.0,74.0,84.0,5919.0,square1,r,0.046,0,V,6.0
V6,94.0,77.0,58.0,58.0,76.0,77.0,5996.0,square1,r,0.062,0,V,6.0
V6,95.0,82.0,60.0,53.0,74.0,82.0,6078.0,square1,r,0.045,0,V,6.0
V6,96.0,87.0,61.0,56.0,71.0,87.0,6165.0,square1,r,0.1,0,V,6.0
V6,97.0,83.0,66.0,55.0,75.0,83.0,6248.0,square1,r,0.126,0,V,6.0
V6,98.0,81.0,63.0,55.0,76.0,81.0,6329.0,square1,r,0.061,0,V,6.0
V6,99.0,92.0,63.0,61.0,78.0,92.0,6421.0,square1,r,0.092,0,V,6.0
V9,0.0,20.0,29.0,37.0,45.0,45.0,45.0,square4,r,1.324,3,V,9.0
V9,1.0,21.0,32.0,39.0,45.0,32.0,77.0,square2,f,0.031,1,V,9.0
V9,2.0,16.0,27.0,41.0,48.0,41.0,118.0,square3,j,0.047,2,V,9.0
V9,3.0,20.0,30.0,42.0,50.0,20.0,138.0,square1,i,0.079,0,V,9.0
V9,4.0,22.0,34.0,37.0,47.0,47.0,185.0,square4,r,0.128,3,V,9.0
V9,5.0,17.0,32.0,38.0,49.0,32.0,217.0,square2,f,0.074,1,V,9.0
V9,6.0,17.0,25.0,39.0,47.0,47.0,264.0,square4,r,0.023,3,V,9.0
V9,7.0,22.0,28.0,33.0,48.0,48.0,312.0,square4,r,0.01,3,V,9.0
V9,8.0,20.0,24.0,34.0,41.0,41.0,353.0,square4,r,0.086,3,V,9.0
V9,9.0,20.0,33.0,30.0,51.0,51.0,404.0,square4,r,0.122,3,V,9.0
V9,10.0,21.0,35.0,38.0,50.0,50.0,454.0,square4,r,0.069,3,V,9.0
V9,11.0,19.0,29.0,44.0,45.0,45.0,499.0,square4,r,0.112,3,V,9.0
V9,12.0,27.0,24.0,38.0,54.0,54.0,553.0,square4,r,0.064,3,V,9.0
V9,13.0,15.0,26.0,37.0,50.0,50.0,603.0,square4,r,0.132,3,V,9.0
V9,14.0,24.0,26.0,39.0,42.0,42.0,645.0,square4,r,0.083,3,V,9.0
V9,15.0,26.0,27.0,43.0,49.0,49.0,694.0,square4,r,0.083,3,V,9.0
V9,16.0,19.0,30.0,42.0,49.0,49.0,743.0,square4,r,0.182,3,V,9.0
V9,17.0,21.0,30.0,34.0,49.0,49.0,792.0,square4,r,0.17,3,V,9.0
V9,18.0,25.0,33.0,41.0,51.0,51.0,843.0,square4,r,0.179,3,V,9.0
V9,19.0,17.0,31.0,41.0,45.0,45.0,888.0,square4,r,0.05,3,V,9.0
V9,20.0,19.0,31.0,34.0,49.0,49.0,937.0,square4,r,0.213,3,V,9.0
V9,21.0,23.0,29.0,37.0,48.0,29.0,966.0,square2,f,0.094,1,V,9.0
V9,22.0,15.0,32.0,36.0,48.0,36.0,1002.0,square3,j,0.013,2,V,9.0
V9,23.0,25.0,33.0,39.0,47.0,25.0,1027.0,square1,i,0.009,0,V,9.0
V9,24.0,21.0,30.0,38.0,52.0,52.0,1079.0,square4,r,0.009,3,V,9.0
V9,25.0,25.0,29.0,42.0,48.0,48.0,1127.0,square4,r,0.19,3,V,9.0
V9,26.0,22.0,29.0,39.0,47.0,47.0,1174.0,square4,r,0.023,3,V,9.0
V9,27.0,17.0,31.0,45.0,41.0,41.0,1215.0,square4,r,0.127,3,V,9.0
V9,28.0,29.0,28.0,43.0,43.0,43.0,1258.0,square4,r,0.192,3,V,9.0
V9,29.0,20.0,31.0,43.0,49.0,49.0,1307.0,square4,r,0.176,3,V,9.0
V9,30.0,23.0,33.0,39.0,48.0,48.0,1355.0,square4,r,0.002,3,V,9.0
V9,31.0,20.0,27.0,38.0,53.0,53.0,1408.0,square4,r,0.217,3,V,9.0
V9,32.0,23.0,29.0,37.0,49.0,49.0,1457.0,square4,r,0.143,3,V,9.0
V9,33.0,24.0,33.0,37.0,49.0,49.0,1506.0,square4,r,0.136,3,V,9.0
V9,34.0,43.0,58.0,48.0,30.0,30.0,1536.0,square4,r,0.114,3,V,9.0
V9,35.0,48.0,59.0,45.0,34.0,59.0,1595.0,square2,f,0.215,1,V,9.0
V9,36.0,39.0,56.0,54.0,32.0,54.0,1649.0,square3,j,0.08,2,V,9.0
V9,37.0,40.0,57.0,50.0,35.0,40.0,1689.0,square1,i,0.03,0,V,9.0
V9,38.0,49.0,62.0,51.0,33.0,62.0,1751.0,square2,f,0.833,1,V,9.0
V9,39.0,45.0,61.0,48.0,34.0,48.0,1799.0,square3,j,0.167,2,V,9.0
V9,40.0,40.0,65.0,51.0,29.0,65.0,1864.0,square2,f,0.114,1,V,9.0
V9,41.0,44.0,57.0,50.0,38.0,57.0,1921.0,square2,f,0.079,1,V,9.0
V9,42.0,40.0,57.0,49.0,33.0,57.0,1978.0,square2,f,0.014,1,V,9.0
V9,43.0,42.0,64.0,54.0,35.0,64.0,2042.0,square2,f,0.008,1,V,9.0
V9,44.0,44.0,55.0,49.0,39.0,55.0,2097.0,square2,f,0.077,1,V,9.0
V9,45.0,37.0,66.0,51.0,35.0,66.0,2163.0,square2,f,0.043,1,V,9.0
V9,46.0,40.0,59.0,51.0,32.0,59.0,2222.0,square2,f,0.046,1,V,9.0
V9,47.0,38.0,62.0,57.0,31.0,62.0,2284.0,square2,f,0.011,1,V,9.0
V9,48.0,43.0,61.0,54.0,34.0,61.0,2345.0,square2,f,0.108,1,V,9.0
V9,49.0,43.0,61.0,49.0,40.0,61.0,2406.0,square2,f,0.035,1,V,9.0
V9,50.0,37.0,58.0,51.0,32.0,58.0,2464.0,square2,f,0.043,1,V,9.0
V9,51.0,44.0,63.0,48.0,39.0,63.0,2527.0,square2,f,0.15,1,V,9.0
V9,52.0,35.0,65.0,48.0,30.0,65.0,2592.0,square2,f,0.147,1,V,9.0
V9,53.0,43.0,59.0,48.0,39.0,59.0,2651.0,square2,f,0.125,1,V,9.0
V9,54.0,43.0,59.0,52.0,30.0,59.0,2710.0,square2,f,0.004,1,V,9.0
V9,55.0,41.0,58.0,51.0,34.0,58.0,2768.0,square2,f,0.028,1,V,9.0
V9,56.0,44.0,63.0,50.0,33.0,63.0,2831.0,square2,f,0.18,1,V,9.0
V9,57.0,42.0,60.0,49.0,32.0,60.0,2891.0,square2,f,0.001,1,V,9.0
V9,58.0,44.0,62.0,57.0,30.0,62.0,2953.0,square2,f,0.128,1,V,9.0
V9,59.0,45.0,61.0,45.0,31.0,61.0,3014.0,square2,f,0.011,1,V,9.0
V9,60.0,43.0,63.0,53.0,33.0,63.0,3077.0,square2,f,0.181,1,V,9.0
V9,61.0,39.0,56.0,55.0,31.0,56.0,3133.0,square2,f,0.099,1,V,9.0
V9,62.0,39.0,61.0,50.0,34.0,34.0,3167.0,square4,r,0.116,3,V,9.0
V9,63.0,44.0,57.0,48.0,36.0,44.0,3211.0,square1,i,0.134,0,V,9.0
V9,64.0,40.0,60.0,58.0,35.0,58.0,3269.0,square3,j,0.108,2,V,9.0
V9,65.0,42.0,60.0,54.0,38.0,60.0,3329.0,square2,f,0.046,1,V,9.0
V9,66.0,41.0,60.0,54.0,37.0,60.0,3389.0,square2,f,0.097,1,V,9.0
V9,67.0,43.0,61.0,54.0,40.0,61.0,3450.0,square2,f,0.062,1,V,9.0
V9,68.0,45.0,40.0,26.0,18.0,26.0,3476.0,square3,j,0.001,2,V,9.0
V9,69.0,50.0,41.0,29.0,20.0,41.0,3517.0,square2,f,0.125,1,V,9.0
V9,70.0,43.0,36.0,27.0,15.0,15.0,3532.0,square4,r,0.001,3,V,9.0
V9,71.0,44.0,40.0,28.0,18.0,44.0,3576.0,square1,i,0.113,0,V,9.0
V9,72.0,42.0,38.0,27.0,18.0,27.0,3603.0,square3,j,0.066,2,V,9.0
V9,73.0,46.0,33.0,25.0,19.0,33.0,3636.0,square2,f,0.029,1,V,9.0
V9,74.0,47.0,40.0,28.0,20.0,47.0,3683.0,square1,i,0.034,0,V,9.0
V9,75.0,39.0,39.0,27.0,25.0,39.0,3722.0,square1,i,0.045,0,V,9.0
V9,76.0,50.0,31.0,29.0,23.0,50.0,3772.0,square1,i,0.146,0,V,9.0
V9,77.0,44.0,37.0,28.0,13.0,44.0,3816.0,square1,i,0.138,0,V,9.0
V9,78.0,43.0,36.0,23.0,17.0,43.0,3859.0,square1,i,0.034,0,V,9.0
V9,79.0,42.0,36.0,28.0,24.0,42.0,3901.0,square1,i,0.001,0,V,9.0
V9,80.0,47.0,35.0,30.0,14.0,47.0,3948.0,square1,i,0.047,0,V,9.0
V9,81.0,46.0,33.0,29.0,18.0,46.0,3994.0,square1,i,0.113,0,V,9.0
V9,82.0,46.0,35.0,28.0,18.0,46.0,4040.0,square1,i,0.064,0,V,9.0
V9,83.0,47.0,41.0,32.0,15.0,47.0,4087.0,square1,i,0.097,0,V,9.0
V9,84.0,45.0,38.0,31.0,18.0,45.0,4132.0,square1,i,0.162,0,V,9.0
V9,85.0,42.0,35.0,30.0,21.0,42.0,4174.0,square1,i,0.025,0,V,9.0
V9,86.0,49.0,39.0,23.0,18.0,49.0,4223.0,square1,i,0.001,0,V,9.0
V9,87.0,49.0,39.0,27.0,16.0,49.0,4272.0,square1,i,0.146,0,V,9.0
V9,88.0,45.0,38.0,25.0,14.0,45.0,4317.0,square1,i,0.047,0,V,9.0
V9,89.0,45.0,32.0,28.0,19.0,45.0,4362.0,square1,i,0.098,0,V,9.0
V9,90.0,44.0,35.0,29.0,20.0,44.0,4406.0,square1,i,0.03,0,V,9.0
V9,91.0,42.0,38.0,32.0,16.0,42.0,4448.0,square1,i,0.124,0,V,9.0
V9,92.0,45.0,36.0,23.0,20.0,45.0,4493.0,square1,i,0.06,0,V,9.0
V9,93.0,45.0,35.0,26.0,18.0,45.0,4538.0,square1,i,0.048,0,V,9.0
V9,94.0,44.0,37.0,27.0,13.0,44.0,4582.0,square1,i,0.026,0,V,9.0
V9,95.0,46.0,36.0,25.0,20.0,46.0,4628.0,square1,i,0.027,0,V,9.0
V9,96.0,43.0,39.0,27.0,16.0,43.0,4671.0,square1,i,0.08,0,V,9.0
V9,97.0,48.0,39.0,30.0,16.0,48.0,4719.0,square1,i,0.163,0,V,9.0
V9,98.0,49.0,40.0,26.0,20.0,49.0,4768.0,square1,i,0.144,0,V,9.0
V9,99.0,49.0,41.0,27.0,18.0,49.0,4817.0,square1,i,0.001,0,V,9.0
V10,0.0,28.0,21.0,37.0,46.0,28.0,28.0,square1,r,1.184,0,V,10.0
V10,1.0,26.0,19.0,41.0,49.0,49.0,77.0,square4,f,0.041,3,V,10.0
V10,2.0,29.0,20.0,43.0,48.0,20.0,97.0,square2,j,0.007,1,V,10.0
V10,3.0,27.0,27.0,37.0,44.0,37.0,134.0,square3,i,0.059,2,V,10.0
V10,4.0,28.0,16.0,36.0,47.0,28.0,162.0,square1,r,0.059,0,V,10.0
V10,5.0,33.0,25.0,42.0,54.0,54.0,216.0,square4,f,0.097,3,V,10.0
V10,6.0,28.0,19.0,35.0,45.0,35.0,251.0,square3,i,0.11,2,V,10.0
V10,7.0,30.0,24.0,35.0,49.0,49.0,300.0,square4,f,0.012,3,V,10.0
V10,8.0,37.0,29.0,41.0,47.0,47.0,347.0,square4,f,0.112,3,V,10.0
V10,9.0,28.0,21.0,41.0,48.0,48.0,395.0,square4,f,0.121,3,V,10.0
V10,10.0,27.0,22.0,39.0,42.0,42.0,437.0,square4,f,0.045,3,V,10.0
V10,11.0,32.0,16.0,41.0,48.0,48.0,485.0,square4,f,0.015,3,V,10.0
V10,12.0,34.0,15.0,33.0,49.0,49.0,534.0,square4,f,0.002,3,V,10.0
V10,13.0,36.0,19.0,41.0,45.0,45.0,579.0,square4,f,0.03,3,V,10.0
V10,14.0,28.0,23.0,35.0,53.0,53.0,632.0,square4,f,0.063,3,V,10.0
V10,15.0,26.0,28.0,40.0,50.0,50.0,682.0,square4,f,0.097,3,V,10.0
V10,16.0,30.0,25.0,42.0,47.0,47.0,729.0,square4,f,0.079,3,V,10.0
V10,17.0,31.0,19.0,38.0,50.0,50.0,779.0,square4,f,0.018,3,V,10.0
V10,18.0,34.0,21.0,35.0,48.0,48.0,827.0,square4,f,0.079,3,V,10.0
V10,19.0,31.0,24.0,39.0,46.0,46.0,873.0,square4,f,0.014,3,V,10.0
V10,20.0,28.0,22.0,42.0,47.0,47.0,920.0,square4,f,0.049,3,V,10.0
V10,21.0,24.0,20.0,41.0,47.0,47.0,967.0,square4,f,0.108,3,V,10.0
V10,22.0,32.0,22.0,34.0,44.0,44.0,1011.0,square4,f,0.079,3,V,10.0
V10,23.0,29.0,23.0,37.0,47.0,47.0,1058.0,square4,f,0.074,3,V,10.0
V10,24.0,25.0,25.0,38.0,46.0,46.0,1104.0,square4,f,0.1,3,V,10.0
V10,25.0,30.0,24.0,41.0,45.0,45.0,1149.0,square4,f,0.079,3,V,10.0
V10,26.0,32.0,17.0,38.0,49.0,49.0,1198.0,square4,f,0.099,3,V,10.0
V10,27.0,34.0,21.0,38.0,47.0,47.0,1245.0,square4,f,0.146,3,V,10.0
V10,28.0,29.0,21.0,37.0,45.0,45.0,1290.0,square4,f,0.114,3,V,10.0
V10,29.0,30.0,20.0,31.0,47.0,47.0,1337.0,square4,f,0.001,3,V,10.0
V10,30.0,28.0,21.0,35.0,44.0,44.0,1381.0,square4,f,0.008,3,V,10.0
V10,31.0,36.0,25.0,14.0,8.0,8.0,1389.0,square4,f,0.004,3,V,10.0
V10,32.0,38.0,27.0,19.0,11.0,38.0,1427.0,square1,r,0.001,0,V,10.0
V10,33.0,39.0,21.0,20.0,13.0,20.0,1447.0,square3,i,0.014,2,V,10.0
V10,34.0,34.0,24.0,20.0,10.0,24.0,1471.0,square2,j,0.162,1,V,10.0
V10,35.0,44.0,29.0,17.0,11.0,44.0,1515.0,square1,r,0.08,0,V,10.0
V10,36.0,33.0,30.0,17.0,9.0,17.0,1532.0,square3,i,0.079,2,V,10.0
V10,37.0,31.0,27.0,12.0,6.0,31.0,1563.0,square1,r,0.231,0,V,10.0
V10,38.0,34.0,29.0,15.0,10.0,34.0,1597.0,square1,r,0.063,0,V,10.0
V10,39.0,35.0,21.0,19.0,5.0,35.0,1632.0,square1,r,0.047,0,V,10.0
V10,40.0,32.0,26.0,18.0,6.0,32.0,1664.0,square1,r,0.127,0,V,10.0
V10,41.0,34.0,32.0,13.0,9.0,34.0,1698.0,square1,r,0.082,0,V,10.0
V10,42.0,35.0,30.0,16.0,8.0,35.0,1733.0,square1,r,0.177,0,V,10.0
V10,43.0,38.0,32.0,16.0,8.0,38.0,1771.0,square1,r,0.141,0,V,10.0
V10,44.0,34.0,20.0,18.0,3.0,34.0,1805.0,square1,r,0.097,0,V,10.0
V10,45.0,38.0,22.0,23.0,9.0,38.0,1843.0,square1,r,0.174,0,V,10.0
V10,46.0,36.0,28.0,16.0,10.0,36.0,1879.0,square1,r,0.181,0,V,10.0
V10,47.0,36.0,27.0,13.0,8.0,36.0,1915.0,square1,r,0.093,0,V,10.0
V10,48.0,35.0,27.0,14.0,12.0,35.0,1950.0,square1,r,0.029,0,V,10.0
V10,49.0,33.0,28.0,16.0,10.0,33.0,1983.0,square1,r,0.044,0,V,10.0
V10,50.0,31.0,29.0,19.0,8.0,31.0,2014.0,square1,r,0.027,0,V,10.0
V10,51.0,32.0,21.0,20.0,12.0,32.0,2046.0,square1,r,0.109,0,V,10.0
V10,52.0,29.0,25.0,21.0,10.0,29.0,2075.0,square1,r,0.167,0,V,10.0
V10,53.0,39.0,29.0,23.0,2.0,39.0,2114.0,square1,r,0.032,0,V,10.0
V10,54.0,33.0,28.0,19.0,7.0,33.0,2147.0,square1,r,0.013,0,V,10.0
V10,55.0,34.0,24.0,15.0,8.0,34.0,2181.0,square1,r,0.077,0,V,10.0
V10,56.0,35.0,20.0,21.0,9.0,35.0,2216.0,square1,r,0.08,0,V,10.0
V10,57.0,33.0,27.0,19.0,7.0,33.0,2249.0,square1,r,0.096,0,V,10.0
V10,58.0,38.0,24.0,16.0,7.0,38.0,2287.0,square1,r,0.015,0,V,10.0
V10,59.0,34.0,29.0,15.0,5.0,5.0,2292.0,square4,f,0.031,3,V,10.0
V10,60.0,34.0,22.0,19.0,9.0,22.0,2314.0,square2,j,0.166,1,V,10.0
V10,61.0,39.0,31.0,20.0,10.0,20.0,2334.0,square3,i,0.13,2,V,10.0
V10,62.0,35.0,24.0,18.0,6.0,35.0,2369.0,square1,r,0.031,0,V,10.0
V10,63.0,35.0,26.0,18.0,9.0,35.0,2404.0,square1,r,0.001,0,V,10.0
V10,64.0,31.0,55.0,23.0,23.0,31.0,2435.0,square1,r,0.233,0,V,10.0
V10,65.0,35.0,50.0,22.0,27.0,35.0,2470.0,square1,r,0.808,0,V,10.0
V10,66.0,35.0,53.0,25.0,29.0,35.0,2505.0,square1,r,0.409,0,V,10.0
V10,67.0,38.0,44.0,17.0,29.0,38.0,2543.0,square1,r,0.29,0,V,10.0
V10,68.0,36.0,48.0,22.0,27.0,36.0,2579.0,square1,r,0.315,0,V,10.0
V10,69.0,41.0,53.0,17.0,28.0,41.0,2620.0,square1,r,0.244,0,V,10.0
V10,70.0,40.0,48.0,23.0,28.0,40.0,2660.0,square1,r,0.044,0,V,10.0
V10,71.0,39.0,43.0,24.0,20.0,20.0,2680.0,square4,f,0.001,3,V,10.0
V10,72.0,36.0,49.0,19.0,25.0,49.0,2729.0,square2,j,0.112,1,V,10.0
V10,73.0,39.0,49.0,23.0,32.0,23.0,2752.0,square3,i,1.095,2,V,10.0
V10,74.0,36.0,44.0,17.0,29.0,44.0,2796.0,square2,j,0.062,1,V,10.0
V10,75.0,37.0,46.0,20.0,30.0,37.0,2833.0,square1,r,0.814,0,V,10.0
V10,76.0,38.0,47.0,23.0,30.0,47.0,2880.0,square2,j,0.001,1,V,10.0
V10,77.0,36.0,49.0,22.0,32.0,49.0,2929.0,square2,j,0.013,1,V,10.0
V10,78.0,41.0,44.0,19.0,27.0,44.0,2973.0,square2,j,0.111,1,V,10.0
V10,79.0,41.0,48.0,22.0,27.0,48.0,3021.0,square2,j,0.002,1,V,10.0
V10,80.0,34.0,44.0,26.0,29.0,44.0,3065.0,square2,j,0.098,1,V,10.0
V10,81.0,38.0,47.0,18.0,29.0,47.0,3112.0,square2,j,0.009,1,V,10.0
V10,82.0,43.0,43.0,23.0,28.0,43.0,3155.0,square2,j,0.079,1,V,10.0
V10,83.0,34.0,51.0,23.0,26.0,51.0,3206.0,square2,j,0.059,1,V,10.0
V10,84.0,36.0,46.0,18.0,25.0,46.0,3252.0,square2,j,0.001,1,V,10.0
V10,85.0,39.0,46.0,25.0,26.0,46.0,3298.0,square2,j,0.002,1,V,10.0
V10,86.0,39.0,50.0,27.0,27.0,50.0,3348.0,square2,j,0.015,1,V,10.0
V10,87.0,38.0,46.0,20.0,30.0,46.0,3394.0,square2,j,0.129,1,V,10.0
V10,88.0,37.0,49.0,22.0,28.0,49.0,3443.0,square2,j,0.002,1,V,10.0
V10,89.0,34.0,51.0,25.0,26.0,51.0,3494.0,square2,j,0.075,1,V,10.0
V10,90.0,41.0,49.0,22.0,29.0,49.0,3543.0,square2,j,0.049,1,V,10.0
V10,91.0,37.0,45.0,26.0,32.0,45.0,3588.0,square2,j,0.151,1,V,10.0
V10,92.0,42.0,42.0,27.0,28.0,42.0,3630.0,square2,j,0.23,1,V,10.0
V10,93.0,41.0,48.0,19.0,36.0,48.0,3678.0,square2,j,0.192,1,V,10.0
V10,94.0,43.0,49.0,23.0,31.0,49.0,3727.0,square2,j,0.077,1,V,10.0
V10,95.0,39.0,46.0,18.0,27.0,46.0,3773.0,square2,j,0.03,1,V,10.0
V10,96.0,37.0,48.0,24.0,27.0,48.0,3821.0,square2,j,0.002,1,V,10.0
V10,97.0,42.0,50.0,23.0,31.0,50.0,3871.0,square2,j,0.045,1,V,10.0
V10,98.0,33.0,47.0,25.0,32.0,47.0,3918.0,square2,j,0.028,1,V,10.0
V10,99.0,39.0,48.0,23.0,32.0,48.0,3966.0,square2,j,0.347,1,V,10.0
