block,Trial,square1,square2,square3,square4,currPoints,totalPoints,square,choiceKey.keys,choiceKey.rt,armNum,blockType,blockNum
prac,0.0,100.0,0.0,0.0,0.0,100.0,100.0,square1,,,0,p,0.0
prac,1.0,100.0,0.0,0.0,0.0,0.0,100.0,square3,,,2,p,0.0
prac,2.0,100.0,0.0,0.0,0.0,0.0,100.0,square2,,,1,p,0.0
prac,3.0,100.0,0.0,0.0,0.0,0.0,100.0,square4,,,3,p,0.0
prac,4.0,100.0,0.0,0.0,0.0,100.0,200.0,square1,,,0,p,0.0
prac,5.0,100.0,0.0,0.0,0.0,100.0,300.0,square1,,,0,p,0.0
prac,6.0,100.0,0.0,0.0,0.0,100.0,400.0,square1,,,0,p,0.0
prac,7.0,100.0,0.0,0.0,0.0,100.0,500.0,square1,,,0,p,0.0
prac,8.0,100.0,0.0,0.0,0.0,100.0,600.0,square1,,,0,p,0.0
prac,9.0,100.0,0.0,0.0,0.0,100.0,700.0,square1,,,0,p,0.0
V7,0.0,86.0,61.0,78.0,68.0,61.0,61.0,square2,r,0.618,1,V,7.0
V7,1.0,95.0,62.0,79.0,70.0,70.0,131.0,square4,i,0.3635,3,V,7.0
V7,2.0,89.0,67.0,81.0,77.0,81.0,212.0,square3,j,0.2752,2,V,7.0
V7,3.0,90.0,56.0,85.0,72.0,90.0,302.0,square1,f,0.1169,0,V,7.0
V7,4.0,91.0,65.0,77.0,71.0,91.0,393.0,square1,f,0.182,0,V,7.0
V7,5.0,91.0,58.0,84.0,72.0,91.0,484.0,square1,f,0.116,0,V,7.0
V7,6.0,94.0,65.0,87.0,72.0,94.0,578.0,square1,f,0.1997,0,V,7.0
V7,7.0,89.0,67.0,79.0,67.0,89.0,667.0,square1,f,0.0902,0,V,7.0
V7,8.0,91.0,65.0,84.0,68.0,84.0,751.0,square3,j,0.2521,2,V,7.0
V7,9.0,92.0,60.0,87.0,69.0,60.0,811.0,square2,r,0.1029,1,V,7.0
V7,10.0,90.0,67.0,81.0,76.0,76.0,887.0,square4,i,0.192,3,V,7.0
V7,11.0,86.0,67.0,83.0,73.0,86.0,973.0,square1,f,0.2547,0,V,7.0
V7,12.0,90.0,62.0,80.0,72.0,90.0,1063.0,square1,f,0.3133,0,V,7.0
V7,13.0,84.0,60.0,88.0,71.0,84.0,1147.0,square1,f,0.0746,0,V,7.0
V7,14.0,95.0,64.0,80.0,70.0,80.0,1227.0,square3,j,0.2533,2,V,7.0
V7,15.0,86.0,60.0,81.0,70.0,86.0,1313.0,square1,f,0.033,0,V,7.0
V7,16.0,85.0,65.0,77.0,69.0,85.0,1398.0,square1,f,0.3488,0,V,7.0
V7,17.0,91.0,65.0,81.0,70.0,91.0,1489.0,square1,f,0.0442,0,V,7.0
V7,18.0,95.0,61.0,81.0,76.0,95.0,1584.0,square1,f,0.1603,0,V,7.0
V7,19.0,90.0,58.0,79.0,72.0,90.0,1674.0,square1,f,0.0962,0,V,7.0
V7,20.0,94.0,68.0,80.0,79.0,94.0,1768.0,square1,f,0.1299,0,V,7.0
V7,21.0,92.0,66.0,82.0,70.0,92.0,1860.0,square1,f,0.0742,0,V,7.0
V7,22.0,92.0,64.0,83.0,72.0,92.0,1952.0,square1,f,0.125,0,V,7.0
V7,23.0,91.0,68.0,82.0,73.0,91.0,2043.0,square1,f,0.206,0,V,7.0
V7,24.0,87.0,71.0,82.0,72.0,87.0,2130.0,square1,f,0.1154,0,V,7.0
V7,25.0,91.0,68.0,90.0,74.0,91.0,2221.0,square1,f,0.2437,0,V,7.0
V7,26.0,89.0,65.0,83.0,72.0,89.0,2310.0,square1,f,0.1195,0,V,7.0
V7,27.0,91.0,61.0,81.0,73.0,91.0,2401.0,square1,f,0.1993,0,V,7.0
V7,28.0,90.0,66.0,81.0,72.0,90.0,2491.0,square1,f,0.1345,0,V,7.0
V7,29.0,89.0,67.0,77.0,71.0,89.0,2580.0,square1,f,0.0546,0,V,7.0
V7,30.0,95.0,68.0,84.0,71.0,95.0,2675.0,square1,f,0.1293,0,V,7.0
V7,31.0,95.0,61.0,81.0,70.0,95.0,2770.0,square1,f,0.1222,0,V,7.0
V7,32.0,89.0,65.0,82.0,75.0,89.0,2859.0,square1,f,0.1388,0,V,7.0
V7,33.0,77.0,50.0,80.0,61.0,77.0,2936.0,square1,f,0.0827,0,V,7.0
V7,34.0,76.0,54.0,78.0,61.0,61.0,2997.0,square4,i,0.2528,3,V,7.0
V7,35.0,71.0,51.0,80.0,64.0,80.0,3077.0,square3,j,0.2079,2,V,7.0
V7,36.0,75.0,51.0,80.0,62.0,51.0,3128.0,square2,r,0.2214,1,V,7.0
V7,37.0,73.0,58.0,86.0,63.0,73.0,3201.0,square1,f,0.2023,0,V,7.0
V7,38.0,73.0,50.0,86.0,61.0,86.0,3287.0,square3,j,0.2498,2,V,7.0
V7,39.0,67.0,53.0,78.0,61.0,78.0,3365.0,square3,j,0.2427,2,V,7.0
V7,40.0,71.0,53.0,84.0,58.0,71.0,3436.0,square1,f,0.319,0,V,7.0
V7,41.0,75.0,51.0,83.0,63.0,63.0,3499.0,square4,i,0.2553,3,V,7.0
V7,42.0,69.0,48.0,87.0,63.0,87.0,3586.0,square3,j,0.0508,2,V,7.0
V7,43.0,70.0,58.0,81.0,60.0,81.0,3667.0,square3,j,0.062,2,V,7.0
V7,44.0,68.0,56.0,76.0,63.0,76.0,3743.0,square3,j,0.0176,2,V,7.0
V7,45.0,74.0,59.0,76.0,56.0,59.0,3802.0,square2,r,0.1504,1,V,7.0
V7,46.0,72.0,54.0,77.0,61.0,77.0,3879.0,square3,j,0.1576,2,V,7.0
V7,47.0,69.0,47.0,81.0,62.0,69.0,3948.0,square1,f,0.0859,0,V,7.0
V7,48.0,75.0,52.0,81.0,57.0,57.0,4005.0,square4,i,0.271,3,V,7.0
V7,49.0,74.0,55.0,78.0,60.0,78.0,4083.0,square3,j,0.4099,2,V,7.0
V7,50.0,71.0,51.0,80.0,61.0,80.0,4163.0,square3,j,0.1361,2,V,7.0
V7,51.0,75.0,55.0,85.0,62.0,85.0,4248.0,square3,j,0.0714,2,V,7.0
V7,52.0,75.0,59.0,76.0,59.0,76.0,4324.0,square3,j,0.1178,2,V,7.0
V7,53.0,72.0,53.0,84.0,66.0,72.0,4396.0,square1,f,0.0502,0,V,7.0
V7,54.0,69.0,51.0,81.0,60.0,81.0,4477.0,square3,j,0.1745,2,V,7.0
V7,55.0,74.0,56.0,75.0,54.0,75.0,4552.0,square3,j,0.4929,2,V,7.0
V7,56.0,76.0,51.0,83.0,58.0,83.0,4635.0,square3,j,0.0704,2,V,7.0
V7,57.0,71.0,53.0,80.0,64.0,80.0,4715.0,square3,j,0.4663,2,V,7.0
V7,58.0,81.0,56.0,79.0,61.0,79.0,4794.0,square3,j,0.1571,2,V,7.0
V7,59.0,71.0,55.0,83.0,59.0,59.0,4853.0,square4,i,0.1315,3,V,7.0
V7,60.0,73.0,53.0,83.0,64.0,83.0,4936.0,square3,j,0.0442,2,V,7.0
V7,61.0,70.0,53.0,77.0,63.0,53.0,4989.0,square2,r,0.0072,1,V,7.0
V7,62.0,71.0,54.0,76.0,61.0,71.0,5060.0,square1,f,0.0003,0,V,7.0
V7,63.0,68.0,45.0,79.0,65.0,79.0,5139.0,square3,j,0.3861,2,V,7.0
V7,64.0,65.0,55.0,79.0,59.0,79.0,5218.0,square3,j,0.16,2,V,7.0
V7,65.0,74.0,54.0,81.0,61.0,81.0,5299.0,square3,j,0.0234,2,V,7.0
V7,66.0,70.0,56.0,81.0,63.0,81.0,5380.0,square3,j,0.0283,2,V,7.0
V7,67.0,70.0,85.0,64.0,92.0,64.0,5444.0,square3,j,0.1213,2,V,7.0
V7,68.0,73.0,85.0,68.0,92.0,73.0,5517.0,square1,f,0.1537,0,V,7.0
V7,69.0,75.0,83.0,70.0,91.0,75.0,5592.0,square1,f,0.0489,0,V,7.0
V7,70.0,75.0,85.0,69.0,91.0,75.0,5667.0,square1,f,0.5249,0,V,7.0
V7,71.0,71.0,86.0,65.0,94.0,71.0,5738.0,square1,f,0.0286,0,V,7.0
V7,72.0,77.0,86.0,65.0,98.0,65.0,5803.0,square3,j,0.1132,2,V,7.0
V7,73.0,77.0,84.0,63.0,94.0,94.0,5897.0,square4,i,0.2821,3,V,7.0
V7,74.0,71.0,86.0,64.0,91.0,91.0,5988.0,square4,i,0.2284,3,V,7.0
V7,75.0,73.0,90.0,60.0,90.0,90.0,6078.0,square4,i,0.0737,3,V,7.0
V7,76.0,79.0,84.0,68.0,95.0,95.0,6173.0,square4,i,0.2517,3,V,7.0
V7,77.0,73.0,85.0,66.0,89.0,89.0,6262.0,square4,i,0.071,3,V,7.0
V7,78.0,75.0,82.0,67.0,91.0,91.0,6353.0,square4,i,0.1377,3,V,7.0
V7,79.0,72.0,85.0,60.0,90.0,90.0,6443.0,square4,i,0.0587,3,V,7.0
V7,80.0,73.0,83.0,66.0,97.0,97.0,6540.0,square4,i,0.1901,3,V,7.0
V7,81.0,73.0,84.0,67.0,92.0,92.0,6632.0,square4,i,0.1233,3,V,7.0
V7,82.0,69.0,84.0,65.0,91.0,91.0,6723.0,square4,i,0.1558,3,V,7.0
V7,83.0,76.0,83.0,72.0,99.0,99.0,6822.0,square4,i,0.0842,3,V,7.0
V7,84.0,72.0,84.0,70.0,94.0,94.0,6916.0,square4,i,0.2213,3,V,7.0
V7,85.0,77.0,83.0,67.0,88.0,88.0,7004.0,square4,i,0.5859,3,V,7.0
V7,86.0,76.0,80.0,67.0,90.0,90.0,7094.0,square4,i,0.2086,3,V,7.0
V7,87.0,70.0,86.0,67.0,95.0,95.0,7189.0,square4,i,0.0156,3,V,7.0
V7,88.0,76.0,84.0,67.0,100.0,100.0,7289.0,square4,i,0.0659,3,V,7.0
V7,89.0,71.0,88.0,60.0,97.0,97.0,7386.0,square4,i,0.1085,3,V,7.0
V7,90.0,69.0,82.0,71.0,95.0,95.0,7481.0,square4,i,0.0063,3,V,7.0
V7,91.0,80.0,84.0,65.0,92.0,92.0,7573.0,square4,i,0.0353,3,V,7.0
V7,92.0,77.0,85.0,68.0,85.0,85.0,7658.0,square4,i,0.0791,3,V,7.0
V7,93.0,72.0,84.0,66.0,91.0,91.0,7749.0,square4,i,0.1163,3,V,7.0
V7,94.0,69.0,83.0,66.0,95.0,95.0,7844.0,square4,i,0.4351,3,V,7.0
V7,95.0,70.0,86.0,75.0,91.0,91.0,7935.0,square4,i,0.1251,3,V,7.0
V7,96.0,74.0,85.0,66.0,88.0,88.0,8023.0,square4,i,0.1117,3,V,7.0
V7,97.0,77.0,82.0,73.0,91.0,91.0,8114.0,square4,i,0.4247,3,V,7.0
V7,98.0,76.0,91.0,62.0,94.0,94.0,8208.0,square4,i,0.0531,3,V,7.0
V7,99.0,74.0,84.0,67.0,88.0,88.0,8296.0,square4,i,0.2646,3,V,7.0
V5,0.0,46.0,21.0,37.0,28.0,46.0,46.0,square1,r,0.9693,0,V,5.0
V5,1.0,43.0,27.0,36.0,31.0,36.0,82.0,square3,i,0.3172,2,V,5.0
V5,2.0,50.0,18.0,43.0,32.0,32.0,114.0,square4,f,0.1668,3,V,5.0
V5,3.0,53.0,23.0,36.0,34.0,23.0,137.0,square2,j,0.0003,1,V,5.0
V5,4.0,52.0,19.0,38.0,34.0,52.0,189.0,square1,r,0.1395,0,V,5.0
V5,5.0,50.0,22.0,41.0,29.0,22.0,211.0,square2,j,0.4026,1,V,5.0
V5,6.0,52.0,19.0,40.0,33.0,52.0,263.0,square1,r,0.1605,0,V,5.0
V5,7.0,48.0,24.0,36.0,27.0,36.0,299.0,square3,i,0.1439,2,V,5.0
V5,8.0,50.0,24.0,35.0,33.0,33.0,332.0,square4,f,0.1758,3,V,5.0
V5,9.0,48.0,25.0,39.0,34.0,48.0,380.0,square1,r,0.0004,0,V,5.0
V5,10.0,52.0,19.0,32.0,34.0,52.0,432.0,square1,r,0.1561,0,V,5.0
V5,11.0,48.0,22.0,32.0,32.0,48.0,480.0,square1,r,0.1243,0,V,5.0
V5,12.0,47.0,17.0,43.0,29.0,47.0,527.0,square1,r,0.0353,0,V,5.0
V5,13.0,46.0,21.0,42.0,29.0,46.0,573.0,square1,r,0.3434,0,V,5.0
V5,14.0,47.0,28.0,42.0,28.0,47.0,620.0,square1,r,0.2481,0,V,5.0
V5,15.0,50.0,29.0,38.0,36.0,38.0,658.0,square3,i,0.2114,2,V,5.0
V5,16.0,49.0,24.0,36.0,34.0,24.0,682.0,square2,j,0.1366,1,V,5.0
V5,17.0,50.0,20.0,38.0,35.0,35.0,717.0,square4,f,0.0407,3,V,5.0
V5,18.0,49.0,22.0,46.0,29.0,49.0,766.0,square1,r,0.0847,0,V,5.0
V5,19.0,46.0,23.0,40.0,31.0,46.0,812.0,square1,r,0.0799,0,V,5.0
V5,20.0,51.0,22.0,41.0,28.0,51.0,863.0,square1,r,0.0422,0,V,5.0
V5,21.0,51.0,26.0,36.0,31.0,51.0,914.0,square1,r,0.0774,0,V,5.0
V5,22.0,47.0,18.0,41.0,28.0,47.0,961.0,square1,r,0.008,0,V,5.0
V5,23.0,52.0,20.0,36.0,29.0,52.0,1013.0,square1,r,0.4541,0,V,5.0
V5,24.0,51.0,21.0,41.0,34.0,51.0,1064.0,square1,r,0.0565,0,V,5.0
V5,25.0,50.0,20.0,41.0,27.0,50.0,1114.0,square1,r,0.0598,0,V,5.0
V5,26.0,49.0,29.0,37.0,28.0,49.0,1163.0,square1,r,0.0868,0,V,5.0
V5,27.0,10.0,13.0,42.0,32.0,42.0,1205.0,square3,i,0.0734,2,V,5.0
V5,28.0,9.0,19.0,40.0,27.0,27.0,1232.0,square4,f,0.4198,3,V,5.0
V5,29.0,17.0,17.0,38.0,29.0,17.0,1249.0,square2,j,0.041,1,V,5.0
V5,30.0,8.0,18.0,36.0,29.0,8.0,1257.0,square1,r,0.0528,0,V,5.0
V5,31.0,16.0,24.0,34.0,29.0,34.0,1291.0,square3,i,0.1843,2,V,5.0
V5,32.0,9.0,17.0,35.0,31.0,31.0,1322.0,square4,f,0.1022,3,V,5.0
V5,33.0,11.0,19.0,36.0,28.0,19.0,1341.0,square2,j,0.0556,1,V,5.0
V5,34.0,10.0,19.0,38.0,28.0,38.0,1379.0,square3,i,0.1158,2,V,5.0
V5,35.0,5.0,23.0,40.0,34.0,40.0,1419.0,square3,i,0.0437,2,V,5.0
V5,36.0,17.0,20.0,36.0,31.0,36.0,1455.0,square3,i,0.1355,2,V,5.0
V5,37.0,12.0,13.0,36.0,30.0,30.0,1485.0,square4,f,0.2001,3,V,5.0
V5,38.0,14.0,24.0,35.0,27.0,27.0,1512.0,square4,f,0.0537,3,V,5.0
V5,39.0,13.0,20.0,39.0,32.0,39.0,1551.0,square3,i,0.0334,2,V,5.0
V5,40.0,9.0,15.0,37.0,24.0,37.0,1588.0,square3,i,0.0926,2,V,5.0
V5,41.0,9.0,14.0,38.0,31.0,38.0,1626.0,square3,i,0.0787,2,V,5.0
V5,42.0,14.0,17.0,43.0,31.0,43.0,1669.0,square3,i,0.0182,2,V,5.0
V5,43.0,10.0,18.0,39.0,23.0,39.0,1708.0,square3,i,0.054,2,V,5.0
V5,44.0,10.0,20.0,33.0,32.0,20.0,1728.0,square2,j,0.3933,1,V,5.0
V5,45.0,16.0,17.0,37.0,29.0,16.0,1744.0,square1,r,0.0864,0,V,5.0
V5,46.0,9.0,22.0,37.0,25.0,37.0,1781.0,square3,i,0.3371,2,V,5.0
V5,47.0,10.0,22.0,35.0,26.0,35.0,1816.0,square3,i,0.0334,2,V,5.0
V5,48.0,11.0,16.0,39.0,23.0,39.0,1855.0,square3,i,0.1172,2,V,5.0
V5,49.0,13.0,16.0,33.0,27.0,33.0,1888.0,square3,i,0.3508,2,V,5.0
V5,50.0,12.0,16.0,39.0,24.0,39.0,1927.0,square3,i,0.1815,2,V,5.0
V5,51.0,10.0,21.0,43.0,28.0,43.0,1970.0,square3,i,0.1157,2,V,5.0
V5,52.0,8.0,15.0,36.0,28.0,36.0,2006.0,square3,i,0.0211,2,V,5.0
V5,53.0,38.0,20.0,31.0,54.0,31.0,2037.0,square3,i,0.0814,2,V,5.0
V5,54.0,39.0,20.0,35.0,51.0,51.0,2088.0,square4,f,0.2041,3,V,5.0
V5,55.0,41.0,21.0,27.0,50.0,50.0,2138.0,square4,f,0.3764,3,V,5.0
V5,56.0,39.0,23.0,28.0,49.0,49.0,2187.0,square4,f,0.2071,3,V,5.0
V5,57.0,36.0,28.0,29.0,59.0,59.0,2246.0,square4,f,0.1003,3,V,5.0
V5,58.0,38.0,22.0,28.0,49.0,49.0,2295.0,square4,f,0.0458,3,V,5.0
V5,59.0,44.0,23.0,30.0,51.0,23.0,2318.0,square2,j,0.0818,1,V,5.0
V5,60.0,43.0,21.0,31.0,48.0,43.0,2361.0,square1,r,0.0128,0,V,5.0
V5,61.0,39.0,24.0,35.0,50.0,50.0,2411.0,square4,f,0.0089,3,V,5.0
V5,62.0,38.0,25.0,31.0,52.0,52.0,2463.0,square4,f,0.022,3,V,5.0
V5,63.0,41.0,14.0,31.0,52.0,52.0,2515.0,square4,f,0.012,3,V,5.0
V5,64.0,43.0,23.0,30.0,51.0,51.0,2566.0,square4,f,0.083,3,V,5.0
V5,65.0,41.0,23.0,35.0,52.0,52.0,2618.0,square4,f,0.1464,3,V,5.0
V5,66.0,41.0,17.0,33.0,47.0,47.0,2665.0,square4,f,0.1544,3,V,5.0
V5,67.0,44.0,23.0,32.0,49.0,44.0,2709.0,square1,r,0.0579,0,V,5.0
V5,68.0,44.0,24.0,31.0,44.0,44.0,2753.0,square4,f,0.1331,3,V,5.0
V5,69.0,43.0,28.0,27.0,48.0,48.0,2801.0,square4,f,0.3731,3,V,5.0
V5,70.0,38.0,22.0,26.0,50.0,50.0,2851.0,square4,f,0.1307,3,V,5.0
V5,71.0,41.0,29.0,26.0,53.0,41.0,2892.0,square1,r,0.0679,0,V,5.0
V5,72.0,40.0,20.0,28.0,51.0,51.0,2943.0,square4,f,0.3755,3,V,5.0
V5,73.0,59.0,44.0,51.0,35.0,35.0,2978.0,square4,f,0.0612,3,V,5.0
V5,74.0,60.0,38.0,55.0,43.0,55.0,3033.0,square3,i,0.3446,2,V,5.0
V5,75.0,63.0,45.0,50.0,37.0,50.0,3083.0,square3,i,0.0086,2,V,5.0
V5,76.0,62.0,42.0,50.0,37.0,50.0,3133.0,square3,i,0.1426,2,V,5.0
V5,77.0,57.0,37.0,52.0,35.0,52.0,3185.0,square3,i,0.2222,2,V,5.0
V5,78.0,66.0,45.0,54.0,37.0,54.0,3239.0,square3,i,0.0908,2,V,5.0
V5,79.0,64.0,37.0,48.0,35.0,48.0,3287.0,square3,i,0.0609,2,V,5.0
V5,80.0,63.0,40.0,56.0,38.0,56.0,3343.0,square3,i,0.082,2,V,5.0
V5,81.0,62.0,41.0,54.0,32.0,54.0,3397.0,square3,i,0.3149,2,V,5.0
V5,82.0,58.0,41.0,59.0,39.0,59.0,3456.0,square3,i,0.2266,2,V,5.0
V5,83.0,66.0,46.0,54.0,35.0,54.0,3510.0,square3,i,0.0325,2,V,5.0
V5,84.0,67.0,44.0,52.0,33.0,52.0,3562.0,square3,i,0.0516,2,V,5.0
V5,85.0,67.0,45.0,46.0,36.0,67.0,3629.0,square1,r,0.1429,0,V,5.0
V5,86.0,65.0,44.0,51.0,38.0,44.0,3673.0,square2,j,0.2792,1,V,5.0
V5,87.0,64.0,49.0,48.0,35.0,64.0,3737.0,square1,r,0.0576,0,V,5.0
V5,88.0,68.0,47.0,56.0,36.0,68.0,3805.0,square1,r,0.1411,0,V,5.0
V5,89.0,60.0,42.0,57.0,32.0,60.0,3865.0,square1,r,0.0529,0,V,5.0
V5,90.0,59.0,43.0,53.0,34.0,59.0,3924.0,square1,r,0.0326,0,V,5.0
V5,91.0,64.0,43.0,51.0,34.0,64.0,3988.0,square1,r,0.0123,0,V,5.0
V5,92.0,65.0,41.0,57.0,38.0,65.0,4053.0,square1,r,0.0577,0,V,5.0
V5,93.0,59.0,48.0,54.0,40.0,59.0,4112.0,square1,r,0.0537,0,V,5.0
V5,94.0,66.0,44.0,53.0,43.0,66.0,4178.0,square1,r,0.3931,0,V,5.0
V5,95.0,63.0,43.0,50.0,40.0,63.0,4241.0,square1,r,0.1585,0,V,5.0
V5,96.0,62.0,44.0,50.0,33.0,62.0,4303.0,square1,r,0.2065,0,V,5.0
V5,97.0,64.0,49.0,55.0,37.0,37.0,4340.0,square4,f,0.0591,3,V,5.0
V5,98.0,65.0,44.0,53.0,36.0,53.0,4393.0,square3,i,0.5996,2,V,5.0
V5,99.0,65.0,42.0,55.0,35.0,65.0,4458.0,square1,r,0.9555,0,V,5.0
V6,0.0,43.0,59.0,68.0,49.0,59.0,59.0,square2,r,0.8835,1,V,6.0
V6,1.0,43.0,62.0,71.0,50.0,43.0,102.0,square1,i,0.1667,0,V,6.0
V6,2.0,48.0,61.0,72.0,51.0,72.0,174.0,square3,f,0.2167,2,V,6.0
V6,3.0,46.0,55.0,71.0,51.0,51.0,225.0,square4,j,0.2001,3,V,6.0
V6,4.0,44.0,61.0,74.0,48.0,74.0,299.0,square3,f,0.2834,2,V,6.0
V6,5.0,45.0,62.0,70.0,51.0,70.0,369.0,square3,f,0.1673,2,V,6.0
V6,6.0,42.0,67.0,73.0,46.0,73.0,442.0,square3,f,0.3167,2,V,6.0
V6,7.0,44.0,63.0,71.0,53.0,71.0,513.0,square3,f,0.2333,2,V,6.0
V6,8.0,41.0,62.0,73.0,52.0,73.0,586.0,square3,f,0.1168,2,V,6.0
V6,9.0,46.0,59.0,72.0,54.0,72.0,658.0,square3,f,0.1503,2,V,6.0
V6,10.0,45.0,59.0,70.0,53.0,70.0,728.0,square3,f,0.367,2,V,6.0
V6,11.0,45.0,60.0,70.0,49.0,70.0,798.0,square3,f,0.2669,2,V,6.0
V6,12.0,45.0,66.0,64.0,48.0,64.0,862.0,square3,f,0.2503,2,V,6.0
V6,13.0,45.0,61.0,69.0,47.0,69.0,931.0,square3,f,0.412,2,V,6.0
V6,14.0,47.0,60.0,71.0,56.0,60.0,991.0,square2,r,0.1502,1,V,6.0
V6,15.0,46.0,64.0,67.0,52.0,46.0,1037.0,square1,i,0.0878,0,V,6.0
V6,16.0,50.0,60.0,69.0,54.0,54.0,1091.0,square4,j,0.0971,3,V,6.0
V6,17.0,43.0,60.0,70.0,53.0,70.0,1161.0,square3,f,0.2264,2,V,6.0
V6,18.0,46.0,63.0,72.0,55.0,72.0,1233.0,square3,f,0.2501,2,V,6.0
V6,19.0,46.0,65.0,73.0,51.0,73.0,1306.0,square3,f,0.1777,2,V,6.0
V6,20.0,44.0,63.0,66.0,51.0,66.0,1372.0,square3,f,0.1757,2,V,6.0
V6,21.0,43.0,63.0,70.0,49.0,63.0,1435.0,square2,r,0.1738,1,V,6.0
V6,22.0,45.0,63.0,71.0,50.0,71.0,1506.0,square3,f,0.1163,2,V,6.0
V6,23.0,45.0,38.0,28.0,60.0,60.0,1566.0,square4,j,0.012,3,V,6.0
V6,24.0,46.0,33.0,33.0,53.0,33.0,1599.0,square3,f,0.2502,2,V,6.0
V6,25.0,45.0,36.0,32.0,63.0,45.0,1644.0,square1,i,0.0758,0,V,6.0
V6,26.0,52.0,37.0,28.0,57.0,52.0,1696.0,square1,i,0.222,0,V,6.0
V6,27.0,45.0,33.0,30.0,62.0,62.0,1758.0,square4,j,0.1164,3,V,6.0
V6,28.0,43.0,37.0,24.0,51.0,37.0,1795.0,square2,r,0.083,1,V,6.0
V6,29.0,48.0,39.0,34.0,61.0,34.0,1829.0,square3,f,0.1235,2,V,6.0
V6,30.0,48.0,44.0,35.0,59.0,59.0,1888.0,square4,j,0.0353,3,V,6.0
V6,31.0,50.0,39.0,34.0,53.0,50.0,1938.0,square1,i,0.2467,0,V,6.0
V6,32.0,44.0,33.0,33.0,54.0,54.0,1992.0,square4,j,0.0669,3,V,6.0
V6,33.0,48.0,37.0,30.0,56.0,48.0,2040.0,square1,i,0.1247,0,V,6.0
V6,34.0,52.0,37.0,27.0,59.0,59.0,2099.0,square4,j,0.0928,3,V,6.0
V6,35.0,47.0,32.0,29.0,59.0,59.0,2158.0,square4,j,0.1022,3,V,6.0
V6,36.0,45.0,37.0,27.0,56.0,56.0,2214.0,square4,j,0.1503,3,V,6.0
V6,37.0,39.0,37.0,31.0,57.0,57.0,2271.0,square4,j,0.0861,3,V,6.0
V6,38.0,50.0,38.0,29.0,56.0,56.0,2327.0,square4,j,0.3836,3,V,6.0
V6,39.0,48.0,37.0,27.0,57.0,57.0,2384.0,square4,j,0.2455,3,V,6.0
V6,40.0,53.0,37.0,29.0,57.0,53.0,2437.0,square1,i,0.2963,0,V,6.0
V6,41.0,41.0,34.0,33.0,58.0,34.0,2471.0,square2,r,0.0997,1,V,6.0
V6,42.0,50.0,37.0,31.0,57.0,31.0,2502.0,square3,f,0.0744,2,V,6.0
V6,43.0,48.0,34.0,30.0,58.0,58.0,2560.0,square4,j,0.0523,3,V,6.0
V6,44.0,44.0,37.0,33.0,60.0,60.0,2620.0,square4,j,0.0469,3,V,6.0
V6,45.0,44.0,32.0,33.0,55.0,55.0,2675.0,square4,j,0.0743,3,V,6.0
V6,46.0,44.0,36.0,33.0,59.0,59.0,2734.0,square4,j,0.1835,3,V,6.0
V6,47.0,42.0,34.0,29.0,52.0,52.0,2786.0,square4,j,0.1864,3,V,6.0
V6,48.0,46.0,41.0,28.0,60.0,60.0,2846.0,square4,j,0.2238,3,V,6.0
V6,49.0,46.0,40.0,27.0,55.0,55.0,2901.0,square4,j,0.0436,3,V,6.0
V6,50.0,46.0,41.0,32.0,55.0,46.0,2947.0,square1,i,0.0501,0,V,6.0
V6,51.0,41.0,39.0,30.0,55.0,39.0,2986.0,square2,r,0.4024,1,V,6.0
V6,52.0,47.0,37.0,31.0,55.0,31.0,3017.0,square3,f,0.05,2,V,6.0
V6,53.0,57.0,36.0,30.0,58.0,58.0,3075.0,square4,j,0.0105,3,V,6.0
V6,54.0,42.0,38.0,28.0,50.0,50.0,3125.0,square4,j,0.1352,3,V,6.0
V6,55.0,56.0,42.0,67.0,46.0,46.0,3171.0,square4,j,0.1174,3,V,6.0
V6,56.0,54.0,37.0,68.0,46.0,54.0,3225.0,square1,i,0.2793,0,V,6.0
V6,57.0,57.0,40.0,64.0,52.0,52.0,3277.0,square4,j,0.5133,3,V,6.0
V6,58.0,53.0,45.0,68.0,45.0,53.0,3330.0,square1,i,0.0836,0,V,6.0
V6,59.0,59.0,41.0,69.0,49.0,49.0,3379.0,square4,j,0.172,3,V,6.0
V6,60.0,62.0,41.0,71.0,51.0,62.0,3441.0,square1,i,0.122,0,V,6.0
V6,61.0,58.0,50.0,72.0,51.0,50.0,3491.0,square2,r,0.1863,1,V,6.0
V6,62.0,61.0,43.0,65.0,47.0,47.0,3538.0,square4,j,0.0073,3,V,6.0
V6,63.0,55.0,40.0,67.0,51.0,67.0,3605.0,square3,f,0.196,2,V,6.0
V6,64.0,56.0,43.0,67.0,47.0,56.0,3661.0,square1,i,0.3294,0,V,6.0
V6,65.0,62.0,46.0,67.0,48.0,67.0,3728.0,square3,f,0.0574,2,V,6.0
V6,66.0,55.0,44.0,67.0,48.0,67.0,3795.0,square3,f,0.1001,2,V,6.0
V6,67.0,61.0,46.0,70.0,49.0,46.0,3841.0,square2,r,0.0609,1,V,6.0
V6,68.0,63.0,41.0,72.0,46.0,46.0,3887.0,square4,j,0.0335,3,V,6.0
V6,69.0,59.0,41.0,68.0,48.0,59.0,3946.0,square1,i,0.1077,0,V,6.0
V6,70.0,59.0,37.0,70.0,45.0,70.0,4016.0,square3,f,0.15,2,V,6.0
V6,71.0,83.0,64.0,56.0,70.0,83.0,4099.0,square1,i,0.0835,0,V,6.0
V6,72.0,82.0,59.0,53.0,75.0,53.0,4152.0,square3,f,0.1001,2,V,6.0
V6,73.0,85.0,67.0,58.0,73.0,85.0,4237.0,square1,i,0.0005,0,V,6.0
V6,74.0,79.0,67.0,61.0,73.0,79.0,4316.0,square1,i,0.0203,0,V,6.0
V6,75.0,84.0,62.0,53.0,69.0,62.0,4378.0,square2,r,0.0004,1,V,6.0
V6,76.0,81.0,60.0,55.0,76.0,76.0,4454.0,square4,j,0.0377,3,V,6.0
V6,77.0,84.0,61.0,60.0,72.0,84.0,4538.0,square1,i,0.4171,0,V,6.0
V6,78.0,90.0,61.0,54.0,74.0,74.0,4612.0,square4,j,0.0056,3,V,6.0
V6,79.0,80.0,64.0,51.0,75.0,80.0,4692.0,square1,i,0.0665,0,V,6.0
V6,80.0,85.0,62.0,56.0,78.0,85.0,4777.0,square1,i,0.0004,0,V,6.0
V6,81.0,86.0,65.0,58.0,69.0,86.0,4863.0,square1,i,0.0252,0,V,6.0
V6,82.0,83.0,62.0,58.0,77.0,83.0,4946.0,square1,i,0.0451,0,V,6.0
V6,83.0,87.0,61.0,59.0,70.0,70.0,5016.0,square4,j,0.1131,3,V,6.0
V6,84.0,89.0,65.0,54.0,78.0,65.0,5081.0,square2,r,0.0732,1,V,6.0
V6,85.0,78.0,63.0,55.0,75.0,55.0,5136.0,square3,f,0.0004,2,V,6.0
V6,86.0,87.0,67.0,52.0,75.0,87.0,5223.0,square1,i,0.0248,0,V,6.0
V6,87.0,86.0,62.0,60.0,75.0,86.0,5309.0,square1,i,0.0525,0,V,6.0
V6,88.0,79.0,67.0,56.0,76.0,79.0,5388.0,square1,i,0.0331,0,V,6.0
V6,89.0,83.0,61.0,57.0,75.0,83.0,5471.0,square1,i,0.267,0,V,6.0
V6,90.0,83.0,67.0,51.0,76.0,76.0,5547.0,square4,j,0.1997,3,V,6.0
V6,91.0,83.0,63.0,55.0,69.0,63.0,5610.0,square2,r,0.0501,1,V,6.0
V6,92.0,89.0,56.0,53.0,68.0,89.0,5699.0,square1,i,0.0004,0,V,6.0
V6,93.0,84.0,61.0,59.0,74.0,84.0,5783.0,square1,i,0.1002,0,V,6.0
V6,94.0,77.0,58.0,58.0,76.0,77.0,5860.0,square1,i,0.076,0,V,6.0
V6,95.0,82.0,60.0,53.0,74.0,82.0,5942.0,square1,i,0.0005,0,V,6.0
V6,96.0,87.0,61.0,56.0,71.0,87.0,6029.0,square1,i,0.0517,0,V,6.0
V6,97.0,83.0,66.0,55.0,75.0,83.0,6112.0,square1,i,0.006,0,V,6.0
V6,98.0,81.0,63.0,55.0,76.0,55.0,6167.0,square3,f,0.1332,2,V,6.0
V6,99.0,92.0,63.0,61.0,78.0,92.0,6259.0,square1,i,0.0004,0,V,6.0
NS5,0.0,26.0,19.0,54.0,39.0,26.0,26.0,square1,r,1.0998,0,N,5.0
NS5,1.0,21.0,17.0,51.0,42.0,17.0,43.0,square2,j,0.006,1,N,5.0
NS5,2.0,19.0,17.0,52.0,42.0,42.0,85.0,square4,f,0.0747,3,N,5.0
NS5,3.0,21.0,16.0,55.0,38.0,55.0,140.0,square3,i,0.0446,2,N,5.0
NS5,4.0,14.0,26.0,52.0,44.0,14.0,154.0,square1,r,0.0335,0,N,5.0
NS5,5.0,18.0,25.0,47.0,42.0,47.0,201.0,square3,i,0.1667,2,N,5.0
NS5,6.0,23.0,21.0,54.0,38.0,38.0,239.0,square4,f,0.0669,3,N,5.0
NS5,7.0,18.0,27.0,56.0,39.0,27.0,266.0,square2,j,0.3167,1,N,5.0
NS5,8.0,18.0,28.0,57.0,40.0,57.0,323.0,square3,i,0.2452,2,N,5.0
NS5,9.0,15.0,29.0,53.0,38.0,53.0,376.0,square3,i,0.0497,2,N,5.0
NS5,10.0,13.0,26.0,56.0,41.0,56.0,432.0,square3,i,0.0031,2,N,5.0
NS5,11.0,11.0,25.0,58.0,41.0,58.0,490.0,square3,i,0.0834,2,N,5.0
NS5,12.0,9.0,22.0,53.0,40.0,53.0,543.0,square3,i,0.0499,2,N,5.0
NS5,13.0,11.0,21.0,55.0,39.0,55.0,598.0,square3,i,0.2456,2,N,5.0
NS5,14.0,12.0,17.0,49.0,38.0,49.0,647.0,square3,i,0.1836,2,N,5.0
NS5,15.0,18.0,19.0,52.0,37.0,52.0,699.0,square3,i,0.0866,2,N,5.0
NS5,16.0,18.0,20.0,49.0,40.0,49.0,748.0,square3,i,0.05,2,N,5.0
NS5,17.0,16.0,16.0,50.0,41.0,50.0,798.0,square3,i,0.0004,2,N,5.0
NS5,18.0,16.0,18.0,51.0,43.0,51.0,849.0,square3,i,0.1762,2,N,5.0
NS5,19.0,14.0,20.0,44.0,45.0,44.0,893.0,square3,i,0.0834,2,N,5.0
NS5,20.0,19.0,21.0,42.0,48.0,42.0,935.0,square3,i,0.2835,2,N,5.0
NS5,21.0,19.0,22.0,43.0,47.0,47.0,982.0,square4,f,0.1335,3,N,5.0
NS5,22.0,17.0,15.0,43.0,47.0,15.0,997.0,square2,j,0.0831,1,N,5.0
NS5,23.0,16.0,28.0,37.0,47.0,16.0,1013.0,square1,r,0.0758,0,N,5.0
NS5,24.0,20.0,21.0,38.0,49.0,49.0,1062.0,square4,f,0.0668,3,N,5.0
NS5,25.0,22.0,17.0,34.0,46.0,46.0,1108.0,square4,f,0.0497,3,N,5.0
NS5,26.0,30.0,16.0,32.0,50.0,50.0,1158.0,square4,f,0.1715,3,N,5.0
NS5,27.0,21.0,20.0,35.0,42.0,42.0,1200.0,square4,f,0.0018,3,N,5.0
NS5,28.0,20.0,23.0,39.0,42.0,42.0,1242.0,square4,f,0.0299,3,N,5.0
NS5,29.0,21.0,18.0,39.0,41.0,41.0,1283.0,square4,f,0.074,3,N,5.0
NS5,30.0,20.0,11.0,41.0,44.0,41.0,1324.0,square3,i,0.0519,2,N,5.0
NS5,31.0,20.0,9.0,36.0,43.0,43.0,1367.0,square4,f,0.0501,3,N,5.0
NS5,32.0,21.0,13.0,35.0,46.0,35.0,1402.0,square3,i,0.0335,2,N,5.0
NS5,33.0,16.0,22.0,32.0,44.0,44.0,1446.0,square4,f,0.3668,3,N,5.0
NS5,34.0,20.0,20.0,33.0,37.0,37.0,1483.0,square4,f,0.0688,3,N,5.0
NS5,35.0,19.0,27.0,34.0,40.0,34.0,1517.0,square3,i,0.1108,2,N,5.0
NS5,36.0,20.0,23.0,31.0,37.0,37.0,1554.0,square4,f,0.2715,3,N,5.0
NS5,37.0,15.0,28.0,41.0,40.0,40.0,1594.0,square4,f,0.002,3,N,5.0
NS5,38.0,18.0,21.0,45.0,37.0,37.0,1631.0,square4,f,0.0063,3,N,5.0
NS5,39.0,23.0,22.0,40.0,34.0,34.0,1665.0,square4,f,0.227,3,N,5.0
NS5,40.0,22.0,25.0,44.0,26.0,26.0,1691.0,square4,f,0.047,3,N,5.0
NS5,41.0,28.0,25.0,39.0,29.0,39.0,1730.0,square3,i,0.1061,2,N,5.0
NS5,42.0,27.0,27.0,42.0,35.0,27.0,1757.0,square2,j,0.0908,1,N,5.0
NS5,43.0,25.0,25.0,49.0,38.0,25.0,1782.0,square1,r,0.1723,0,N,5.0
NS5,44.0,24.0,26.0,42.0,30.0,42.0,1824.0,square3,i,0.0106,2,N,5.0
NS5,45.0,33.0,22.0,43.0,37.0,43.0,1867.0,square3,i,0.271,2,N,5.0
NS5,46.0,32.0,24.0,50.0,38.0,50.0,1917.0,square3,i,0.3169,2,N,5.0
NS5,47.0,39.0,25.0,52.0,29.0,52.0,1969.0,square3,i,0.1217,2,N,5.0
NS5,48.0,42.0,22.0,46.0,33.0,46.0,2015.0,square3,i,0.1617,2,N,5.0
NS5,49.0,40.0,26.0,40.0,33.0,40.0,2055.0,square3,i,0.0009,2,N,5.0
NS5,50.0,34.0,19.0,47.0,33.0,34.0,2089.0,square1,r,0.3002,0,N,5.0
NS5,51.0,29.0,25.0,45.0,29.0,29.0,2118.0,square4,f,0.0331,3,N,5.0
NS5,52.0,29.0,24.0,48.0,35.0,24.0,2142.0,square2,j,0.3707,1,N,5.0
NS5,53.0,24.0,25.0,45.0,40.0,45.0,2187.0,square3,i,0.1045,2,N,5.0
NS5,54.0,26.0,25.0,51.0,36.0,51.0,2238.0,square3,i,0.1051,2,N,5.0
NS5,55.0,25.0,28.0,56.0,34.0,56.0,2294.0,square3,i,0.1333,2,N,5.0
NS5,56.0,23.0,27.0,54.0,36.0,54.0,2348.0,square3,i,0.0019,2,N,5.0
NS5,57.0,19.0,25.0,51.0,31.0,51.0,2399.0,square3,i,0.0386,2,N,5.0
NS5,58.0,20.0,30.0,53.0,29.0,53.0,2452.0,square3,i,0.0185,2,N,5.0
NS5,59.0,17.0,30.0,52.0,28.0,52.0,2504.0,square3,i,0.4938,2,N,5.0
NS5,60.0,15.0,30.0,55.0,30.0,55.0,2559.0,square3,i,0.0874,2,N,5.0
NS5,61.0,22.0,29.0,54.0,30.0,54.0,2613.0,square3,i,0.0168,2,N,5.0
NS5,62.0,18.0,31.0,55.0,32.0,55.0,2668.0,square3,i,0.7668,2,N,5.0
NS5,63.0,19.0,31.0,51.0,37.0,51.0,2719.0,square3,i,0.1499,2,N,5.0
NS5,64.0,20.0,30.0,45.0,35.0,45.0,2764.0,square3,i,0.0834,2,N,5.0
NS5,65.0,24.0,21.0,55.0,38.0,24.0,2788.0,square1,r,0.1409,0,N,5.0
NS5,66.0,22.0,29.0,58.0,36.0,29.0,2817.0,square2,j,0.3167,1,N,5.0
NS5,67.0,22.0,26.0,51.0,36.0,36.0,2853.0,square4,f,0.2448,3,N,5.0
NS5,68.0,20.0,28.0,52.0,36.0,52.0,2905.0,square3,i,0.1202,2,N,5.0
NS5,69.0,18.0,27.0,52.0,40.0,52.0,2957.0,square3,i,0.0884,2,N,5.0
NS5,70.0,22.0,34.0,55.0,39.0,55.0,3012.0,square3,i,0.0003,2,N,5.0
NS5,71.0,27.0,37.0,59.0,41.0,59.0,3071.0,square3,i,0.0168,2,N,5.0
NS5,72.0,27.0,37.0,57.0,40.0,57.0,3128.0,square3,i,0.1397,2,N,5.0
NS5,73.0,35.0,36.0,55.0,38.0,55.0,3183.0,square3,i,0.2589,2,N,5.0
NS5,74.0,27.0,36.0,52.0,36.0,52.0,3235.0,square3,i,0.1016,2,N,5.0
NS5,75.0,31.0,40.0,53.0,38.0,53.0,3288.0,square3,i,0.0165,2,N,5.0
NS5,76.0,33.0,41.0,59.0,35.0,35.0,3323.0,square4,f,0.0997,3,N,5.0
NS5,77.0,33.0,42.0,56.0,38.0,42.0,3365.0,square2,j,0.0589,1,N,5.0
NS5,78.0,30.0,42.0,53.0,37.0,30.0,3395.0,square1,r,0.0858,0,N,5.0
NS5,79.0,27.0,49.0,51.0,44.0,51.0,3446.0,square3,i,0.2791,2,N,5.0
NS5,80.0,31.0,49.0,45.0,44.0,45.0,3491.0,square3,i,0.1168,2,N,5.0
NS5,81.0,33.0,51.0,48.0,43.0,48.0,3539.0,square3,i,0.1858,2,N,5.0
NS5,82.0,31.0,54.0,41.0,43.0,41.0,3580.0,square3,i,0.6392,2,N,5.0
NS5,83.0,25.0,57.0,42.0,40.0,57.0,3637.0,square2,j,0.1545,1,N,5.0
NS5,84.0,36.0,57.0,45.0,38.0,38.0,3675.0,square4,f,0.1532,3,N,5.0
NS5,85.0,36.0,62.0,44.0,42.0,36.0,3711.0,square1,r,0.16,0,N,5.0
NS5,86.0,33.0,55.0,48.0,43.0,55.0,3766.0,square2,j,0.0502,1,N,5.0
NS5,87.0,37.0,53.0,44.0,46.0,53.0,3819.0,square2,j,0.0419,1,N,5.0
NS5,88.0,36.0,54.0,41.0,48.0,54.0,3873.0,square2,j,0.1013,1,N,5.0
NS5,89.0,39.0,62.0,47.0,47.0,62.0,3935.0,square2,j,0.0168,1,N,5.0
NS5,90.0,37.0,62.0,51.0,48.0,62.0,3997.0,square2,j,0.0506,1,N,5.0
NS5,91.0,40.0,64.0,48.0,53.0,64.0,4061.0,square2,j,0.0004,1,N,5.0
NS5,92.0,42.0,64.0,51.0,55.0,64.0,4125.0,square2,j,0.0267,1,N,5.0
NS5,93.0,39.0,63.0,51.0,53.0,63.0,4188.0,square2,j,0.1266,1,N,5.0
NS5,94.0,41.0,60.0,50.0,58.0,60.0,4248.0,square2,j,0.4707,1,N,5.0
NS5,95.0,36.0,55.0,53.0,52.0,55.0,4303.0,square2,j,0.3668,1,N,5.0
NS5,96.0,36.0,56.0,55.0,56.0,56.0,4359.0,square2,j,0.2499,1,N,5.0
NS5,97.0,28.0,52.0,57.0,53.0,52.0,4411.0,square2,j,0.1835,1,N,5.0
NS5,98.0,29.0,53.0,53.0,43.0,53.0,4464.0,square2,j,0.1001,1,N,5.0
NS5,99.0,25.0,55.0,53.0,46.0,55.0,4519.0,square2,j,0.0353,1,N,5.0
NS8,0.0,61.0,62.0,34.0,32.0,62.0,62.0,square2,r,0.6166,1,N,8.0
NS8,1.0,57.0,56.0,38.0,27.0,27.0,89.0,square4,i,0.0667,3,N,8.0
NS8,2.0,66.0,55.0,42.0,28.0,66.0,155.0,square1,f,0.1174,0,N,8.0
NS8,3.0,67.0,51.0,37.0,28.0,37.0,192.0,square3,j,0.3167,2,N,8.0
NS8,4.0,65.0,53.0,38.0,32.0,53.0,245.0,square2,r,0.1166,1,N,8.0
NS8,5.0,67.0,52.0,43.0,33.0,67.0,312.0,square1,f,0.1335,0,N,8.0
NS8,6.0,56.0,47.0,41.0,36.0,56.0,368.0,square1,f,0.1169,0,N,8.0
NS8,7.0,58.0,46.0,37.0,31.0,46.0,414.0,square2,r,0.1334,1,N,8.0
NS8,8.0,60.0,58.0,36.0,35.0,35.0,449.0,square4,i,0.1501,3,N,8.0
NS8,9.0,60.0,66.0,41.0,39.0,60.0,509.0,square1,f,0.1002,0,N,8.0
NS8,10.0,60.0,60.0,36.0,33.0,60.0,569.0,square1,f,0.1002,0,N,8.0
NS8,11.0,53.0,63.0,32.0,35.0,53.0,622.0,square1,f,0.1334,0,N,8.0
NS8,12.0,51.0,60.0,32.0,29.0,51.0,673.0,square1,f,0.0835,0,N,8.0
NS8,13.0,53.0,65.0,30.0,32.0,53.0,726.0,square1,f,0.116,0,N,8.0
NS8,14.0,56.0,69.0,25.0,33.0,56.0,782.0,square1,f,0.0834,0,N,8.0
NS8,15.0,57.0,71.0,29.0,35.0,57.0,839.0,square1,f,0.0668,0,N,8.0
NS8,16.0,55.0,64.0,31.0,33.0,64.0,903.0,square2,r,0.1003,1,N,8.0
NS8,17.0,48.0,65.0,29.0,32.0,65.0,968.0,square2,r,0.0004,1,N,8.0
NS8,18.0,44.0,64.0,28.0,34.0,64.0,1032.0,square2,r,0.0501,1,N,8.0
NS8,19.0,46.0,60.0,26.0,33.0,60.0,1092.0,square2,r,0.5338,1,N,8.0
NS8,20.0,41.0,58.0,29.0,35.0,58.0,1150.0,square2,r,0.2133,1,N,8.0
NS8,21.0,45.0,57.0,29.0,35.0,57.0,1207.0,square2,r,0.2998,1,N,8.0
NS8,22.0,47.0,53.0,32.0,32.0,32.0,1239.0,square4,i,0.1385,3,N,8.0
NS8,23.0,49.0,52.0,33.0,35.0,33.0,1272.0,square3,j,0.0003,2,N,8.0
NS8,24.0,56.0,53.0,30.0,37.0,56.0,1328.0,square1,f,0.3433,0,N,8.0
NS8,25.0,57.0,48.0,28.0,42.0,48.0,1376.0,square2,r,0.1336,1,N,8.0
NS8,26.0,52.0,48.0,33.0,43.0,52.0,1428.0,square1,f,0.0707,0,N,8.0
NS8,27.0,53.0,45.0,28.0,47.0,53.0,1481.0,square1,f,0.1834,0,N,8.0
NS8,28.0,50.0,43.0,27.0,41.0,50.0,1531.0,square1,f,0.191,0,N,8.0
NS8,29.0,53.0,52.0,29.0,43.0,53.0,1584.0,square1,f,0.1498,0,N,8.0
NS8,30.0,54.0,51.0,30.0,41.0,54.0,1638.0,square1,f,0.0502,0,N,8.0
NS8,31.0,50.0,50.0,31.0,42.0,31.0,1669.0,square3,j,0.1335,2,N,8.0
NS8,32.0,50.0,50.0,35.0,43.0,50.0,1719.0,square2,r,0.0786,1,N,8.0
NS8,33.0,46.0,48.0,39.0,41.0,46.0,1765.0,square1,f,0.3841,0,N,8.0
NS8,34.0,47.0,46.0,41.0,40.0,46.0,1811.0,square2,r,0.1016,1,N,8.0
NS8,35.0,57.0,45.0,36.0,37.0,37.0,1848.0,square4,i,0.1741,3,N,8.0
NS8,36.0,53.0,49.0,41.0,38.0,53.0,1901.0,square1,f,0.2522,0,N,8.0
NS8,37.0,57.0,50.0,41.0,39.0,50.0,1951.0,square2,r,0.119,1,N,8.0
NS8,38.0,61.0,51.0,39.0,43.0,61.0,2012.0,square1,f,0.287,0,N,8.0
NS8,39.0,59.0,54.0,41.0,36.0,59.0,2071.0,square1,f,0.0008,0,N,8.0
NS8,40.0,53.0,55.0,47.0,40.0,53.0,2124.0,square1,f,0.317,0,N,8.0
NS8,41.0,53.0,55.0,43.0,39.0,53.0,2177.0,square1,f,0.1505,0,N,8.0
NS8,42.0,59.0,55.0,45.0,40.0,55.0,2232.0,square2,r,0.1249,1,N,8.0
NS8,43.0,54.0,46.0,51.0,37.0,46.0,2278.0,square2,r,0.0004,1,N,8.0
NS8,44.0,56.0,44.0,50.0,35.0,56.0,2334.0,square1,f,0.0744,0,N,8.0
NS8,45.0,51.0,46.0,41.0,37.0,51.0,2385.0,square1,f,0.0835,0,N,8.0
NS8,46.0,52.0,43.0,44.0,34.0,43.0,2428.0,square2,r,0.1424,1,N,8.0
NS8,47.0,46.0,41.0,36.0,37.0,37.0,2465.0,square4,i,0.1001,3,N,8.0
NS8,48.0,47.0,46.0,39.0,37.0,39.0,2504.0,square3,j,0.0393,2,N,8.0
NS8,49.0,48.0,36.0,38.0,40.0,48.0,2552.0,square1,f,0.084,0,N,8.0
NS8,50.0,51.0,37.0,36.0,46.0,37.0,2589.0,square2,r,0.0687,1,N,8.0
NS8,51.0,53.0,38.0,40.0,43.0,53.0,2642.0,square1,f,0.0792,0,N,8.0
NS8,52.0,47.0,32.0,37.0,44.0,47.0,2689.0,square1,f,0.0968,0,N,8.0
NS8,53.0,52.0,31.0,38.0,46.0,38.0,2727.0,square3,j,0.1063,2,N,8.0
NS8,54.0,44.0,34.0,40.0,45.0,45.0,2772.0,square4,i,0.2906,3,N,8.0
NS8,55.0,46.0,26.0,37.0,41.0,46.0,2818.0,square1,f,0.0761,0,N,8.0
NS8,56.0,42.0,29.0,36.0,40.0,40.0,2858.0,square4,i,0.1167,3,N,8.0
NS8,57.0,39.0,21.0,39.0,40.0,39.0,2897.0,square1,f,0.1427,0,N,8.0
NS8,58.0,42.0,18.0,39.0,40.0,40.0,2937.0,square4,i,0.0219,3,N,8.0
NS8,59.0,46.0,16.0,41.0,39.0,46.0,2983.0,square1,f,0.2422,0,N,8.0
NS8,60.0,45.0,20.0,40.0,39.0,20.0,3003.0,square2,r,0.1894,1,N,8.0
NS8,61.0,45.0,26.0,42.0,39.0,42.0,3045.0,square3,j,0.1001,2,N,8.0
NS8,62.0,46.0,21.0,45.0,37.0,45.0,3090.0,square3,j,0.3664,2,N,8.0
NS8,63.0,50.0,23.0,40.0,38.0,40.0,3130.0,square3,j,0.1622,2,N,8.0
NS8,64.0,46.0,24.0,41.0,33.0,33.0,3163.0,square4,i,0.2407,3,N,8.0
NS8,65.0,48.0,28.0,42.0,32.0,48.0,3211.0,square1,f,0.0122,0,N,8.0
NS8,66.0,47.0,20.0,40.0,35.0,47.0,3258.0,square1,f,0.1528,0,N,8.0
NS8,67.0,49.0,25.0,46.0,34.0,49.0,3307.0,square1,f,0.0004,0,N,8.0
NS8,68.0,47.0,24.0,45.0,33.0,47.0,3354.0,square1,f,0.005,0,N,8.0
NS8,69.0,45.0,21.0,47.0,35.0,47.0,3401.0,square3,j,0.0835,2,N,8.0
NS8,70.0,44.0,21.0,47.0,37.0,47.0,3448.0,square3,j,0.0437,2,N,8.0
NS8,71.0,44.0,15.0,41.0,38.0,41.0,3489.0,square3,j,0.0503,2,N,8.0
NS8,72.0,47.0,19.0,49.0,40.0,47.0,3536.0,square1,f,0.2002,0,N,8.0
NS8,73.0,39.0,21.0,53.0,38.0,39.0,3575.0,square1,f,0.0331,0,N,8.0
NS8,74.0,42.0,19.0,53.0,35.0,53.0,3628.0,square3,j,0.2911,2,N,8.0
NS8,75.0,37.0,18.0,43.0,35.0,43.0,3671.0,square3,j,0.4523,2,N,8.0
NS8,76.0,35.0,14.0,42.0,38.0,38.0,3709.0,square4,i,0.2335,3,N,8.0
NS8,77.0,38.0,19.0,47.0,44.0,44.0,3753.0,square4,i,0.4437,3,N,8.0
NS8,78.0,38.0,18.0,50.0,46.0,18.0,3771.0,square2,r,0.2669,1,N,8.0
NS8,79.0,33.0,22.0,54.0,44.0,54.0,3825.0,square3,j,0.1772,2,N,8.0
NS8,80.0,38.0,21.0,56.0,52.0,56.0,3881.0,square3,j,0.1007,2,N,8.0
NS8,81.0,37.0,22.0,56.0,43.0,56.0,3937.0,square3,j,0.1285,2,N,8.0
NS8,82.0,30.0,26.0,60.0,42.0,60.0,3997.0,square3,j,0.1002,2,N,8.0
NS8,83.0,38.0,22.0,54.0,46.0,54.0,4051.0,square3,j,0.0502,2,N,8.0
NS8,84.0,33.0,18.0,52.0,46.0,33.0,4084.0,square1,f,0.2294,0,N,8.0
NS8,85.0,42.0,12.0,57.0,48.0,57.0,4141.0,square3,j,0.0094,2,N,8.0
NS8,86.0,45.0,19.0,58.0,42.0,42.0,4183.0,square4,i,0.217,3,N,8.0
NS8,87.0,46.0,10.0,65.0,44.0,65.0,4248.0,square3,j,0.2501,2,N,8.0
NS8,88.0,45.0,11.0,59.0,45.0,59.0,4307.0,square3,j,0.1335,2,N,8.0
NS8,89.0,42.0,11.0,60.0,47.0,60.0,4367.0,square3,j,0.1581,2,N,8.0
NS8,90.0,40.0,7.0,64.0,49.0,7.0,4374.0,square2,r,0.1728,1,N,8.0
NS8,91.0,42.0,11.0,64.0,48.0,48.0,4422.0,square4,i,0.15,3,N,8.0
NS8,92.0,43.0,13.0,60.0,43.0,60.0,4482.0,square3,j,0.0334,2,N,8.0
NS8,93.0,44.0,12.0,64.0,45.0,64.0,4546.0,square3,j,0.0668,2,N,8.0
NS8,94.0,45.0,16.0,65.0,49.0,65.0,4611.0,square3,j,0.2006,2,N,8.0
NS8,95.0,45.0,24.0,66.0,42.0,66.0,4677.0,square3,j,0.1669,2,N,8.0
NS8,96.0,53.0,27.0,67.0,44.0,67.0,4744.0,square3,j,0.1664,2,N,8.0
NS8,97.0,50.0,29.0,68.0,43.0,68.0,4812.0,square3,j,0.2502,2,N,8.0
NS8,98.0,52.0,29.0,66.0,37.0,66.0,4878.0,square3,j,0.0942,2,N,8.0
NS8,99.0,53.0,32.0,65.0,37.0,65.0,4943.0,square3,j,0.0959,2,N,8.0
NS2,0.0,44.0,66.0,42.0,38.0,38.0,38.0,square4,r,0.5928,3,N,2.0
NS2,1.0,44.0,66.0,47.0,43.0,66.0,104.0,square2,f,0.2864,1,N,2.0
NS2,2.0,42.0,62.0,53.0,43.0,42.0,146.0,square1,j,0.2663,0,N,2.0
NS2,3.0,46.0,58.0,48.0,46.0,48.0,194.0,square3,i,0.0005,2,N,2.0
NS2,4.0,47.0,61.0,51.0,42.0,61.0,255.0,square2,f,0.2954,1,N,2.0
NS2,5.0,51.0,58.0,50.0,50.0,58.0,313.0,square2,f,0.2006,1,N,2.0
NS2,6.0,52.0,58.0,43.0,48.0,58.0,371.0,square2,f,0.0834,1,N,2.0
NS2,7.0,50.0,52.0,43.0,50.0,52.0,423.0,square2,f,0.2163,1,N,2.0
NS2,8.0,54.0,58.0,41.0,46.0,58.0,481.0,square2,f,0.0834,1,N,2.0
NS2,9.0,52.0,59.0,42.0,46.0,42.0,523.0,square3,i,0.1834,2,N,2.0
NS2,10.0,50.0,52.0,37.0,48.0,52.0,575.0,square2,f,0.0515,1,N,2.0
NS2,11.0,45.0,56.0,38.0,43.0,56.0,631.0,square2,f,0.0003,1,N,2.0
NS2,12.0,50.0,56.0,37.0,48.0,50.0,681.0,square1,j,0.1163,0,N,2.0
NS2,13.0,47.0,63.0,36.0,49.0,63.0,744.0,square2,f,0.0833,1,N,2.0
NS2,14.0,51.0,56.0,39.0,49.0,56.0,800.0,square2,f,0.0004,1,N,2.0
NS2,15.0,46.0,64.0,39.0,50.0,64.0,864.0,square2,f,0.0029,1,N,2.0
NS2,16.0,51.0,61.0,37.0,47.0,51.0,915.0,square1,j,0.1001,0,N,2.0
NS2,17.0,59.0,68.0,46.0,53.0,68.0,983.0,square2,f,0.0169,1,N,2.0
NS2,18.0,53.0,65.0,42.0,49.0,65.0,1048.0,square2,f,0.0937,1,N,2.0
NS2,19.0,52.0,67.0,47.0,49.0,67.0,1115.0,square2,f,0.2333,1,N,2.0
NS2,20.0,56.0,64.0,45.0,48.0,64.0,1179.0,square2,f,0.4832,1,N,2.0
NS2,21.0,57.0,73.0,46.0,44.0,44.0,1223.0,square4,r,0.1888,3,N,2.0
NS2,22.0,54.0,76.0,36.0,47.0,76.0,1299.0,square2,f,0.3216,1,N,2.0
NS2,23.0,55.0,77.0,35.0,42.0,77.0,1376.0,square2,f,0.1501,1,N,2.0
NS2,24.0,53.0,68.0,35.0,46.0,68.0,1444.0,square2,f,0.0335,1,N,2.0
NS2,25.0,55.0,73.0,29.0,45.0,29.0,1473.0,square3,i,0.1334,2,N,2.0
NS2,26.0,52.0,69.0,30.0,49.0,69.0,1542.0,square2,f,0.1497,1,N,2.0
NS2,27.0,52.0,62.0,33.0,52.0,62.0,1604.0,square2,f,0.0918,1,N,2.0
NS2,28.0,58.0,62.0,33.0,47.0,62.0,1666.0,square2,f,0.0772,1,N,2.0
NS2,29.0,56.0,65.0,38.0,46.0,65.0,1731.0,square2,f,0.1191,1,N,2.0
NS2,30.0,56.0,66.0,37.0,50.0,66.0,1797.0,square2,f,0.1835,1,N,2.0
NS2,31.0,50.0,64.0,35.0,45.0,64.0,1861.0,square2,f,0.05,1,N,2.0
NS2,32.0,56.0,62.0,38.0,45.0,62.0,1923.0,square2,f,0.0501,1,N,2.0
NS2,33.0,59.0,58.0,34.0,48.0,59.0,1982.0,square1,j,0.1168,0,N,2.0
NS2,34.0,55.0,59.0,36.0,48.0,48.0,2030.0,square4,r,0.1003,3,N,2.0
NS2,35.0,54.0,57.0,33.0,48.0,57.0,2087.0,square2,f,0.0006,1,N,2.0
NS2,36.0,53.0,58.0,34.0,51.0,53.0,2140.0,square1,j,0.0357,0,N,2.0
NS2,37.0,46.0,53.0,32.0,55.0,53.0,2193.0,square2,f,0.1181,1,N,2.0
NS2,38.0,46.0,59.0,37.0,49.0,46.0,2239.0,square1,j,0.0381,0,N,2.0
NS2,39.0,53.0,59.0,36.0,48.0,48.0,2287.0,square4,r,0.2015,3,N,2.0
NS2,40.0,46.0,60.0,37.0,42.0,42.0,2329.0,square4,r,0.1022,3,N,2.0
NS2,41.0,51.0,57.0,42.0,41.0,57.0,2386.0,square2,f,0.1268,1,N,2.0
NS2,42.0,49.0,53.0,46.0,41.0,49.0,2435.0,square1,j,0.2066,0,N,2.0
NS2,43.0,49.0,57.0,43.0,39.0,57.0,2492.0,square2,f,0.0755,1,N,2.0
NS2,44.0,48.0,55.0,48.0,37.0,55.0,2547.0,square2,f,0.1896,1,N,2.0
NS2,45.0,49.0,52.0,34.0,36.0,52.0,2599.0,square2,f,0.2168,1,N,2.0
NS2,46.0,50.0,46.0,39.0,34.0,50.0,2649.0,square1,j,0.2501,0,N,2.0
NS2,47.0,55.0,48.0,39.0,26.0,39.0,2688.0,square3,i,0.139,2,N,2.0
NS2,48.0,55.0,42.0,41.0,31.0,42.0,2730.0,square2,f,0.1668,1,N,2.0
NS2,49.0,55.0,41.0,36.0,36.0,55.0,2785.0,square1,j,0.241,0,N,2.0
NS2,50.0,50.0,43.0,43.0,36.0,50.0,2835.0,square1,j,0.0335,0,N,2.0
NS2,51.0,49.0,40.0,44.0,32.0,49.0,2884.0,square1,j,0.1835,0,N,2.0
NS2,52.0,54.0,45.0,40.0,32.0,54.0,2938.0,square1,j,0.0165,0,N,2.0
NS2,53.0,55.0,44.0,42.0,38.0,44.0,2982.0,square2,f,0.1306,1,N,2.0
NS2,54.0,57.0,44.0,42.0,37.0,57.0,3039.0,square1,j,0.3502,0,N,2.0
NS2,55.0,56.0,47.0,35.0,29.0,56.0,3095.0,square1,j,0.0003,0,N,2.0
NS2,56.0,56.0,45.0,31.0,36.0,36.0,3131.0,square4,r,0.1271,3,N,2.0
NS2,57.0,48.0,43.0,33.0,36.0,33.0,3164.0,square3,i,0.3512,2,N,2.0
NS2,58.0,46.0,44.0,30.0,40.0,46.0,3210.0,square1,j,0.0858,0,N,2.0
NS2,59.0,45.0,36.0,33.0,37.0,45.0,3255.0,square1,j,0.2232,0,N,2.0
NS2,60.0,45.0,37.0,32.0,38.0,37.0,3292.0,square2,f,0.3953,1,N,2.0
NS2,61.0,47.0,37.0,31.0,37.0,47.0,3339.0,square1,j,0.3001,0,N,2.0
NS2,62.0,46.0,36.0,28.0,34.0,46.0,3385.0,square1,j,0.2335,0,N,2.0
NS2,63.0,53.0,36.0,26.0,43.0,53.0,3438.0,square1,j,0.158,0,N,2.0
NS2,64.0,53.0,37.0,24.0,45.0,24.0,3462.0,square3,i,0.1669,2,N,2.0
NS2,65.0,49.0,34.0,27.0,49.0,49.0,3511.0,square4,r,0.1331,3,N,2.0
NS2,66.0,50.0,30.0,26.0,57.0,50.0,3561.0,square1,j,0.1334,0,N,2.0
NS2,67.0,49.0,28.0,32.0,55.0,55.0,3616.0,square4,r,0.1868,3,N,2.0
NS2,68.0,53.0,23.0,35.0,55.0,23.0,3639.0,square2,f,0.096,1,N,2.0
NS2,69.0,49.0,29.0,33.0,51.0,51.0,3690.0,square4,r,0.3668,3,N,2.0
NS2,70.0,54.0,27.0,30.0,60.0,60.0,3750.0,square4,r,0.2002,3,N,2.0
NS2,71.0,57.0,28.0,31.0,59.0,59.0,3809.0,square4,r,0.4507,3,N,2.0
NS2,72.0,55.0,25.0,29.0,61.0,61.0,3870.0,square4,r,0.2084,3,N,2.0
NS2,73.0,63.0,29.0,31.0,56.0,56.0,3926.0,square4,r,0.0004,3,N,2.0
NS2,74.0,59.0,34.0,34.0,58.0,58.0,3984.0,square4,r,0.2666,3,N,2.0
NS2,75.0,58.0,37.0,31.0,53.0,58.0,4042.0,square1,j,0.2042,0,N,2.0
NS2,76.0,62.0,41.0,25.0,53.0,62.0,4104.0,square1,j,0.1668,0,N,2.0
NS2,77.0,60.0,37.0,30.0,52.0,52.0,4156.0,square4,r,0.1502,3,N,2.0
NS2,78.0,63.0,37.0,37.0,50.0,63.0,4219.0,square1,j,0.0468,0,N,2.0
NS2,79.0,66.0,44.0,32.0,47.0,66.0,4285.0,square1,j,0.2334,0,N,2.0
NS2,80.0,65.0,41.0,30.0,45.0,30.0,4315.0,square3,i,0.1831,2,N,2.0
NS2,81.0,60.0,37.0,26.0,49.0,60.0,4375.0,square1,j,0.0003,0,N,2.0
NS2,82.0,68.0,38.0,28.0,46.0,38.0,4413.0,square2,f,0.0094,1,N,2.0
NS2,83.0,63.0,42.0,30.0,49.0,63.0,4476.0,square1,j,0.0169,0,N,2.0
NS2,84.0,71.0,41.0,37.0,51.0,71.0,4547.0,square1,j,0.0905,0,N,2.0
NS2,85.0,63.0,47.0,29.0,40.0,63.0,4610.0,square1,j,0.0336,0,N,2.0
NS2,86.0,67.0,42.0,36.0,44.0,44.0,4654.0,square4,r,0.0502,3,N,2.0
NS2,87.0,62.0,45.0,31.0,41.0,62.0,4716.0,square1,j,0.3335,0,N,2.0
NS2,88.0,63.0,39.0,32.0,44.0,63.0,4779.0,square1,j,0.0359,0,N,2.0
NS2,89.0,66.0,39.0,37.0,39.0,37.0,4816.0,square3,i,0.0786,2,N,2.0
NS2,90.0,53.0,38.0,35.0,40.0,53.0,4869.0,square1,j,0.5211,0,N,2.0
NS2,91.0,57.0,39.0,38.0,43.0,57.0,4926.0,square1,j,0.2087,0,N,2.0
NS2,92.0,53.0,36.0,40.0,47.0,53.0,4979.0,square1,j,0.2053,0,N,2.0
NS2,93.0,47.0,39.0,43.0,38.0,47.0,5026.0,square1,j,0.0502,0,N,2.0
NS2,94.0,45.0,33.0,46.0,40.0,40.0,5066.0,square4,r,0.1334,3,N,2.0
NS2,95.0,49.0,38.0,53.0,36.0,49.0,5115.0,square1,j,0.0854,0,N,2.0
NS2,96.0,50.0,39.0,46.0,34.0,34.0,5149.0,square4,r,0.063,3,N,2.0
NS2,97.0,57.0,37.0,44.0,41.0,37.0,5186.0,square2,f,0.0415,1,N,2.0
NS2,98.0,55.0,43.0,39.0,43.0,39.0,5225.0,square3,i,0.0048,2,N,2.0
NS2,99.0,56.0,46.0,41.0,41.0,56.0,5281.0,square1,j,0.0168,0,N,2.0
