block,Trial,square1,square2,square3,square4,currPoints,totalPoints,square,choiceKey.keys,choiceKey.rt,armNum,blockType,blockNum
prac,0.0,100.0,0.0,0.0,0.0,0,0.0,square4,,,3,p,0.0
prac,1.0,100.0,0.0,0.0,0.0,0,0.0,square3,,,2,p,0.0
prac,2.0,100.0,0.0,0.0,0.0,0,0.0,square2,,,1,p,0.0
prac,3.0,100.0,0.0,0.0,0.0,100,100.0,square1,,,0,p,0.0
prac,4.0,100.0,0.0,0.0,0.0,100,200.0,square1,,,0,p,0.0
prac,5.0,100.0,0.0,0.0,0.0,100,300.0,square1,,,0,p,0.0
prac,6.0,100.0,0.0,0.0,0.0,100,400.0,square1,,,0,p,0.0
prac,7.0,100.0,0.0,0.0,0.0,100,500.0,square1,,,0,p,0.0
prac,8.0,100.0,0.0,0.0,0.0,100,600.0,square1,,,0,p,0.0
prac,9.0,100.0,0.0,0.0,0.0,100,700.0,square1,,,0,p,0.0
V11,0.0,42.0,67.0,57.0,49.0,42,42.0,square1,i,0.7074,0,V,11.0
V11,1.0,42.0,71.0,60.0,53.0,60,102.0,square3,f,0.2188,2,V,11.0
V11,2.0,45.0,76.0,58.0,51.0,51,153.0,square4,j,0.039,3,V,11.0
V11,3.0,44.0,65.0,60.0,49.0,65,218.0,square2,r,0.3454,1,V,11.0
V11,4.0,46.0,73.0,64.0,51.0,46,264.0,square1,i,0.1594,0,V,11.0
V11,5.0,47.0,67.0,58.0,54.0,58,322.0,square3,f,0.0474,2,V,11.0
V11,6.0,43.0,68.0,58.0,50.0,50,372.0,square4,j,0.3924,3,V,11.0
V11,7.0,42.0,67.0,60.0,58.0,67,439.0,square2,r,0.0849,1,V,11.0
V11,8.0,44.0,67.0,60.0,53.0,67,506.0,square2,r,0.0335,1,V,11.0
V11,9.0,44.0,67.0,59.0,54.0,67,573.0,square2,r,0.3156,1,V,11.0
V11,10.0,49.0,76.0,57.0,52.0,76,649.0,square2,r,0.2084,1,V,11.0
V11,11.0,45.0,71.0,58.0,51.0,71,720.0,square2,r,0.4592,1,V,11.0
V11,12.0,45.0,72.0,58.0,56.0,56,776.0,square4,j,0.0429,3,V,11.0
V11,13.0,49.0,67.0,63.0,54.0,63,839.0,square3,f,0.2936,2,V,11.0
V11,14.0,50.0,75.0,57.0,48.0,57,896.0,square3,f,0.2911,2,V,11.0
V11,15.0,40.0,71.0,61.0,51.0,71,967.0,square2,r,0.1944,1,V,11.0
V11,16.0,47.0,72.0,56.0,54.0,72,1039.0,square2,r,0.0636,1,V,11.0
V11,17.0,40.0,71.0,61.0,46.0,71,1110.0,square2,r,0.5815,1,V,11.0
V11,18.0,44.0,69.0,59.0,51.0,69,1179.0,square2,r,0.2104,1,V,11.0
V11,19.0,44.0,73.0,59.0,47.0,44,1223.0,square1,i,0.0257,0,V,11.0
V11,20.0,47.0,69.0,64.0,54.0,69,1292.0,square2,r,0.1785,1,V,11.0
V11,21.0,78.0,49.0,70.0,65.0,49,1341.0,square2,r,0.1175,1,V,11.0
V11,22.0,78.0,56.0,73.0,62.0,73,1414.0,square3,f,0.4135,2,V,11.0
V11,23.0,84.0,54.0,71.0,65.0,71,1485.0,square3,f,0.1266,2,V,11.0
V11,24.0,80.0,55.0,72.0,67.0,72,1557.0,square3,f,0.5954,2,V,11.0
V11,25.0,80.0,55.0,75.0,63.0,75,1632.0,square3,f,0.1866,2,V,11.0
V11,26.0,80.0,56.0,67.0,62.0,67,1699.0,square3,f,0.0608,2,V,11.0
V11,27.0,80.0,51.0,68.0,62.0,62,1761.0,square4,j,0.1348,3,V,11.0
V11,28.0,79.0,57.0,67.0,57.0,67,1828.0,square3,f,0.0958,2,V,11.0
V11,29.0,79.0,50.0,67.0,62.0,67,1895.0,square3,f,0.0434,2,V,11.0
V11,30.0,88.0,54.0,74.0,61.0,74,1969.0,square3,f,0.1099,2,V,11.0
V11,31.0,81.0,51.0,75.0,63.0,75,2044.0,square3,f,0.4718,2,V,11.0
V11,32.0,76.0,51.0,69.0,65.0,69,2113.0,square3,f,0.2087,2,V,11.0
V11,33.0,78.0,54.0,72.0,64.0,72,2185.0,square3,f,0.1479,2,V,11.0
V11,34.0,77.0,53.0,71.0,62.0,71,2256.0,square3,f,0.3633,2,V,11.0
V11,35.0,74.0,59.0,75.0,62.0,75,2331.0,square3,f,0.0576,2,V,11.0
V11,36.0,79.0,50.0,72.0,62.0,72,2403.0,square3,f,0.0523,2,V,11.0
V11,37.0,74.0,54.0,68.0,62.0,68,2471.0,square3,f,0.2079,2,V,11.0
V11,38.0,80.0,57.0,65.0,58.0,65,2536.0,square3,f,0.3578,2,V,11.0
V11,39.0,73.0,52.0,75.0,66.0,66,2602.0,square4,j,0.2651,3,V,11.0
V11,40.0,82.0,57.0,71.0,57.0,57,2659.0,square4,j,0.3263,3,V,11.0
V11,41.0,78.0,53.0,73.0,64.0,73,2732.0,square3,f,0.2581,2,V,11.0
V11,42.0,72.0,56.0,67.0,59.0,67,2799.0,square3,f,0.1482,2,V,11.0
V11,43.0,81.0,54.0,73.0,63.0,81,2880.0,square1,i,0.3398,0,V,11.0
V11,44.0,76.0,54.0,75.0,59.0,76,2956.0,square1,i,0.3764,0,V,11.0
V11,45.0,79.0,59.0,71.0,64.0,79,3035.0,square1,i,0.2361,0,V,11.0
V11,46.0,80.0,55.0,67.0,57.0,55,3090.0,square2,r,0.0237,1,V,11.0
V11,47.0,84.0,53.0,75.0,56.0,84,3174.0,square1,i,0.4205,0,V,11.0
V11,48.0,83.0,57.0,71.0,60.0,83,3257.0,square1,i,0.3026,0,V,11.0
V11,49.0,79.0,52.0,71.0,60.0,79,3336.0,square1,i,0.2093,0,V,11.0
V11,50.0,76.0,50.0,69.0,60.0,76,3412.0,square1,i,0.0015,0,V,11.0
V11,51.0,79.0,54.0,72.0,57.0,79,3491.0,square1,i,0.4093,0,V,11.0
V11,52.0,80.0,54.0,72.0,64.0,80,3571.0,square1,i,0.3197,0,V,11.0
V11,53.0,35.0,50.0,55.0,69.0,35,3606.0,square1,i,0.4916,0,V,11.0
V11,54.0,45.0,48.0,55.0,73.0,45,3651.0,square1,i,0.1115,0,V,11.0
V11,55.0,43.0,53.0,58.0,70.0,58,3709.0,square3,f,0.0806,2,V,11.0
V11,56.0,40.0,46.0,60.0,62.0,62,3771.0,square4,j,0.2487,3,V,11.0
V11,57.0,44.0,46.0,53.0,71.0,46,3817.0,square2,r,0.1258,1,V,11.0
V11,58.0,44.0,52.0,55.0,68.0,55,3872.0,square3,f,0.0936,2,V,11.0
V11,59.0,44.0,44.0,57.0,66.0,66,3938.0,square4,j,0.0076,3,V,11.0
V11,60.0,40.0,46.0,57.0,62.0,62,4000.0,square4,j,0.2247,3,V,11.0
V11,61.0,42.0,52.0,58.0,62.0,42,4042.0,square1,i,0.3454,0,V,11.0
V11,62.0,40.0,49.0,56.0,71.0,71,4113.0,square4,j,0.0663,3,V,11.0
V11,63.0,40.0,54.0,60.0,66.0,66,4179.0,square4,j,0.2317,3,V,11.0
V11,64.0,41.0,43.0,51.0,66.0,43,4222.0,square2,r,0.1148,1,V,11.0
V11,65.0,39.0,48.0,59.0,66.0,59,4281.0,square3,f,0.03,2,V,11.0
V11,66.0,40.0,48.0,59.0,69.0,69,4350.0,square4,j,0.1651,3,V,11.0
V11,67.0,46.0,45.0,58.0,69.0,69,4419.0,square4,j,0.3801,3,V,11.0
V11,68.0,41.0,50.0,56.0,69.0,69,4488.0,square4,j,0.2307,3,V,11.0
V11,69.0,48.0,49.0,57.0,71.0,71,4559.0,square4,j,0.7923,3,V,11.0
V11,70.0,41.0,47.0,58.0,65.0,65,4624.0,square4,j,0.2356,3,V,11.0
V11,71.0,37.0,46.0,58.0,60.0,60,4684.0,square4,j,0.2444,3,V,11.0
V11,72.0,41.0,47.0,54.0,65.0,65,4749.0,square4,j,0.1112,3,V,11.0
V11,73.0,42.0,47.0,60.0,67.0,60,4809.0,square3,f,0.2447,2,V,11.0
V11,74.0,43.0,49.0,57.0,64.0,43,4852.0,square1,i,0.3147,0,V,11.0
V11,75.0,38.0,46.0,57.0,66.0,46,4898.0,square2,r,0.3597,1,V,11.0
V11,76.0,42.0,50.0,58.0,68.0,68,4966.0,square4,j,0.296,3,V,11.0
V11,77.0,36.0,49.0,58.0,64.0,64,5030.0,square4,j,0.582,3,V,11.0
V11,78.0,40.0,50.0,56.0,67.0,67,5097.0,square4,j,0.5348,3,V,11.0
V11,79.0,39.0,48.0,56.0,67.0,67,5164.0,square4,j,0.2956,3,V,11.0
V11,80.0,51.0,33.0,30.0,45.0,45,5209.0,square4,j,0.0249,3,V,11.0
V11,81.0,49.0,31.0,23.0,48.0,23,5232.0,square3,f,0.4181,2,V,11.0
V11,82.0,55.0,30.0,25.0,42.0,55,5287.0,square1,i,0.2279,0,V,11.0
V11,83.0,50.0,33.0,27.0,48.0,33,5320.0,square2,r,0.145,1,V,11.0
V11,84.0,52.0,34.0,25.0,43.0,52,5372.0,square1,i,0.1951,0,V,11.0
V11,85.0,49.0,28.0,28.0,44.0,44,5416.0,square4,j,0.0436,3,V,11.0
V11,86.0,57.0,29.0,27.0,48.0,57,5473.0,square1,i,0.2081,0,V,11.0
V11,87.0,49.0,29.0,21.0,38.0,49,5522.0,square1,i,0.1943,0,V,11.0
V11,88.0,55.0,32.0,29.0,46.0,55,5577.0,square1,i,0.0412,0,V,11.0
V11,89.0,50.0,28.0,23.0,43.0,50,5627.0,square1,i,0.3694,0,V,11.0
V11,90.0,54.0,34.0,32.0,41.0,34,5661.0,square2,r,0.3579,1,V,11.0
V11,91.0,50.0,34.0,26.0,44.0,26,5687.0,square3,f,0.0768,2,V,11.0
V11,92.0,51.0,31.0,27.0,50.0,50,5737.0,square4,j,0.1185,3,V,11.0
V11,93.0,49.0,38.0,28.0,42.0,42,5779.0,square4,j,0.2341,3,V,11.0
V11,94.0,50.0,29.0,25.0,46.0,50,5829.0,square1,i,0.2093,0,V,11.0
V11,95.0,51.0,36.0,22.0,40.0,51,5880.0,square1,i,0.1766,0,V,11.0
V11,96.0,52.0,34.0,32.0,45.0,52,5932.0,square1,i,0.2008,0,V,11.0
V11,97.0,53.0,27.0,32.0,44.0,53,5985.0,square1,i,0.0576,0,V,11.0
V11,98.0,60.0,31.0,25.0,48.0,60,6045.0,square1,i,0.0693,0,V,11.0
V11,99.0,53.0,33.0,23.0,42.0,53,6098.0,square1,i,0.0281,0,V,11.0
V4,0.0,63.0,38.0,47.0,55.0,63,63.0,square1,r,1.7141,0,V,4.0
V4,1.0,66.0,42.0,43.0,59.0,66,129.0,square1,r,0.1011,0,V,4.0
V4,2.0,66.0,39.0,57.0,59.0,39,168.0,square2,j,0.1976,1,V,4.0
V4,3.0,66.0,37.0,51.0,59.0,51,219.0,square3,i,0.7175,2,V,4.0
V4,4.0,69.0,37.0,50.0,55.0,55,274.0,square4,f,0.3697,3,V,4.0
V4,5.0,64.0,44.0,46.0,62.0,64,338.0,square1,r,0.0424,0,V,4.0
V4,6.0,75.0,43.0,49.0,57.0,75,413.0,square1,r,0.0632,0,V,4.0
V4,7.0,62.0,41.0,52.0,59.0,62,475.0,square1,r,0.6128,0,V,4.0
V4,8.0,65.0,41.0,44.0,60.0,44,519.0,square3,i,0.1163,2,V,4.0
V4,9.0,68.0,35.0,44.0,64.0,64,583.0,square4,f,0.3615,3,V,4.0
V4,10.0,67.0,44.0,48.0,61.0,61,644.0,square4,f,0.1711,3,V,4.0
V4,11.0,61.0,40.0,48.0,56.0,40,684.0,square2,j,1.8759,1,V,4.0
V4,12.0,68.0,41.0,49.0,55.0,68,752.0,square1,r,0.4315,0,V,4.0
V4,13.0,63.0,42.0,47.0,60.0,60,812.0,square4,f,0.3184,3,V,4.0
V4,14.0,63.0,40.0,51.0,55.0,63,875.0,square1,r,0.263,0,V,4.0
V4,15.0,62.0,41.0,52.0,62.0,62,937.0,square1,r,0.3259,0,V,4.0
V4,16.0,69.0,37.0,47.0,60.0,69,1006.0,square1,r,0.1772,0,V,4.0
V4,17.0,66.0,40.0,48.0,56.0,48,1054.0,square3,i,0.2526,2,V,4.0
V4,18.0,67.0,43.0,47.0,59.0,67,1121.0,square1,r,0.1916,0,V,4.0
V4,19.0,64.0,42.0,51.0,59.0,59,1180.0,square4,f,0.3435,3,V,4.0
V4,20.0,67.0,40.0,47.0,58.0,40,1220.0,square2,j,0.1283,1,V,4.0
V4,21.0,60.0,41.0,50.0,59.0,60,1280.0,square1,r,0.198,0,V,4.0
V4,22.0,66.0,43.0,54.0,55.0,66,1346.0,square1,r,0.1936,0,V,4.0
V4,23.0,67.0,37.0,50.0,62.0,67,1413.0,square1,r,0.2015,0,V,4.0
V4,24.0,67.0,37.0,49.0,60.0,67,1480.0,square1,r,0.0285,0,V,4.0
V4,25.0,67.0,39.0,55.0,52.0,67,1547.0,square1,r,0.4579,0,V,4.0
V4,26.0,64.0,39.0,51.0,63.0,64,1611.0,square1,r,0.1258,0,V,4.0
V4,27.0,68.0,36.0,55.0,60.0,68,1679.0,square1,r,0.2341,0,V,4.0
V4,28.0,67.0,40.0,46.0,54.0,67,1746.0,square1,r,0.1269,0,V,4.0
V4,29.0,67.0,41.0,50.0,57.0,67,1813.0,square1,r,0.1434,0,V,4.0
V4,30.0,66.0,39.0,49.0,53.0,66,1879.0,square1,r,0.0578,0,V,4.0
V4,31.0,70.0,38.0,48.0,58.0,70,1949.0,square1,r,1.0183,0,V,4.0
V4,32.0,63.0,40.0,53.0,61.0,63,2012.0,square1,r,0.3352,0,V,4.0
V4,33.0,66.0,41.0,51.0,56.0,66,2078.0,square1,r,0.1776,0,V,4.0
V4,34.0,64.0,39.0,46.0,57.0,64,2142.0,square1,r,0.234,0,V,4.0
V4,35.0,69.0,36.0,50.0,58.0,69,2211.0,square1,r,0.5092,0,V,4.0
V4,36.0,60.0,43.0,53.0,54.0,60,2271.0,square1,r,0.4272,0,V,4.0
V4,37.0,52.0,78.0,68.0,66.0,52,2323.0,square1,r,0.4453,0,V,4.0
V4,38.0,44.0,81.0,68.0,62.0,44,2367.0,square1,r,0.0089,0,V,4.0
V4,39.0,59.0,71.0,70.0,63.0,71,2438.0,square2,j,0.1139,1,V,4.0
V4,40.0,53.0,77.0,73.0,59.0,77,2515.0,square2,j,0.1455,1,V,4.0
V4,41.0,53.0,76.0,74.0,66.0,76,2591.0,square2,j,0.043,1,V,4.0
V4,42.0,51.0,79.0,73.0,59.0,79,2670.0,square2,j,0.1265,1,V,4.0
V4,43.0,48.0,76.0,68.0,65.0,76,2746.0,square2,j,0.3089,1,V,4.0
V4,44.0,57.0,83.0,78.0,63.0,83,2829.0,square2,j,0.261,1,V,4.0
V4,45.0,54.0,74.0,69.0,61.0,74,2903.0,square2,j,0.2413,1,V,4.0
V4,46.0,53.0,85.0,66.0,62.0,85,2988.0,square2,j,0.4936,1,V,4.0
V4,47.0,56.0,83.0,68.0,57.0,83,3071.0,square2,j,0.3929,1,V,4.0
V4,48.0,49.0,74.0,73.0,59.0,74,3145.0,square2,j,0.4609,1,V,4.0
V4,49.0,54.0,74.0,70.0,60.0,74,3219.0,square2,j,0.2924,1,V,4.0
V4,50.0,47.0,83.0,69.0,60.0,83,3302.0,square2,j,0.3306,1,V,4.0
V4,51.0,54.0,78.0,73.0,56.0,78,3380.0,square2,j,0.1681,1,V,4.0
V4,52.0,52.0,76.0,71.0,58.0,76,3456.0,square2,j,0.0499,1,V,4.0
V4,53.0,51.0,82.0,76.0,63.0,82,3538.0,square2,j,0.2996,1,V,4.0
V4,54.0,57.0,76.0,69.0,64.0,76,3614.0,square2,j,0.4509,1,V,4.0
V4,55.0,49.0,75.0,68.0,59.0,75,3689.0,square2,j,0.6293,1,V,4.0
V4,56.0,55.0,81.0,66.0,65.0,81,3770.0,square2,j,0.2837,1,V,4.0
V4,57.0,58.0,80.0,72.0,63.0,80,3850.0,square2,j,0.0094,1,V,4.0
V4,58.0,49.0,81.0,66.0,62.0,81,3931.0,square2,j,0.0943,1,V,4.0
V4,59.0,57.0,78.0,73.0,59.0,78,4009.0,square2,j,0.2993,1,V,4.0
V4,60.0,48.0,79.0,66.0,59.0,79,4088.0,square2,j,0.3415,1,V,4.0
V4,61.0,53.0,80.0,72.0,60.0,80,4168.0,square2,j,0.2293,1,V,4.0
V4,62.0,53.0,79.0,70.0,61.0,79,4247.0,square2,j,0.2785,1,V,4.0
V4,63.0,81.0,66.0,90.0,66.0,66,4313.0,square2,j,0.1113,1,V,4.0
V4,64.0,80.0,64.0,85.0,76.0,64,4377.0,square2,j,1.7768,1,V,4.0
V4,65.0,77.0,61.0,92.0,74.0,61,4438.0,square2,j,0.6193,1,V,4.0
V4,66.0,89.0,65.0,91.0,73.0,65,4503.0,square2,j,0.2966,1,V,4.0
V4,67.0,86.0,64.0,92.0,70.0,64,4567.0,square2,j,0.5119,1,V,4.0
V4,68.0,82.0,60.0,91.0,77.0,60,4627.0,square2,j,1.1521,1,V,4.0
V4,69.0,78.0,69.0,90.0,70.0,69,4696.0,square2,j,0.269,1,V,4.0
V4,70.0,85.0,64.0,95.0,73.0,64,4760.0,square2,j,0.3923,1,V,4.0
V4,71.0,85.0,61.0,88.0,69.0,61,4821.0,square2,j,0.2627,1,V,4.0
V4,72.0,86.0,63.0,87.0,75.0,63,4884.0,square2,j,0.9019,1,V,4.0
V4,73.0,86.0,69.0,92.0,70.0,69,4953.0,square2,j,0.2597,1,V,4.0
V4,74.0,81.0,62.0,90.0,69.0,62,5015.0,square2,j,0.4951,1,V,4.0
V4,75.0,83.0,66.0,88.0,74.0,66,5081.0,square2,j,0.3583,1,V,4.0
V4,76.0,80.0,64.0,92.0,75.0,64,5145.0,square2,j,0.5597,1,V,4.0
V4,77.0,81.0,65.0,91.0,74.0,65,5210.0,square2,j,0.2829,1,V,4.0
V4,78.0,78.0,70.0,89.0,73.0,70,5280.0,square2,j,0.8275,1,V,4.0
V4,79.0,84.0,66.0,85.0,75.0,66,5346.0,square2,j,1.9,1,V,4.0
V4,80.0,83.0,65.0,93.0,74.0,65,5411.0,square2,j,0.8271,1,V,4.0
V4,81.0,86.0,59.0,91.0,74.0,59,5470.0,square2,j,0.4265,1,V,4.0
V4,82.0,87.0,64.0,92.0,73.0,73,5543.0,square4,f,0.2131,3,V,4.0
V4,83.0,83.0,68.0,86.0,70.0,70,5613.0,square4,f,0.0927,3,V,4.0
V4,84.0,82.0,62.0,87.0,73.0,73,5686.0,square4,f,0.502,3,V,4.0
V4,85.0,85.0,61.0,90.0,70.0,70,5756.0,square4,f,0.2614,3,V,4.0
V4,86.0,84.0,66.0,97.0,71.0,97,5853.0,square3,i,0.1933,2,V,4.0
V4,87.0,82.0,64.0,87.0,71.0,87,5940.0,square3,i,0.3085,2,V,4.0
V4,88.0,80.0,67.0,93.0,72.0,93,6033.0,square3,i,0.0815,2,V,4.0
V4,89.0,78.0,64.0,92.0,75.0,92,6125.0,square3,i,0.009,2,V,4.0
V4,90.0,75.0,66.0,88.0,72.0,88,6213.0,square3,i,0.6506,2,V,4.0
V4,91.0,82.0,59.0,91.0,76.0,82,6295.0,square1,r,0.7132,0,V,4.0
V4,92.0,84.0,62.0,91.0,70.0,91,6386.0,square3,i,0.1455,2,V,4.0
V4,93.0,80.0,61.0,94.0,76.0,94,6480.0,square3,i,0.0631,2,V,4.0
V4,94.0,83.0,64.0,88.0,72.0,88,6568.0,square3,i,1.6028,2,V,4.0
V4,95.0,82.0,60.0,94.0,69.0,94,6662.0,square3,i,0.2086,2,V,4.0
V4,96.0,84.0,63.0,92.0,72.0,92,6754.0,square3,i,0.3942,2,V,4.0
V4,97.0,84.0,62.0,85.0,70.0,85,6839.0,square3,i,0.4171,2,V,4.0
V4,98.0,81.0,64.0,93.0,72.0,93,6932.0,square3,i,0.5104,2,V,4.0
V4,99.0,80.0,61.0,92.0,75.0,92,7024.0,square3,i,0.1773,2,V,4.0
V10,0.0,28.0,21.0,37.0,46.0,99999,0.0,invalid,,,-1,V,10.0
V10,1.0,26.0,19.0,41.0,49.0,49,49.0,square4,r,0.4486,3,V,10.0
V10,2.0,29.0,20.0,43.0,48.0,29,78.0,square1,i,0.2804,0,V,10.0
V10,3.0,27.0,27.0,37.0,44.0,27,105.0,square2,f,0.3613,1,V,10.0
V10,4.0,28.0,16.0,36.0,47.0,36,141.0,square3,j,1.3834,2,V,10.0
V10,5.0,33.0,25.0,42.0,54.0,33,174.0,square1,i,0.3625,0,V,10.0
V10,6.0,28.0,19.0,35.0,45.0,35,209.0,square3,j,0.1497,2,V,10.0
V10,7.0,30.0,24.0,35.0,49.0,49,258.0,square4,r,0.1423,3,V,10.0
V10,8.0,37.0,29.0,41.0,47.0,29,287.0,square2,f,0.0963,1,V,10.0
V10,9.0,28.0,21.0,41.0,48.0,48,335.0,square4,r,0.0752,3,V,10.0
V10,10.0,27.0,22.0,39.0,42.0,42,377.0,square4,r,0.2363,3,V,10.0
V10,11.0,32.0,16.0,41.0,48.0,32,409.0,square1,i,0.1426,0,V,10.0
V10,12.0,34.0,15.0,33.0,49.0,33,442.0,square3,j,0.225,2,V,10.0
V10,13.0,36.0,19.0,41.0,45.0,45,487.0,square4,r,0.0343,3,V,10.0
V10,14.0,28.0,23.0,35.0,53.0,53,540.0,square4,r,0.0023,3,V,10.0
V10,15.0,26.0,28.0,40.0,50.0,50,590.0,square4,r,0.3164,3,V,10.0
V10,16.0,30.0,25.0,42.0,47.0,47,637.0,square4,r,0.1792,3,V,10.0
V10,17.0,31.0,19.0,38.0,50.0,38,675.0,square3,j,0.274,2,V,10.0
V10,18.0,34.0,21.0,35.0,48.0,34,709.0,square1,i,0.326,0,V,10.0
V10,19.0,31.0,24.0,39.0,46.0,24,733.0,square2,f,0.2238,1,V,10.0
V10,20.0,28.0,22.0,42.0,47.0,47,780.0,square4,r,0.3308,3,V,10.0
V10,21.0,24.0,20.0,41.0,47.0,47,827.0,square4,r,0.3935,3,V,10.0
V10,22.0,32.0,22.0,34.0,44.0,44,871.0,square4,r,0.0614,3,V,10.0
V10,23.0,29.0,23.0,37.0,47.0,47,918.0,square4,r,0.3126,3,V,10.0
V10,24.0,25.0,25.0,38.0,46.0,46,964.0,square4,r,0.2938,3,V,10.0
V10,25.0,30.0,24.0,41.0,45.0,45,1009.0,square4,r,0.7933,3,V,10.0
V10,26.0,32.0,17.0,38.0,49.0,49,1058.0,square4,r,0.7298,3,V,10.0
V10,27.0,34.0,21.0,38.0,47.0,47,1105.0,square4,r,0.9595,3,V,10.0
V10,28.0,29.0,21.0,37.0,45.0,45,1150.0,square4,r,0.7083,3,V,10.0
V10,29.0,30.0,20.0,31.0,47.0,47,1197.0,square4,r,0.112,3,V,10.0
V10,30.0,28.0,21.0,35.0,44.0,44,1241.0,square4,r,0.0604,3,V,10.0
V10,31.0,36.0,25.0,14.0,8.0,36,1277.0,square1,i,0.3085,0,V,10.0
V10,32.0,38.0,27.0,19.0,11.0,19,1296.0,square3,j,0.3589,2,V,10.0
V10,33.0,39.0,21.0,20.0,13.0,21,1317.0,square2,f,0.3422,1,V,10.0
V10,34.0,34.0,24.0,20.0,10.0,10,1327.0,square4,r,0.1408,3,V,10.0
V10,35.0,44.0,29.0,17.0,11.0,44,1371.0,square1,i,0.0424,0,V,10.0
V10,36.0,33.0,30.0,17.0,9.0,33,1404.0,square1,i,0.3523,0,V,10.0
V10,37.0,31.0,27.0,12.0,6.0,31,1435.0,square1,i,0.2763,0,V,10.0
V10,38.0,34.0,29.0,15.0,10.0,34,1469.0,square1,i,0.0012,0,V,10.0
V10,39.0,35.0,21.0,19.0,5.0,35,1504.0,square1,i,0.0787,0,V,10.0
V10,40.0,32.0,26.0,18.0,6.0,32,1536.0,square1,i,0.5005,0,V,10.0
V10,41.0,34.0,32.0,13.0,9.0,34,1570.0,square1,i,0.2962,0,V,10.0
V10,42.0,35.0,30.0,16.0,8.0,35,1605.0,square1,i,0.476,0,V,10.0
V10,43.0,38.0,32.0,16.0,8.0,38,1643.0,square1,i,0.4634,0,V,10.0
V10,44.0,34.0,20.0,18.0,3.0,34,1677.0,square1,i,0.9335,0,V,10.0
V10,45.0,38.0,22.0,23.0,9.0,38,1715.0,square1,i,0.0844,0,V,10.0
V10,46.0,36.0,28.0,16.0,10.0,36,1751.0,square1,i,0.4417,0,V,10.0
V10,47.0,36.0,27.0,13.0,8.0,36,1787.0,square1,i,0.4972,0,V,10.0
V10,48.0,35.0,27.0,14.0,12.0,35,1822.0,square1,i,0.2628,0,V,10.0
V10,49.0,33.0,28.0,16.0,10.0,33,1855.0,square1,i,0.6272,0,V,10.0
V10,50.0,31.0,29.0,19.0,8.0,31,1886.0,square1,i,0.1739,0,V,10.0
V10,51.0,32.0,21.0,20.0,12.0,32,1918.0,square1,i,0.5161,0,V,10.0
V10,52.0,29.0,25.0,21.0,10.0,29,1947.0,square1,i,0.4265,0,V,10.0
V10,53.0,39.0,29.0,23.0,2.0,99999,1947.0,invalid,,,-1,V,10.0
V10,54.0,33.0,28.0,19.0,7.0,19,1966.0,square3,j,0.3531,2,V,10.0
V10,55.0,34.0,24.0,15.0,8.0,8,1974.0,square4,r,0.1804,3,V,10.0
V10,56.0,35.0,20.0,21.0,9.0,20,1994.0,square2,f,0.1806,1,V,10.0
V10,57.0,33.0,27.0,19.0,7.0,33,2027.0,square1,i,0.0264,0,V,10.0
V10,58.0,38.0,24.0,16.0,7.0,38,2065.0,square1,i,0.1463,0,V,10.0
V10,59.0,34.0,29.0,15.0,5.0,34,2099.0,square1,i,0.064,0,V,10.0
V10,60.0,34.0,22.0,19.0,9.0,34,2133.0,square1,i,0.3655,0,V,10.0
V10,61.0,39.0,31.0,20.0,10.0,10,2143.0,square4,r,0.2169,3,V,10.0
V10,62.0,35.0,24.0,18.0,6.0,24,2167.0,square2,f,0.1934,1,V,10.0
V10,63.0,35.0,26.0,18.0,9.0,18,2185.0,square3,j,0.2533,2,V,10.0
V10,64.0,31.0,55.0,23.0,23.0,31,2216.0,square1,i,0.183,0,V,10.0
V10,65.0,35.0,50.0,22.0,27.0,35,2251.0,square1,i,0.0761,0,V,10.0
V10,66.0,35.0,53.0,25.0,29.0,35,2286.0,square1,i,0.4291,0,V,10.0
V10,67.0,38.0,44.0,17.0,29.0,38,2324.0,square1,i,0.3113,0,V,10.0
V10,68.0,36.0,48.0,22.0,27.0,36,2360.0,square1,i,0.2082,0,V,10.0
V10,69.0,41.0,53.0,17.0,28.0,41,2401.0,square1,i,0.4119,0,V,10.0
V10,70.0,40.0,48.0,23.0,28.0,40,2441.0,square1,i,0.0862,0,V,10.0
V10,71.0,39.0,43.0,24.0,20.0,39,2480.0,square1,i,0.0394,0,V,10.0
V10,72.0,36.0,49.0,19.0,25.0,36,2516.0,square1,i,0.0074,0,V,10.0
V10,73.0,39.0,49.0,23.0,32.0,39,2555.0,square1,i,0.0934,0,V,10.0
V10,74.0,36.0,44.0,17.0,29.0,36,2591.0,square1,i,0.9443,0,V,10.0
V10,75.0,37.0,46.0,20.0,30.0,37,2628.0,square1,i,0.4187,0,V,10.0
V10,76.0,38.0,47.0,23.0,30.0,38,2666.0,square1,i,0.5786,0,V,10.0
V10,77.0,36.0,49.0,22.0,32.0,36,2702.0,square1,i,0.9674,0,V,10.0
V10,78.0,41.0,44.0,19.0,27.0,41,2743.0,square1,i,0.392,0,V,10.0
V10,79.0,41.0,48.0,22.0,27.0,22,2765.0,square3,j,0.144,2,V,10.0
V10,80.0,34.0,44.0,26.0,29.0,44,2809.0,square2,f,0.2859,1,V,10.0
V10,81.0,38.0,47.0,18.0,29.0,29,2838.0,square4,r,0.1322,3,V,10.0
V10,82.0,43.0,43.0,23.0,28.0,43,2881.0,square2,f,0.2097,1,V,10.0
V10,83.0,34.0,51.0,23.0,26.0,51,2932.0,square2,f,0.3847,1,V,10.0
V10,84.0,36.0,46.0,18.0,25.0,46,2978.0,square2,f,0.3459,1,V,10.0
V10,85.0,39.0,46.0,25.0,26.0,46,3024.0,square2,f,0.0014,1,V,10.0
V10,86.0,39.0,50.0,27.0,27.0,50,3074.0,square2,f,0.3319,1,V,10.0
V10,87.0,38.0,46.0,20.0,30.0,20,3094.0,square3,j,0.0763,2,V,10.0
V10,88.0,37.0,49.0,22.0,28.0,49,3143.0,square2,f,0.4933,1,V,10.0
V10,89.0,34.0,51.0,25.0,26.0,51,3194.0,square2,f,0.2456,1,V,10.0
V10,90.0,41.0,49.0,22.0,29.0,49,3243.0,square2,f,0.0012,1,V,10.0
V10,91.0,37.0,45.0,26.0,32.0,45,3288.0,square2,f,0.3087,1,V,10.0
V10,92.0,42.0,42.0,27.0,28.0,42,3330.0,square1,i,0.6321,0,V,10.0
V10,93.0,41.0,48.0,19.0,36.0,48,3378.0,square2,f,0.5853,1,V,10.0
V10,94.0,43.0,49.0,23.0,31.0,49,3427.0,square2,f,0.5432,1,V,10.0
V10,95.0,39.0,46.0,18.0,27.0,46,3473.0,square2,f,0.5786,1,V,10.0
V10,96.0,37.0,48.0,24.0,27.0,48,3521.0,square2,f,0.3476,1,V,10.0
V10,97.0,42.0,50.0,23.0,31.0,50,3571.0,square2,f,0.4816,1,V,10.0
V10,98.0,33.0,47.0,25.0,32.0,47,3618.0,square2,f,0.1199,1,V,10.0
V10,99.0,39.0,48.0,23.0,32.0,48,3666.0,square2,f,0.1461,1,V,10.0
S6,0.0,40.0,29.0,39.0,26.0,40,40.0,square1,r,1.4192,0,S,6.0
S6,1.0,34.0,40.0,31.0,25.0,31,71.0,square3,i,0.2928,2,S,6.0
S6,2.0,37.0,31.0,25.0,30.0,30,101.0,square4,f,0.4069,3,S,6.0
S6,3.0,39.0,37.0,30.0,27.0,37,138.0,square2,j,0.2424,1,S,6.0
S6,4.0,42.0,40.0,28.0,32.0,42,180.0,square1,r,0.349,0,S,6.0
S6,5.0,35.0,35.0,39.0,29.0,35,215.0,square1,r,0.0272,0,S,6.0
S6,6.0,48.0,30.0,37.0,33.0,48,263.0,square1,r,0.123,0,S,6.0
S6,7.0,47.0,34.0,31.0,29.0,47,310.0,square1,r,0.4332,0,S,6.0
S6,8.0,43.0,35.0,30.0,25.0,43,353.0,square1,r,0.4425,0,S,6.0
S6,9.0,36.0,38.0,35.0,35.0,36,389.0,square1,r,0.5514,0,S,6.0
S6,10.0,38.0,35.0,31.0,21.0,31,420.0,square3,i,0.274,2,S,6.0
S6,11.0,30.0,36.0,31.0,20.0,20,440.0,square4,f,0.5599,3,S,6.0
S6,12.0,37.0,40.0,33.0,22.0,40,480.0,square2,j,0.3093,1,S,6.0
S6,13.0,32.0,41.0,35.0,29.0,41,521.0,square2,j,0.0012,1,S,6.0
S6,14.0,41.0,29.0,30.0,32.0,29,550.0,square2,j,0.1723,1,S,6.0
S6,15.0,43.0,37.0,31.0,27.0,43,593.0,square1,r,0.3498,0,S,6.0
S6,16.0,34.0,34.0,35.0,31.0,34,627.0,square1,r,0.0674,0,S,6.0
S6,17.0,47.0,40.0,29.0,28.0,28,655.0,square4,f,0.3292,3,S,6.0
S6,18.0,37.0,38.0,34.0,35.0,34,689.0,square3,i,0.1243,2,S,6.0
S6,19.0,36.0,39.0,31.0,26.0,36,725.0,square1,r,0.0285,0,S,6.0
S6,20.0,44.0,40.0,31.0,25.0,44,769.0,square1,r,0.0477,0,S,6.0
S6,21.0,39.0,41.0,35.0,24.0,39,808.0,square1,r,0.0638,0,S,6.0
S6,22.0,41.0,38.0,41.0,31.0,41,849.0,square1,r,0.1854,0,S,6.0
S6,23.0,37.0,31.0,30.0,32.0,37,886.0,square1,r,0.1496,0,S,6.0
S6,24.0,48.0,34.0,34.0,21.0,48,934.0,square1,r,0.0095,0,S,6.0
S6,25.0,42.0,45.0,26.0,29.0,42,976.0,square1,r,0.077,0,S,6.0
S6,26.0,40.0,39.0,36.0,28.0,40,1016.0,square1,r,0.4435,0,S,6.0
S6,27.0,42.0,33.0,29.0,29.0,42,1058.0,square1,r,0.1831,0,S,6.0
S6,28.0,41.0,30.0,29.0,29.0,41,1099.0,square1,r,0.3179,0,S,6.0
S6,29.0,42.0,40.0,32.0,27.0,42,1141.0,square1,r,0.0598,0,S,6.0
S6,30.0,42.0,36.0,30.0,26.0,42,1183.0,square1,r,0.0587,0,S,6.0
S6,31.0,42.0,34.0,35.0,29.0,42,1225.0,square1,r,0.0345,0,S,6.0
S6,32.0,35.0,36.0,31.0,23.0,35,1260.0,square1,r,0.1246,0,S,6.0
S6,33.0,35.0,31.0,35.0,30.0,35,1295.0,square1,r,0.0105,0,S,6.0
S6,34.0,40.0,38.0,31.0,27.0,31,1326.0,square3,i,0.4274,2,S,6.0
S6,35.0,42.0,37.0,34.0,34.0,34,1360.0,square4,f,0.4424,3,S,6.0
S6,36.0,37.0,46.0,31.0,34.0,46,1406.0,square2,j,0.1974,1,S,6.0
S6,37.0,38.0,40.0,30.0,26.0,40,1446.0,square2,j,0.1594,1,S,6.0
S6,38.0,36.0,34.0,31.0,33.0,34,1480.0,square2,j,0.0398,1,S,6.0
S6,39.0,44.0,37.0,33.0,31.0,44,1524.0,square1,r,0.175,0,S,6.0
S6,40.0,40.0,38.0,31.0,25.0,38,1562.0,square2,j,0.4602,1,S,6.0
S6,41.0,49.0,35.0,35.0,28.0,49,1611.0,square1,r,0.2949,0,S,6.0
S6,42.0,44.0,40.0,32.0,28.0,40,1651.0,square2,j,0.1114,1,S,6.0
S6,43.0,43.0,36.0,33.0,26.0,43,1694.0,square1,r,0.2813,0,S,6.0
S6,44.0,38.0,33.0,34.0,26.0,33,1727.0,square2,j,0.2771,1,S,6.0
S6,45.0,32.0,35.0,30.0,28.0,32,1759.0,square1,r,0.0622,0,S,6.0
S6,46.0,38.0,36.0,34.0,30.0,38,1797.0,square1,r,0.1094,0,S,6.0
S6,47.0,44.0,35.0,32.0,31.0,44,1841.0,square1,r,0.1956,0,S,6.0
S6,48.0,40.0,40.0,31.0,33.0,40,1881.0,square1,r,1.0577,0,S,6.0
S6,49.0,41.0,29.0,29.0,29.0,41,1922.0,square1,r,0.9716,0,S,6.0
S9,0.0,36.0,36.0,32.0,32.0,32,32.0,square3,r,1.37,2,S,9.0
S9,1.0,40.0,29.0,36.0,24.0,24,56.0,square4,i,0.1766,3,S,9.0
S9,2.0,31.0,43.0,22.0,29.0,43,99.0,square2,f,0.5907,1,S,9.0
S9,3.0,41.0,33.0,28.0,27.0,33,132.0,square2,f,0.9905,1,S,9.0
S9,4.0,34.0,29.0,32.0,31.0,29,161.0,square2,f,0.1789,1,S,9.0
S9,5.0,41.0,32.0,22.0,29.0,41,202.0,square1,j,0.0153,0,S,9.0
S9,6.0,44.0,30.0,21.0,28.0,44,246.0,square1,j,0.0968,0,S,9.0
S9,7.0,39.0,37.0,26.0,24.0,39,285.0,square1,j,0.2227,0,S,9.0
S9,8.0,41.0,33.0,23.0,20.0,23,308.0,square3,r,0.0499,2,S,9.0
S9,9.0,30.0,35.0,24.0,27.0,27,335.0,square4,i,0.5601,3,S,9.0
S9,10.0,41.0,29.0,23.0,28.0,41,376.0,square1,j,0.1238,0,S,9.0
S9,11.0,37.0,38.0,22.0,33.0,37,413.0,square1,j,0.1764,0,S,9.0
S9,12.0,35.0,31.0,27.0,32.0,31,444.0,square2,f,0.185,1,S,9.0
S9,13.0,38.0,37.0,30.0,29.0,38,482.0,square1,j,0.012,0,S,9.0
S9,14.0,36.0,38.0,30.0,37.0,36,518.0,square1,j,0.3786,0,S,9.0
S9,15.0,40.0,29.0,27.0,24.0,40,558.0,square1,j,0.3669,0,S,9.0
S9,16.0,33.0,37.0,29.0,28.0,33,591.0,square1,j,0.2633,0,S,9.0
S9,17.0,41.0,32.0,36.0,31.0,41,632.0,square1,j,0.2929,0,S,9.0
S9,18.0,39.0,26.0,16.0,35.0,39,671.0,square1,j,0.2806,0,S,9.0
S9,19.0,35.0,30.0,23.0,27.0,35,706.0,square1,j,0.1326,0,S,9.0
S9,20.0,39.0,34.0,23.0,29.0,39,745.0,square1,j,0.0845,0,S,9.0
S9,21.0,35.0,37.0,28.0,31.0,35,780.0,square1,j,0.8502,0,S,9.0
S9,22.0,37.0,30.0,23.0,38.0,37,817.0,square1,j,1.0228,0,S,9.0
S9,23.0,37.0,34.0,27.0,34.0,37,854.0,square1,j,0.0246,0,S,9.0
S9,24.0,31.0,34.0,26.0,27.0,31,885.0,square1,j,0.9984,0,S,9.0
S9,25.0,38.0,40.0,29.0,24.0,38,923.0,square1,j,0.0745,0,S,9.0
S9,26.0,43.0,31.0,21.0,24.0,43,966.0,square1,j,0.0193,0,S,9.0
S9,27.0,30.0,31.0,23.0,28.0,30,996.0,square1,j,0.084,0,S,9.0
S9,28.0,44.0,32.0,31.0,32.0,44,1040.0,square1,j,0.0762,0,S,9.0
S9,29.0,36.0,38.0,22.0,22.0,36,1076.0,square1,j,1.1943,0,S,9.0
S9,30.0,41.0,30.0,26.0,29.0,41,1117.0,square1,j,0.009,0,S,9.0
S9,31.0,39.0,37.0,30.0,32.0,39,1156.0,square1,j,0.2599,0,S,9.0
S9,32.0,35.0,39.0,28.0,31.0,35,1191.0,square1,j,0.6614,0,S,9.0
S9,33.0,37.0,39.0,29.0,32.0,37,1228.0,square1,j,0.8759,0,S,9.0
S9,34.0,46.0,33.0,21.0,25.0,46,1274.0,square1,j,0.2173,0,S,9.0
S9,35.0,38.0,33.0,28.0,28.0,38,1312.0,square1,j,0.308,0,S,9.0
S9,36.0,40.0,37.0,21.0,32.0,40,1352.0,square1,j,0.283,0,S,9.0
S9,37.0,38.0,43.0,23.0,37.0,38,1390.0,square1,j,0.291,0,S,9.0
S9,38.0,36.0,31.0,29.0,29.0,36,1426.0,square1,j,1.2469,0,S,9.0
S9,39.0,41.0,29.0,26.0,28.0,41,1467.0,square1,j,0.726,0,S,9.0
S9,40.0,32.0,36.0,26.0,28.0,32,1499.0,square1,j,0.7756,0,S,9.0
S9,41.0,40.0,37.0,35.0,28.0,40,1539.0,square1,j,0.8778,0,S,9.0
S9,42.0,43.0,32.0,26.0,37.0,99999,1539.0,invalid,,,-1,S,9.0
S9,43.0,40.0,31.0,23.0,31.0,40,1579.0,square1,j,1.1072,0,S,9.0
S9,44.0,42.0,38.0,24.0,40.0,42,1621.0,square1,j,1.9113,0,S,9.0
S9,45.0,36.0,35.0,30.0,33.0,36,1657.0,square1,j,0.0999,0,S,9.0
S9,46.0,38.0,30.0,33.0,26.0,38,1695.0,square1,j,0.2576,0,S,9.0
S9,47.0,39.0,37.0,25.0,26.0,39,1734.0,square1,j,0.0657,0,S,9.0
S9,48.0,36.0,35.0,26.0,27.0,36,1770.0,square1,j,1.0756,0,S,9.0
S9,49.0,40.0,32.0,24.0,28.0,40,1810.0,square1,j,1.1983,0,S,9.0
S5,0.0,90.0,70.0,79.0,84.0,84,84.0,square4,r,0.5026,3,S,5.0
S5,1.0,92.0,77.0,83.0,81.0,81,165.0,square4,r,0.3436,3,S,5.0
S5,2.0,83.0,72.0,81.0,76.0,83,248.0,square1,i,0.0013,0,S,5.0
S5,3.0,87.0,72.0,79.0,81.0,79,327.0,square3,f,0.4842,2,S,5.0
S5,4.0,86.0,81.0,78.0,72.0,81,408.0,square2,j,0.2723,1,S,5.0
S5,5.0,89.0,70.0,79.0,83.0,83,491.0,square4,r,0.358,3,S,5.0
S5,6.0,86.0,69.0,81.0,81.0,81,572.0,square4,r,0.2012,3,S,5.0
S5,7.0,82.0,72.0,86.0,80.0,80,652.0,square4,r,0.3334,3,S,5.0
S5,8.0,84.0,67.0,80.0,77.0,77,729.0,square4,r,0.0348,3,S,5.0
S5,9.0,92.0,80.0,86.0,84.0,84,813.0,square4,r,0.9906,3,S,5.0
S5,10.0,82.0,71.0,80.0,80.0,80,893.0,square4,r,0.0013,3,S,5.0
S5,11.0,80.0,75.0,79.0,75.0,75,968.0,square4,r,0.8786,3,S,5.0
S5,12.0,84.0,75.0,80.0,82.0,82,1050.0,square4,r,1.3353,3,S,5.0
S5,13.0,85.0,74.0,74.0,81.0,81,1131.0,square4,r,0.1286,3,S,5.0
S5,14.0,81.0,79.0,85.0,81.0,99999,1131.0,invalid,,,-1,S,5.0
S5,15.0,81.0,75.0,76.0,77.0,77,1208.0,square4,r,0.2794,3,S,5.0
S5,16.0,86.0,74.0,78.0,74.0,74,1282.0,square4,r,0.5351,3,S,5.0
S5,17.0,81.0,77.0,81.0,77.0,77,1359.0,square4,r,0.6856,3,S,5.0
S5,18.0,87.0,70.0,84.0,82.0,82,1441.0,square4,r,0.5303,3,S,5.0
S5,19.0,84.0,76.0,83.0,76.0,76,1517.0,square4,r,0.1446,3,S,5.0
S5,20.0,79.0,78.0,82.0,76.0,76,1593.0,square4,r,0.634,3,S,5.0
S5,21.0,86.0,68.0,80.0,72.0,72,1665.0,square4,r,1.4257,3,S,5.0
S5,22.0,93.0,80.0,85.0,84.0,84,1749.0,square4,r,0.3669,3,S,5.0
S5,23.0,87.0,73.0,76.0,70.0,70,1819.0,square4,r,0.7766,3,S,5.0
S5,24.0,85.0,69.0,81.0,78.0,78,1897.0,square4,r,0.9297,3,S,5.0
S5,25.0,89.0,77.0,77.0,76.0,76,1973.0,square4,r,0.4159,3,S,5.0
S5,26.0,84.0,71.0,81.0,75.0,81,2054.0,square3,f,0.656,2,S,5.0
S5,27.0,84.0,75.0,82.0,71.0,71,2125.0,square4,r,0.4449,3,S,5.0
S5,28.0,83.0,72.0,82.0,78.0,82,2207.0,square3,f,0.5758,2,S,5.0
S5,29.0,91.0,67.0,79.0,74.0,79,2286.0,square3,f,0.4088,2,S,5.0
S5,30.0,82.0,69.0,81.0,77.0,81,2367.0,square3,f,0.2924,2,S,5.0
S5,31.0,82.0,72.0,80.0,78.0,80,2447.0,square3,f,0.2999,2,S,5.0
S5,32.0,83.0,73.0,91.0,80.0,80,2527.0,square4,r,0.0098,3,S,5.0
S5,33.0,83.0,68.0,85.0,78.0,78,2605.0,square4,r,0.0428,3,S,5.0
S5,34.0,89.0,79.0,83.0,77.0,83,2688.0,square3,f,0.0589,2,S,5.0
S5,35.0,88.0,72.0,79.0,80.0,79,2767.0,square3,f,0.2911,2,S,5.0
S5,36.0,90.0,74.0,84.0,76.0,76,2843.0,square4,r,0.2669,3,S,5.0
S5,37.0,85.0,75.0,80.0,82.0,75,2918.0,square2,j,1.1594,1,S,5.0
S5,38.0,78.0,74.0,85.0,79.0,78,2996.0,square1,i,0.2657,0,S,5.0
S5,39.0,87.0,73.0,87.0,85.0,87,3083.0,square1,i,0.1406,0,S,5.0
S5,40.0,83.0,67.0,81.0,80.0,83,3166.0,square1,i,0.3355,0,S,5.0
S5,41.0,82.0,69.0,88.0,80.0,82,3248.0,square1,i,0.1423,0,S,5.0
S5,42.0,85.0,78.0,91.0,80.0,85,3333.0,square1,i,0.0748,0,S,5.0
S5,43.0,89.0,74.0,78.0,74.0,89,3422.0,square1,i,0.1897,0,S,5.0
S5,44.0,90.0,74.0,77.0,85.0,90,3512.0,square1,i,0.0946,0,S,5.0
S5,45.0,89.0,68.0,81.0,78.0,89,3601.0,square1,i,0.5336,0,S,5.0
S5,46.0,86.0,70.0,86.0,68.0,99999,3601.0,invalid,,,-1,S,5.0
S5,47.0,90.0,77.0,85.0,84.0,84,3685.0,square4,r,1.0644,3,S,5.0
S5,48.0,76.0,66.0,82.0,79.0,79,3764.0,square4,r,0.6103,3,S,5.0
S5,49.0,84.0,73.0,82.0,75.0,84,3848.0,square1,i,0.3257,0,S,5.0
S10,0.0,72.0,76.0,80.0,64.0,80,80.0,square3,r,1.4907,2,S,10.0
S10,1.0,76.0,75.0,74.0,65.0,75,155.0,square2,f,0.0503,1,S,10.0
S10,2.0,70.0,72.0,79.0,74.0,74,229.0,square4,i,0.2353,3,S,10.0
S10,3.0,69.0,77.0,76.0,68.0,69,298.0,square1,j,0.0328,0,S,10.0
S10,4.0,72.0,79.0,77.0,70.0,77,375.0,square3,r,0.4085,2,S,10.0
S10,5.0,68.0,74.0,72.0,64.0,72,447.0,square3,r,0.1555,2,S,10.0
S10,6.0,70.0,77.0,72.0,62.0,72,519.0,square3,r,0.275,2,S,10.0
S10,7.0,78.0,81.0,80.0,74.0,80,599.0,square3,r,0.2292,2,S,10.0
S10,8.0,78.0,78.0,82.0,66.0,82,681.0,square3,r,0.2583,2,S,10.0
S10,9.0,69.0,76.0,77.0,65.0,77,758.0,square3,r,0.2939,2,S,10.0
S10,10.0,72.0,78.0,72.0,75.0,72,830.0,square3,r,0.9015,2,S,10.0
S10,11.0,71.0,76.0,78.0,66.0,78,908.0,square3,r,1.051,2,S,10.0
S10,12.0,73.0,83.0,79.0,69.0,79,987.0,square3,r,0.0022,2,S,10.0
S10,13.0,68.0,77.0,65.0,65.0,65,1052.0,square3,r,0.0563,2,S,10.0
S10,14.0,69.0,84.0,79.0,65.0,79,1131.0,square3,r,1.1679,2,S,10.0
S10,15.0,72.0,84.0,70.0,71.0,70,1201.0,square3,r,0.6865,2,S,10.0
S10,16.0,79.0,80.0,82.0,67.0,82,1283.0,square3,r,0.2691,2,S,10.0
S10,17.0,69.0,83.0,75.0,70.0,75,1358.0,square3,r,0.3026,2,S,10.0
S10,18.0,69.0,75.0,69.0,68.0,69,1427.0,square3,r,0.3851,2,S,10.0
S10,19.0,70.0,83.0,73.0,66.0,73,1500.0,square3,r,0.0839,2,S,10.0
S10,20.0,69.0,83.0,75.0,66.0,75,1575.0,square3,r,0.8288,2,S,10.0
S10,21.0,77.0,70.0,75.0,70.0,75,1650.0,square3,r,1.084,2,S,10.0
S10,22.0,73.0,77.0,81.0,69.0,81,1731.0,square3,r,0.0625,2,S,10.0
S10,23.0,73.0,78.0,70.0,65.0,70,1801.0,square3,r,0.8846,2,S,10.0
S10,24.0,70.0,80.0,75.0,66.0,75,1876.0,square3,r,0.874,2,S,10.0
S10,25.0,70.0,80.0,73.0,72.0,73,1949.0,square3,r,0.8686,2,S,10.0
S10,26.0,73.0,75.0,73.0,75.0,73,2022.0,square3,r,0.818,2,S,10.0
S10,27.0,77.0,81.0,83.0,66.0,83,2105.0,square3,r,0.5926,2,S,10.0
S10,28.0,73.0,79.0,79.0,73.0,79,2184.0,square3,r,0.9022,2,S,10.0
S10,29.0,73.0,79.0,72.0,69.0,72,2256.0,square3,r,0.3682,2,S,10.0
S10,30.0,71.0,85.0,79.0,69.0,79,2335.0,square3,r,0.1189,2,S,10.0
S10,31.0,71.0,85.0,83.0,66.0,83,2418.0,square3,r,0.3509,2,S,10.0
S10,32.0,78.0,79.0,77.0,65.0,77,2495.0,square3,r,0.6353,2,S,10.0
S10,33.0,83.0,79.0,72.0,68.0,72,2567.0,square3,r,0.1682,2,S,10.0
S10,34.0,68.0,74.0,79.0,72.0,79,2646.0,square3,r,0.843,2,S,10.0
S10,35.0,70.0,83.0,79.0,67.0,79,2725.0,square3,r,0.7853,2,S,10.0
S10,36.0,67.0,76.0,75.0,72.0,75,2800.0,square3,r,0.773,2,S,10.0
S10,37.0,76.0,82.0,79.0,60.0,99999,2800.0,invalid,,,-1,S,10.0
S10,38.0,72.0,75.0,69.0,68.0,69,2869.0,square3,r,0.039,2,S,10.0
S10,39.0,73.0,78.0,76.0,70.0,76,2945.0,square3,r,0.4905,2,S,10.0
S10,40.0,76.0,77.0,66.0,60.0,66,3011.0,square3,r,1.2921,2,S,10.0
S10,41.0,74.0,83.0,73.0,67.0,73,3084.0,square3,r,1.2207,2,S,10.0
S10,42.0,72.0,69.0,80.0,63.0,99999,3084.0,invalid,,,-1,S,10.0
S10,43.0,69.0,74.0,72.0,68.0,99999,3084.0,invalid,,,-1,S,10.0
S10,44.0,67.0,76.0,70.0,65.0,70,3154.0,square3,r,0.1361,2,S,10.0
S10,45.0,76.0,81.0,74.0,72.0,74,3228.0,square3,r,0.392,2,S,10.0
S10,46.0,76.0,79.0,76.0,66.0,76,3304.0,square3,r,0.0118,2,S,10.0
S10,47.0,67.0,81.0,84.0,60.0,84,3388.0,square3,r,0.1209,2,S,10.0
S10,48.0,73.0,83.0,75.0,66.0,75,3463.0,square3,r,0.0014,2,S,10.0
S10,49.0,66.0,77.0,74.0,71.0,74,3537.0,square3,r,0.3673,2,S,10.0
S3,0.0,38.0,48.0,42.0,57.0,48,48.0,square2,r,0.8686,1,S,3.0
S3,1.0,29.0,43.0,51.0,57.0,29,77.0,square1,f,0.261,0,S,3.0
S3,2.0,41.0,49.0,46.0,49.0,46,123.0,square3,i,0.2685,2,S,3.0
S3,3.0,44.0,50.0,45.0,52.0,52,175.0,square4,j,0.6062,3,S,3.0
S3,4.0,37.0,51.0,45.0,58.0,58,233.0,square4,j,0.3017,3,S,3.0
S3,5.0,47.0,43.0,42.0,49.0,49,282.0,square4,j,0.656,3,S,3.0
S3,6.0,44.0,53.0,51.0,58.0,58,340.0,square4,j,0.808,3,S,3.0
S3,7.0,39.0,47.0,46.0,54.0,54,394.0,square4,j,0.5082,3,S,3.0
S3,8.0,43.0,53.0,41.0,52.0,52,446.0,square4,j,0.374,3,S,3.0
S3,9.0,42.0,46.0,41.0,53.0,53,499.0,square4,j,0.2869,3,S,3.0
S3,10.0,37.0,49.0,49.0,55.0,55,554.0,square4,j,0.2351,3,S,3.0
S3,11.0,40.0,47.0,36.0,59.0,59,613.0,square4,j,0.522,3,S,3.0
S3,12.0,46.0,51.0,39.0,56.0,56,669.0,square4,j,0.1777,3,S,3.0
S3,13.0,39.0,48.0,45.0,57.0,57,726.0,square4,j,0.2344,3,S,3.0
S3,14.0,39.0,55.0,43.0,47.0,47,773.0,square4,j,0.1797,3,S,3.0
S3,15.0,46.0,46.0,47.0,52.0,52,825.0,square4,j,0.2848,3,S,3.0
S3,16.0,42.0,49.0,50.0,55.0,55,880.0,square4,j,0.2783,3,S,3.0
S3,17.0,45.0,45.0,56.0,47.0,47,927.0,square4,j,0.6003,3,S,3.0
S3,18.0,46.0,43.0,45.0,50.0,50,977.0,square4,j,0.2105,3,S,3.0
S3,19.0,41.0,47.0,50.0,55.0,55,1032.0,square4,j,0.971,3,S,3.0
S3,20.0,45.0,52.0,49.0,52.0,52,1084.0,square4,j,0.1071,3,S,3.0
S3,21.0,40.0,43.0,47.0,46.0,46,1130.0,square4,j,0.0015,3,S,3.0
S3,22.0,45.0,46.0,44.0,47.0,47,1177.0,square4,j,0.3848,3,S,3.0
S3,23.0,36.0,50.0,42.0,46.0,46,1223.0,square4,j,0.9174,3,S,3.0
S3,24.0,42.0,54.0,49.0,55.0,55,1278.0,square4,j,0.2234,3,S,3.0
S3,25.0,43.0,51.0,44.0,54.0,54,1332.0,square4,j,0.0448,3,S,3.0
S3,26.0,49.0,50.0,52.0,52.0,52,1384.0,square4,j,0.0341,3,S,3.0
S3,27.0,47.0,52.0,44.0,50.0,50,1434.0,square4,j,0.0427,3,S,3.0
S3,28.0,37.0,48.0,40.0,47.0,47,1481.0,square4,j,0.0283,3,S,3.0
S3,29.0,50.0,43.0,50.0,57.0,57,1538.0,square4,j,0.4605,3,S,3.0
S3,30.0,50.0,50.0,46.0,47.0,47,1585.0,square4,j,1.2852,3,S,3.0
S3,31.0,37.0,53.0,49.0,56.0,56,1641.0,square4,j,0.4221,3,S,3.0
S3,32.0,42.0,50.0,43.0,58.0,58,1699.0,square4,j,0.302,3,S,3.0
S3,33.0,44.0,49.0,46.0,59.0,59,1758.0,square4,j,1.1008,3,S,3.0
S3,34.0,42.0,50.0,50.0,58.0,58,1816.0,square4,j,0.5854,3,S,3.0
S3,35.0,43.0,46.0,45.0,50.0,50,1866.0,square4,j,0.2229,3,S,3.0
S3,36.0,46.0,52.0,50.0,48.0,48,1914.0,square4,j,0.0338,3,S,3.0
S3,37.0,48.0,50.0,49.0,52.0,52,1966.0,square4,j,0.051,3,S,3.0
S3,38.0,39.0,43.0,50.0,55.0,55,2021.0,square4,j,0.5347,3,S,3.0
S3,39.0,50.0,53.0,46.0,57.0,57,2078.0,square4,j,0.7512,3,S,3.0
S3,40.0,41.0,46.0,48.0,55.0,55,2133.0,square4,j,0.4744,3,S,3.0
S3,41.0,49.0,49.0,40.0,56.0,56,2189.0,square4,j,0.2682,3,S,3.0
S3,42.0,47.0,49.0,43.0,48.0,48,2237.0,square4,j,0.0682,3,S,3.0
S3,43.0,46.0,43.0,41.0,58.0,58,2295.0,square4,j,0.2041,3,S,3.0
S3,44.0,46.0,52.0,51.0,55.0,99999,2295.0,invalid,,,-1,S,3.0
S3,45.0,46.0,41.0,46.0,49.0,49,2344.0,square4,j,0.7521,3,S,3.0
S3,46.0,32.0,56.0,40.0,50.0,50,2394.0,square4,j,0.5073,3,S,3.0
S3,47.0,42.0,49.0,44.0,51.0,51,2445.0,square4,j,0.2175,3,S,3.0
S3,48.0,36.0,45.0,38.0,50.0,50,2495.0,square4,j,0.1528,3,S,3.0
S3,49.0,45.0,48.0,47.0,52.0,52,2547.0,square4,j,0.7074,3,S,3.0
S2,0.0,62.0,57.0,71.0,74.0,74,74.0,square4,r,0.7218,3,S,2.0
S2,1.0,64.0,59.0,72.0,67.0,59,133.0,square2,f,0.1594,1,S,2.0
S2,2.0,68.0,57.0,75.0,68.0,68,201.0,square1,i,0.2318,0,S,2.0
S2,3.0,69.0,57.0,80.0,70.0,80,281.0,square3,j,0.2599,2,S,2.0
S2,4.0,66.0,60.0,74.0,68.0,74,355.0,square3,j,0.0641,2,S,2.0
S2,5.0,63.0,62.0,77.0,72.0,77,432.0,square3,j,0.0945,2,S,2.0
S2,6.0,69.0,61.0,75.0,74.0,75,507.0,square3,j,0.8154,2,S,2.0
S2,7.0,74.0,66.0,79.0,72.0,79,586.0,square3,j,0.8168,2,S,2.0
S2,8.0,81.0,65.0,76.0,72.0,76,662.0,square3,j,0.0253,2,S,2.0
S2,9.0,70.0,66.0,78.0,70.0,78,740.0,square3,j,0.9603,2,S,2.0
S2,10.0,70.0,72.0,70.0,74.0,70,810.0,square3,j,0.1422,2,S,2.0
S2,11.0,64.0,66.0,72.0,67.0,72,882.0,square3,j,0.9589,2,S,2.0
S2,12.0,66.0,57.0,70.0,67.0,70,952.0,square3,j,0.0813,2,S,2.0
S2,13.0,68.0,68.0,71.0,73.0,71,1023.0,square3,j,0.0461,2,S,2.0
S2,14.0,70.0,63.0,77.0,71.0,77,1100.0,square3,j,0.0927,2,S,2.0
S2,15.0,64.0,66.0,75.0,66.0,75,1175.0,square3,j,1.2499,2,S,2.0
S2,16.0,67.0,61.0,73.0,70.0,73,1248.0,square3,j,0.0832,2,S,2.0
S2,17.0,65.0,58.0,71.0,75.0,71,1319.0,square3,j,0.1986,2,S,2.0
S2,18.0,72.0,64.0,81.0,61.0,81,1400.0,square3,j,0.961,2,S,2.0
S2,19.0,60.0,63.0,72.0,65.0,72,1472.0,square3,j,0.0942,2,S,2.0
S2,20.0,68.0,56.0,71.0,70.0,71,1543.0,square3,j,1.1813,2,S,2.0
S2,21.0,65.0,65.0,74.0,71.0,74,1617.0,square3,j,0.5502,2,S,2.0
S2,22.0,69.0,62.0,77.0,72.0,77,1694.0,square3,j,0.363,2,S,2.0
S2,23.0,64.0,71.0,74.0,65.0,74,1768.0,square3,j,0.1281,2,S,2.0
S2,24.0,66.0,62.0,78.0,70.0,78,1846.0,square3,j,0.4803,2,S,2.0
S2,25.0,67.0,69.0,76.0,66.0,76,1922.0,square3,j,0.2089,2,S,2.0
S2,26.0,65.0,63.0,74.0,69.0,99999,1922.0,invalid,,,-1,S,2.0
S2,27.0,68.0,64.0,67.0,68.0,67,1989.0,square3,j,0.279,2,S,2.0
S2,28.0,61.0,52.0,71.0,68.0,71,2060.0,square3,j,0.4683,2,S,2.0
S2,29.0,67.0,64.0,73.0,69.0,73,2133.0,square3,j,0.296,2,S,2.0
S2,30.0,67.0,53.0,77.0,67.0,77,2210.0,square3,j,0.1937,2,S,2.0
S2,31.0,67.0,69.0,69.0,68.0,69,2279.0,square3,j,0.1458,2,S,2.0
S2,32.0,71.0,63.0,73.0,70.0,73,2352.0,square3,j,0.4942,2,S,2.0
S2,33.0,61.0,65.0,68.0,71.0,68,2420.0,square3,j,0.3941,2,S,2.0
S2,34.0,66.0,55.0,78.0,68.0,78,2498.0,square3,j,0.367,2,S,2.0
S2,35.0,60.0,57.0,66.0,66.0,66,2564.0,square3,j,0.7262,2,S,2.0
S2,36.0,64.0,63.0,73.0,72.0,73,2637.0,square3,j,0.0022,2,S,2.0
S2,37.0,65.0,62.0,75.0,68.0,75,2712.0,square3,j,0.3263,2,S,2.0
S2,38.0,69.0,57.0,71.0,62.0,71,2783.0,square3,j,0.0259,2,S,2.0
S2,39.0,72.0,66.0,74.0,74.0,74,2857.0,square3,j,0.013,2,S,2.0
S2,40.0,66.0,63.0,76.0,59.0,76,2933.0,square3,j,0.0634,2,S,2.0
S2,41.0,74.0,64.0,67.0,76.0,67,3000.0,square3,j,0.4157,2,S,2.0
S2,42.0,62.0,67.0,72.0,68.0,72,3072.0,square3,j,1.1282,2,S,2.0
S2,43.0,69.0,63.0,75.0,71.0,75,3147.0,square3,j,0.9758,2,S,2.0
S2,44.0,72.0,60.0,74.0,67.0,99999,3147.0,invalid,,,-1,S,2.0
S2,45.0,69.0,63.0,76.0,73.0,99999,3147.0,invalid,,,-1,S,2.0
S2,46.0,64.0,71.0,75.0,72.0,99999,3147.0,invalid,,,-1,S,2.0
S2,47.0,75.0,62.0,75.0,69.0,99999,3147.0,invalid,,,-1,S,2.0
S2,48.0,66.0,65.0,74.0,68.0,74,3221.0,square3,j,0.2026,2,S,2.0
S2,49.0,67.0,64.0,72.0,76.0,72,3293.0,square3,j,0.0336,2,S,2.0
