block,Trial,square1,square2,square3,square4,currPoints,totalPoints,square,choiceKey.keys,choiceKey.rt,armNum,blockType,blockNum
prac,0.0,100.0,0.0,0.0,0.0,99999,0.0,invalid,,,-1,p,0.0
prac,1.0,100.0,0.0,0.0,0.0,99999,0.0,invalid,,,-1,p,0.0
prac,2.0,100.0,0.0,0.0,0.0,99999,0.0,invalid,,,-1,p,0.0
prac,3.0,100.0,0.0,0.0,0.0,99999,0.0,invalid,,,-1,p,0.0
prac,4.0,100.0,0.0,0.0,0.0,99999,0.0,invalid,,,-1,p,0.0
prac,5.0,100.0,0.0,0.0,0.0,99999,0.0,invalid,,,-1,p,0.0
prac,6.0,100.0,0.0,0.0,0.0,99999,0.0,invalid,,,-1,p,0.0
prac,7.0,100.0,0.0,0.0,0.0,99999,0.0,invalid,,,-1,p,0.0
prac,8.0,100.0,0.0,0.0,0.0,99999,0.0,invalid,,,-1,p,0.0
prac,9.0,100.0,0.0,0.0,0.0,99999,0.0,invalid,,,-1,p,0.0
V8,0.0,49.0,55.0,64.0,74.0,74,74.0,square4,r,0.9974,3,V,8.0
V8,1.0,51.0,54.0,70.0,81.0,51,125.0,square1,i,0.1771,0,V,8.0
V8,2.0,46.0,62.0,70.0,77.0,62,187.0,square2,f,0.4885,1,V,8.0
V8,3.0,46.0,56.0,67.0,75.0,75,262.0,square4,r,0.7601,3,V,8.0
V8,4.0,50.0,59.0,67.0,83.0,83,345.0,square4,r,0.3135,3,V,8.0
V8,5.0,51.0,54.0,65.0,78.0,78,423.0,square4,r,0.2597,3,V,8.0
V8,6.0,45.0,57.0,66.0,80.0,45,468.0,square1,i,0.5296,0,V,8.0
V8,7.0,46.0,64.0,68.0,77.0,77,545.0,square4,r,0.16,3,V,8.0
V8,8.0,50.0,57.0,66.0,73.0,73,618.0,square4,r,0.0925,3,V,8.0
V8,9.0,46.0,56.0,71.0,72.0,72,690.0,square4,r,0.5938,3,V,8.0
V8,10.0,56.0,58.0,67.0,75.0,75,765.0,square4,r,0.2114,3,V,8.0
V8,11.0,50.0,61.0,69.0,74.0,74,839.0,square4,r,0.16,3,V,8.0
V8,12.0,59.0,59.0,69.0,77.0,77,916.0,square4,r,0.0934,3,V,8.0
V8,13.0,50.0,56.0,72.0,77.0,77,993.0,square4,r,0.0773,3,V,8.0
V8,14.0,48.0,55.0,65.0,80.0,80,1073.0,square4,r,0.0343,3,V,8.0
V8,15.0,48.0,58.0,65.0,76.0,65,1138.0,square3,j,0.1665,2,V,8.0
V8,16.0,49.0,58.0,67.0,75.0,67,1205.0,square3,j,0.0016,2,V,8.0
V8,17.0,51.0,56.0,68.0,76.0,68,1273.0,square3,j,0.0593,2,V,8.0
V8,18.0,52.0,63.0,69.0,80.0,63,1336.0,square2,f,0.0293,1,V,8.0
V8,19.0,54.0,54.0,71.0,79.0,79,1415.0,square4,r,0.0005,3,V,8.0
V8,20.0,48.0,53.0,62.0,77.0,77,1492.0,square4,r,1.0367,3,V,8.0
V8,21.0,44.0,61.0,66.0,77.0,44,1536.0,square1,i,0.9573,0,V,8.0
V8,22.0,52.0,58.0,64.0,78.0,78,1614.0,square4,r,0.8997,3,V,8.0
V8,23.0,50.0,49.0,67.0,79.0,79,1693.0,square4,r,0.8849,3,V,8.0
V8,24.0,49.0,59.0,69.0,74.0,74,1767.0,square4,r,0.8805,3,V,8.0
V8,25.0,46.0,61.0,65.0,81.0,81,1848.0,square4,r,0.2246,3,V,8.0
V8,26.0,49.0,58.0,63.0,35.0,35,1883.0,square4,r,0.1609,3,V,8.0
V8,27.0,48.0,51.0,66.0,41.0,48,1931.0,square1,i,0.2679,0,V,8.0
V8,28.0,46.0,55.0,65.0,38.0,55,1986.0,square2,f,0.4436,1,V,8.0
V8,29.0,47.0,58.0,69.0,40.0,69,2055.0,square3,j,0.8684,2,V,8.0
V8,30.0,42.0,55.0,67.0,43.0,67,2122.0,square3,j,0.7288,2,V,8.0
V8,31.0,49.0,56.0,64.0,36.0,64,2186.0,square3,j,0.2109,2,V,8.0
V8,32.0,49.0,55.0,69.0,38.0,69,2255.0,square3,j,0.4979,2,V,8.0
V8,33.0,44.0,52.0,65.0,48.0,65,2320.0,square3,j,0.2157,2,V,8.0
V8,34.0,44.0,57.0,70.0,45.0,70,2390.0,square3,j,0.9297,2,V,8.0
V8,35.0,44.0,54.0,68.0,38.0,68,2458.0,square3,j,0.077,2,V,8.0
V8,36.0,45.0,56.0,64.0,40.0,64,2522.0,square3,j,0.6265,2,V,8.0
V8,37.0,47.0,57.0,66.0,37.0,66,2588.0,square3,j,0.1933,2,V,8.0
V8,38.0,49.0,50.0,66.0,37.0,37,2625.0,square4,r,0.4134,3,V,8.0
V8,39.0,51.0,56.0,61.0,39.0,51,2676.0,square1,i,0.8959,0,V,8.0
V8,40.0,47.0,59.0,66.0,41.0,59,2735.0,square2,f,0.067,1,V,8.0
V8,41.0,42.0,56.0,69.0,42.0,69,2804.0,square3,j,0.6982,2,V,8.0
V8,42.0,47.0,57.0,72.0,35.0,35,2839.0,square4,r,0.2828,3,V,8.0
V8,43.0,47.0,57.0,63.0,44.0,47,2886.0,square1,i,0.2596,0,V,8.0
V8,44.0,45.0,58.0,67.0,42.0,67,2953.0,square3,j,0.097,2,V,8.0
V8,45.0,44.0,56.0,66.0,43.0,66,3019.0,square3,j,1.2432,2,V,8.0
V8,46.0,46.0,53.0,70.0,37.0,70,3089.0,square3,j,0.5617,2,V,8.0
V8,47.0,54.0,53.0,71.0,41.0,71,3160.0,square3,j,0.7942,2,V,8.0
V8,48.0,49.0,53.0,69.0,37.0,69,3229.0,square3,j,1.1423,2,V,8.0
V8,49.0,39.0,57.0,65.0,47.0,65,3294.0,square3,j,0.3592,2,V,8.0
V8,50.0,48.0,55.0,65.0,41.0,65,3359.0,square3,j,0.3796,2,V,8.0
V8,51.0,45.0,61.0,68.0,43.0,68,3427.0,square3,j,0.2148,2,V,8.0
V8,52.0,53.0,52.0,68.0,37.0,68,3495.0,square3,j,0.0006,2,V,8.0
V8,53.0,47.0,55.0,66.0,46.0,66,3561.0,square3,j,0.7765,2,V,8.0
V8,54.0,49.0,53.0,61.0,39.0,61,3622.0,square3,j,0.1961,2,V,8.0
V8,55.0,53.0,70.0,55.0,72.0,55,3677.0,square3,j,0.0059,2,V,8.0
V8,56.0,57.0,63.0,48.0,73.0,48,3725.0,square3,j,0.5954,2,V,8.0
V8,57.0,53.0,71.0,45.0,80.0,80,3805.0,square4,r,0.3182,3,V,8.0
V8,58.0,57.0,69.0,52.0,73.0,73,3878.0,square4,r,0.515,3,V,8.0
V8,59.0,58.0,67.0,54.0,73.0,73,3951.0,square4,r,0.5956,3,V,8.0
V8,60.0,55.0,66.0,47.0,76.0,76,4027.0,square4,r,0.3757,3,V,8.0
V8,61.0,56.0,65.0,54.0,72.0,65,4092.0,square2,f,0.452,1,V,8.0
V8,62.0,56.0,65.0,49.0,75.0,75,4167.0,square4,r,0.1611,3,V,8.0
V8,63.0,61.0,65.0,44.0,78.0,78,4245.0,square4,r,0.6646,3,V,8.0
V8,64.0,54.0,66.0,48.0,75.0,75,4320.0,square4,r,0.3916,3,V,8.0
V8,65.0,59.0,65.0,46.0,79.0,79,4399.0,square4,r,1.9429,3,V,8.0
V8,66.0,51.0,62.0,46.0,73.0,73,4472.0,square4,r,0.3107,3,V,8.0
V8,67.0,60.0,70.0,45.0,76.0,76,4548.0,square4,r,0.2959,3,V,8.0
V8,68.0,63.0,64.0,47.0,73.0,73,4621.0,square4,r,0.1426,3,V,8.0
V8,69.0,58.0,66.0,43.0,77.0,77,4698.0,square4,r,0.2324,3,V,8.0
V8,70.0,59.0,65.0,49.0,73.0,73,4771.0,square4,r,0.1431,3,V,8.0
V8,71.0,60.0,64.0,49.0,79.0,79,4850.0,square4,r,0.6921,3,V,8.0
V8,72.0,96.0,68.0,78.0,67.0,67,4917.0,square4,r,0.5965,3,V,8.0
V8,73.0,96.0,68.0,79.0,64.0,64,4981.0,square4,r,0.1264,3,V,8.0
V8,74.0,92.0,67.0,81.0,62.0,92,5073.0,square1,i,0.1019,0,V,8.0
V8,75.0,96.0,72.0,83.0,62.0,96,5169.0,square1,i,0.1261,0,V,8.0
V8,76.0,94.0,70.0,77.0,57.0,94,5263.0,square1,i,0.4808,0,V,8.0
V8,77.0,91.0,68.0,81.0,59.0,91,5354.0,square1,i,0.5376,0,V,8.0
V8,78.0,90.0,73.0,80.0,63.0,90,5444.0,square1,i,0.0047,0,V,8.0
V8,79.0,90.0,73.0,83.0,61.0,90,5534.0,square1,i,0.5071,0,V,8.0
V8,80.0,95.0,75.0,81.0,66.0,75,5609.0,square2,f,0.4621,1,V,8.0
V8,81.0,92.0,72.0,81.0,57.0,92,5701.0,square1,i,0.3477,0,V,8.0
V8,82.0,91.0,71.0,80.0,61.0,91,5792.0,square1,i,0.5647,0,V,8.0
V8,83.0,90.0,66.0,83.0,62.0,90,5882.0,square1,i,0.5852,0,V,8.0
V8,84.0,93.0,67.0,87.0,65.0,93,5975.0,square1,i,0.327,0,V,8.0
V8,85.0,85.0,70.0,80.0,62.0,85,6060.0,square1,i,0.3424,0,V,8.0
V8,86.0,84.0,72.0,85.0,62.0,84,6144.0,square1,i,0.3783,0,V,8.0
V8,87.0,91.0,68.0,82.0,65.0,91,6235.0,square1,i,0.6162,0,V,8.0
V8,88.0,93.0,67.0,83.0,61.0,93,6328.0,square1,i,0.3015,0,V,8.0
V8,89.0,95.0,68.0,78.0,66.0,95,6423.0,square1,i,0.5279,0,V,8.0
V8,90.0,91.0,73.0,80.0,60.0,91,6514.0,square1,i,0.2274,0,V,8.0
V8,91.0,93.0,68.0,81.0,64.0,93,6607.0,square1,i,0.2929,0,V,8.0
V8,92.0,90.0,75.0,82.0,67.0,90,6697.0,square1,i,0.2785,0,V,8.0
V8,93.0,92.0,70.0,82.0,66.0,92,6789.0,square1,i,0.2798,0,V,8.0
V8,94.0,90.0,71.0,78.0,63.0,90,6879.0,square1,i,0.293,0,V,8.0
V8,95.0,88.0,65.0,78.0,63.0,88,6967.0,square1,i,0.2337,0,V,8.0
V8,96.0,89.0,72.0,85.0,62.0,89,7056.0,square1,i,0.2806,0,V,8.0
V8,97.0,92.0,72.0,77.0,67.0,92,7148.0,square1,i,0.0775,0,V,8.0
V8,98.0,86.0,63.0,82.0,62.0,86,7234.0,square1,i,0.186,0,V,8.0
V8,99.0,90.0,66.0,75.0,61.0,90,7324.0,square1,i,0.3641,0,V,8.0
V12,0.0,47.0,30.0,38.0,55.0,47,47.0,square1,r,0.3714,0,V,12.0
V12,1.0,46.0,33.0,39.0,57.0,33,80.0,square2,i,0.5348,1,V,12.0
V12,2.0,51.0,29.0,42.0,52.0,42,122.0,square3,f,0.25,2,V,12.0
V12,3.0,52.0,30.0,38.0,62.0,62,184.0,square4,j,0.5941,3,V,12.0
V12,4.0,48.0,30.0,39.0,62.0,62,246.0,square4,j,0.2266,3,V,12.0
V12,5.0,55.0,34.0,43.0,61.0,61,307.0,square4,j,0.0665,3,V,12.0
V12,6.0,45.0,35.0,42.0,56.0,56,363.0,square4,j,0.06,3,V,12.0
V12,7.0,48.0,29.0,35.0,57.0,57,420.0,square4,j,0.1217,3,V,12.0
V12,8.0,46.0,33.0,38.0,59.0,59,479.0,square4,j,0.1432,3,V,12.0
V12,9.0,44.0,31.0,42.0,56.0,56,535.0,square4,j,0.1102,3,V,12.0
V12,10.0,48.0,34.0,45.0,55.0,55,590.0,square4,j,0.6303,3,V,12.0
V12,11.0,45.0,32.0,41.0,55.0,55,645.0,square4,j,0.1136,3,V,12.0
V12,12.0,52.0,26.0,42.0,57.0,26,671.0,square2,i,0.1646,1,V,12.0
V12,13.0,56.0,31.0,41.0,54.0,41,712.0,square3,f,0.152,2,V,12.0
V12,14.0,44.0,34.0,40.0,64.0,44,756.0,square1,r,0.3992,0,V,12.0
V12,15.0,48.0,32.0,39.0,61.0,61,817.0,square4,j,0.3312,3,V,12.0
V12,16.0,49.0,33.0,37.0,58.0,58,875.0,square4,j,0.049,3,V,12.0
V12,17.0,45.0,33.0,43.0,57.0,57,932.0,square4,j,0.5452,3,V,12.0
V12,18.0,45.0,28.0,40.0,58.0,58,990.0,square4,j,0.4776,3,V,12.0
V12,19.0,42.0,33.0,43.0,59.0,59,1049.0,square4,j,0.424,3,V,12.0
V12,20.0,46.0,30.0,38.0,62.0,62,1111.0,square4,j,0.2609,3,V,12.0
V12,21.0,46.0,35.0,40.0,55.0,55,1166.0,square4,j,0.243,3,V,12.0
V12,22.0,46.0,34.0,36.0,63.0,34,1200.0,square2,i,0.1018,1,V,12.0
V12,23.0,54.0,34.0,42.0,56.0,54,1254.0,square1,r,0.5973,0,V,12.0
V12,24.0,44.0,30.0,41.0,59.0,41,1295.0,square3,f,0.517,2,V,12.0
V12,25.0,49.0,33.0,37.0,64.0,64,1359.0,square4,j,0.2964,3,V,12.0
V12,26.0,52.0,34.0,39.0,57.0,52,1411.0,square1,r,0.2175,0,V,12.0
V12,27.0,50.0,26.0,37.0,55.0,55,1466.0,square4,j,0.0232,3,V,12.0
V12,28.0,41.0,29.0,46.0,21.0,41,1507.0,square1,r,0.0647,0,V,12.0
V12,29.0,41.0,28.0,51.0,20.0,20,1527.0,square4,j,0.0004,3,V,12.0
V12,30.0,32.0,31.0,46.0,22.0,32,1559.0,square1,r,0.0489,0,V,12.0
V12,31.0,38.0,28.0,45.0,22.0,28,1587.0,square2,i,0.4594,1,V,12.0
V12,32.0,35.0,27.0,44.0,16.0,44,1631.0,square3,f,0.4094,2,V,12.0
V12,33.0,39.0,29.0,49.0,21.0,49,1680.0,square3,f,0.5285,2,V,12.0
V12,34.0,39.0,28.0,49.0,15.0,49,1729.0,square3,f,0.309,2,V,12.0
V12,35.0,36.0,29.0,50.0,17.0,36,1765.0,square1,r,0.4118,0,V,12.0
V12,36.0,41.0,28.0,48.0,12.0,28,1793.0,square2,i,0.4936,1,V,12.0
V12,37.0,34.0,29.0,46.0,25.0,99999,1793.0,invalid,,,-1,V,12.0
V12,38.0,38.0,28.0,51.0,19.0,38,1831.0,square1,r,0.4113,0,V,12.0
V12,39.0,39.0,31.0,45.0,13.0,45,1876.0,square3,f,0.4675,2,V,12.0
V12,40.0,35.0,28.0,46.0,26.0,28,1904.0,square2,i,0.3005,1,V,12.0
V12,41.0,38.0,27.0,46.0,20.0,20,1924.0,square4,j,0.2436,3,V,12.0
V12,42.0,40.0,26.0,50.0,23.0,50,1974.0,square3,f,0.0555,2,V,12.0
V12,43.0,33.0,30.0,45.0,18.0,45,2019.0,square3,f,0.2262,2,V,12.0
V12,44.0,39.0,31.0,46.0,22.0,46,2065.0,square3,f,0.2259,2,V,12.0
V12,45.0,32.0,26.0,42.0,20.0,42,2107.0,square3,f,0.2465,2,V,12.0
V12,46.0,36.0,29.0,43.0,24.0,43,2150.0,square3,f,0.1824,2,V,12.0
V12,47.0,37.0,30.0,46.0,21.0,46,2196.0,square3,f,0.4804,2,V,12.0
V12,48.0,37.0,27.0,44.0,19.0,37,2233.0,square1,r,0.1443,0,V,12.0
V12,49.0,36.0,33.0,55.0,16.0,55,2288.0,square3,f,0.2106,2,V,12.0
V12,50.0,45.0,28.0,44.0,18.0,18,2306.0,square4,j,0.281,3,V,12.0
V12,51.0,35.0,32.0,49.0,19.0,32,2338.0,square2,i,0.0166,1,V,12.0
V12,52.0,36.0,56.0,31.0,52.0,31,2369.0,square3,f,0.0947,2,V,12.0
V12,53.0,36.0,57.0,29.0,45.0,36,2405.0,square1,r,0.083,0,V,12.0
V12,54.0,38.0,61.0,28.0,51.0,61,2466.0,square2,i,0.144,1,V,12.0
V12,55.0,35.0,60.0,29.0,47.0,47,2513.0,square4,j,0.1764,3,V,12.0
V12,56.0,34.0,62.0,29.0,46.0,62,2575.0,square2,i,0.1009,1,V,12.0
V12,57.0,43.0,57.0,32.0,46.0,57,2632.0,square2,i,0.2356,1,V,12.0
V12,58.0,40.0,59.0,32.0,50.0,59,2691.0,square2,i,0.1771,1,V,12.0
V12,59.0,41.0,62.0,33.0,48.0,62,2753.0,square2,i,0.1435,1,V,12.0
V12,60.0,36.0,61.0,32.0,49.0,61,2814.0,square2,i,0.0597,1,V,12.0
V12,61.0,39.0,56.0,32.0,44.0,56,2870.0,square2,i,0.0597,1,V,12.0
V12,62.0,39.0,57.0,30.0,46.0,39,2909.0,square1,r,0.0791,0,V,12.0
V12,63.0,42.0,53.0,29.0,46.0,29,2938.0,square3,f,0.4994,2,V,12.0
V12,64.0,35.0,57.0,32.0,50.0,50,2988.0,square4,j,0.4131,3,V,12.0
V12,65.0,44.0,58.0,32.0,49.0,58,3046.0,square2,i,0.1644,1,V,12.0
V12,66.0,44.0,56.0,29.0,52.0,52,3098.0,square4,j,0.2138,3,V,12.0
V12,67.0,41.0,60.0,30.0,49.0,60,3158.0,square2,i,0.4156,1,V,12.0
V12,68.0,42.0,58.0,32.0,45.0,58,3216.0,square2,i,0.2439,1,V,12.0
V12,69.0,36.0,60.0,33.0,50.0,60,3276.0,square2,i,0.0925,1,V,12.0
V12,70.0,36.0,57.0,27.0,46.0,57,3333.0,square2,i,0.0044,1,V,12.0
V12,71.0,41.0,59.0,32.0,48.0,59,3392.0,square2,i,0.1429,1,V,12.0
V12,72.0,34.0,59.0,31.0,49.0,59,3451.0,square2,i,0.0465,1,V,12.0
V12,73.0,71.0,53.0,65.0,49.0,53,3504.0,square2,i,0.2036,1,V,12.0
V12,74.0,69.0,49.0,63.0,45.0,49,3553.0,square2,i,0.0936,1,V,12.0
V12,75.0,72.0,51.0,56.0,46.0,46,3599.0,square4,j,0.4428,3,V,12.0
V12,76.0,72.0,48.0,58.0,43.0,58,3657.0,square3,f,0.0282,2,V,12.0
V12,77.0,74.0,57.0,59.0,44.0,74,3731.0,square1,r,0.2086,0,V,12.0
V12,78.0,69.0,55.0,63.0,50.0,69,3800.0,square1,r,0.2489,0,V,12.0
V12,79.0,73.0,53.0,58.0,43.0,73,3873.0,square1,r,0.1759,0,V,12.0
V12,80.0,71.0,47.0,65.0,40.0,71,3944.0,square1,r,0.0686,0,V,12.0
V12,81.0,66.0,49.0,57.0,40.0,66,4010.0,square1,r,0.2429,0,V,12.0
V12,82.0,71.0,53.0,57.0,48.0,71,4081.0,square1,r,0.1114,0,V,12.0
V12,83.0,70.0,50.0,56.0,49.0,70,4151.0,square1,r,0.1601,0,V,12.0
V12,84.0,69.0,45.0,64.0,43.0,69,4220.0,square1,r,0.5759,0,V,12.0
V12,85.0,64.0,48.0,54.0,42.0,48,4268.0,square2,i,0.4449,1,V,12.0
V12,86.0,71.0,49.0,63.0,44.0,63,4331.0,square3,f,0.033,2,V,12.0
V12,87.0,72.0,52.0,55.0,42.0,42,4373.0,square4,j,0.0438,3,V,12.0
V12,88.0,64.0,48.0,59.0,44.0,64,4437.0,square1,r,0.1125,0,V,12.0
V12,89.0,69.0,48.0,62.0,45.0,62,4499.0,square3,f,0.5175,2,V,12.0
V12,90.0,68.0,56.0,60.0,42.0,68,4567.0,square1,r,0.227,0,V,12.0
V12,91.0,69.0,52.0,62.0,45.0,62,4629.0,square3,f,0.1756,2,V,12.0
V12,92.0,65.0,50.0,64.0,47.0,65,4694.0,square1,r,0.3769,0,V,12.0
V12,93.0,68.0,51.0,62.0,43.0,68,4762.0,square1,r,0.1678,0,V,12.0
V12,94.0,68.0,52.0,60.0,38.0,68,4830.0,square1,r,0.1932,0,V,12.0
V12,95.0,71.0,52.0,58.0,47.0,58,4888.0,square3,f,0.0977,2,V,12.0
V12,96.0,66.0,49.0,59.0,44.0,66,4954.0,square1,r,0.3088,0,V,12.0
V12,97.0,74.0,47.0,54.0,47.0,74,5028.0,square1,r,0.0942,0,V,12.0
V12,98.0,68.0,43.0,64.0,41.0,68,5096.0,square1,r,0.2228,0,V,12.0
V12,99.0,71.0,53.0,62.0,44.0,71,5167.0,square1,r,1.0811,0,V,12.0
V11,0.0,42.0,67.0,57.0,49.0,57,57.0,square3,r,0.8809,2,V,11.0
V11,1.0,42.0,71.0,60.0,53.0,42,99.0,square1,i,0.0848,0,V,11.0
V11,2.0,45.0,76.0,58.0,51.0,51,150.0,square4,f,0.7999,3,V,11.0
V11,3.0,44.0,65.0,60.0,49.0,65,215.0,square2,j,0.3431,1,V,11.0
V11,4.0,46.0,73.0,64.0,51.0,64,279.0,square3,r,0.2444,2,V,11.0
V11,5.0,47.0,67.0,58.0,54.0,47,326.0,square1,i,0.1096,0,V,11.0
V11,6.0,43.0,68.0,58.0,50.0,50,376.0,square4,f,0.085,3,V,11.0
V11,7.0,42.0,67.0,60.0,58.0,67,443.0,square2,j,0.08,1,V,11.0
V11,8.0,44.0,67.0,60.0,53.0,60,503.0,square3,r,0.1604,2,V,11.0
V11,9.0,44.0,67.0,59.0,54.0,67,570.0,square2,j,0.1055,1,V,11.0
V11,10.0,49.0,76.0,57.0,52.0,76,646.0,square2,j,0.5812,1,V,11.0
V11,11.0,45.0,71.0,58.0,51.0,71,717.0,square2,j,0.1004,1,V,11.0
V11,12.0,45.0,72.0,58.0,56.0,72,789.0,square2,j,0.1596,1,V,11.0
V11,13.0,49.0,67.0,63.0,54.0,67,856.0,square2,j,0.1349,1,V,11.0
V11,14.0,50.0,75.0,57.0,48.0,75,931.0,square2,j,0.1138,1,V,11.0
V11,15.0,40.0,71.0,61.0,51.0,61,992.0,square3,r,0.0741,2,V,11.0
V11,16.0,47.0,72.0,56.0,54.0,72,1064.0,square2,j,0.1435,1,V,11.0
V11,17.0,40.0,71.0,61.0,46.0,40,1104.0,square1,i,0.3935,0,V,11.0
V11,18.0,44.0,69.0,59.0,51.0,69,1173.0,square2,j,0.0407,1,V,11.0
V11,19.0,44.0,73.0,59.0,47.0,73,1246.0,square2,j,0.1139,1,V,11.0
V11,20.0,47.0,69.0,64.0,54.0,69,1315.0,square2,j,0.0617,1,V,11.0
V11,21.0,78.0,49.0,70.0,65.0,49,1364.0,square2,j,0.0959,1,V,11.0
V11,22.0,78.0,56.0,73.0,62.0,73,1437.0,square3,r,0.2504,2,V,11.0
V11,23.0,84.0,54.0,71.0,65.0,84,1521.0,square1,i,0.0624,0,V,11.0
V11,24.0,80.0,55.0,72.0,67.0,67,1588.0,square4,f,0.1104,3,V,11.0
V11,25.0,80.0,55.0,75.0,63.0,80,1668.0,square1,i,0.1813,0,V,11.0
V11,26.0,80.0,56.0,67.0,62.0,67,1735.0,square3,r,0.0006,2,V,11.0
V11,27.0,80.0,51.0,68.0,62.0,80,1815.0,square1,i,0.475,0,V,11.0
V11,28.0,79.0,57.0,67.0,57.0,79,1894.0,square1,i,0.0835,0,V,11.0
V11,29.0,79.0,50.0,67.0,62.0,79,1973.0,square1,i,0.0833,0,V,11.0
V11,30.0,88.0,54.0,74.0,61.0,88,2061.0,square1,i,0.148,0,V,11.0
V11,31.0,81.0,51.0,75.0,63.0,81,2142.0,square1,i,0.11,0,V,11.0
V11,32.0,76.0,51.0,69.0,65.0,76,2218.0,square1,i,0.6109,0,V,11.0
V11,33.0,78.0,54.0,72.0,64.0,72,2290.0,square3,r,0.043,2,V,11.0
V11,34.0,77.0,53.0,71.0,62.0,62,2352.0,square4,f,0.118,3,V,11.0
V11,35.0,74.0,59.0,75.0,62.0,59,2411.0,square2,j,0.0063,1,V,11.0
V11,36.0,79.0,50.0,72.0,62.0,72,2483.0,square3,r,0.0431,2,V,11.0
V11,37.0,74.0,54.0,68.0,62.0,74,2557.0,square1,i,0.049,0,V,11.0
V11,38.0,80.0,57.0,65.0,58.0,80,2637.0,square1,i,0.0131,0,V,11.0
V11,39.0,73.0,52.0,75.0,66.0,73,2710.0,square1,i,0.3108,0,V,11.0
V11,40.0,82.0,57.0,71.0,57.0,71,2781.0,square3,r,0.0804,2,V,11.0
V11,41.0,78.0,53.0,73.0,64.0,78,2859.0,square1,i,0.1724,0,V,11.0
V11,42.0,72.0,56.0,67.0,59.0,67,2926.0,square3,r,0.1494,2,V,11.0
V11,43.0,81.0,54.0,73.0,63.0,81,3007.0,square1,i,0.0005,0,V,11.0
V11,44.0,76.0,54.0,75.0,59.0,76,3083.0,square1,i,0.1103,0,V,11.0
V11,45.0,79.0,59.0,71.0,64.0,79,3162.0,square1,i,0.1763,0,V,11.0
V11,46.0,80.0,55.0,67.0,57.0,80,3242.0,square1,i,0.0772,0,V,11.0
V11,47.0,84.0,53.0,75.0,56.0,84,3326.0,square1,i,0.1117,0,V,11.0
V11,48.0,83.0,57.0,71.0,60.0,83,3409.0,square1,i,0.0943,0,V,11.0
V11,49.0,79.0,52.0,71.0,60.0,79,3488.0,square1,i,0.0771,0,V,11.0
V11,50.0,76.0,50.0,69.0,60.0,69,3557.0,square3,r,0.6147,2,V,11.0
V11,51.0,79.0,54.0,72.0,57.0,79,3636.0,square1,i,0.0936,0,V,11.0
V11,52.0,80.0,54.0,72.0,64.0,80,3716.0,square1,i,0.2014,0,V,11.0
V11,53.0,35.0,50.0,55.0,69.0,35,3751.0,square1,i,0.0005,0,V,11.0
V11,54.0,45.0,48.0,55.0,73.0,55,3806.0,square3,r,0.1605,2,V,11.0
V11,55.0,43.0,53.0,58.0,70.0,70,3876.0,square4,f,0.077,3,V,11.0
V11,56.0,40.0,46.0,60.0,62.0,46,3922.0,square2,j,0.1171,1,V,11.0
V11,57.0,44.0,46.0,53.0,71.0,71,3993.0,square4,f,0.0608,3,V,11.0
V11,58.0,44.0,52.0,55.0,68.0,68,4061.0,square4,f,0.065,3,V,11.0
V11,59.0,44.0,44.0,57.0,66.0,66,4127.0,square4,f,0.0941,3,V,11.0
V11,60.0,40.0,46.0,57.0,62.0,62,4189.0,square4,f,0.0005,3,V,11.0
V11,61.0,42.0,52.0,58.0,62.0,62,4251.0,square4,f,0.0611,3,V,11.0
V11,62.0,40.0,49.0,56.0,71.0,71,4322.0,square4,f,0.0005,3,V,11.0
V11,63.0,40.0,54.0,60.0,66.0,66,4388.0,square4,f,0.0109,3,V,11.0
V11,64.0,41.0,43.0,51.0,66.0,66,4454.0,square4,f,0.0164,3,V,11.0
V11,65.0,39.0,48.0,59.0,66.0,66,4520.0,square4,f,0.0477,3,V,11.0
V11,66.0,40.0,48.0,59.0,69.0,59,4579.0,square3,r,0.035,2,V,11.0
V11,67.0,46.0,45.0,58.0,69.0,46,4625.0,square1,i,0.7093,0,V,11.0
V11,68.0,41.0,50.0,56.0,69.0,50,4675.0,square2,j,0.6309,1,V,11.0
V11,69.0,48.0,49.0,57.0,71.0,71,4746.0,square4,f,0.2099,3,V,11.0
V11,70.0,41.0,47.0,58.0,65.0,65,4811.0,square4,f,0.0457,3,V,11.0
V11,71.0,37.0,46.0,58.0,60.0,60,4871.0,square4,f,0.1128,3,V,11.0
V11,72.0,41.0,47.0,54.0,65.0,65,4936.0,square4,f,0.7864,3,V,11.0
V11,73.0,42.0,47.0,60.0,67.0,67,5003.0,square4,f,0.0111,3,V,11.0
V11,74.0,43.0,49.0,57.0,64.0,64,5067.0,square4,f,0.3107,3,V,11.0
V11,75.0,38.0,46.0,57.0,66.0,66,5133.0,square4,f,0.0733,3,V,11.0
V11,76.0,42.0,50.0,58.0,68.0,68,5201.0,square4,f,0.7885,3,V,11.0
V11,77.0,36.0,49.0,58.0,64.0,64,5265.0,square4,f,0.501,3,V,11.0
V11,78.0,40.0,50.0,56.0,67.0,67,5332.0,square4,f,0.2602,3,V,11.0
V11,79.0,39.0,48.0,56.0,67.0,67,5399.0,square4,f,0.3,3,V,11.0
V11,80.0,51.0,33.0,30.0,45.0,45,5444.0,square4,f,0.6085,3,V,11.0
V11,81.0,49.0,31.0,23.0,48.0,49,5493.0,square1,i,0.765,0,V,11.0
V11,82.0,55.0,30.0,25.0,42.0,25,5518.0,square3,r,0.0946,2,V,11.0
V11,83.0,50.0,33.0,27.0,48.0,33,5551.0,square2,j,0.4466,1,V,11.0
V11,84.0,52.0,34.0,25.0,43.0,43,5594.0,square4,f,0.1775,3,V,11.0
V11,85.0,49.0,28.0,28.0,44.0,49,5643.0,square1,i,0.3336,0,V,11.0
V11,86.0,57.0,29.0,27.0,48.0,27,5670.0,square3,r,0.4266,2,V,11.0
V11,87.0,49.0,29.0,21.0,38.0,49,5719.0,square1,i,0.3638,0,V,11.0
V11,88.0,55.0,32.0,29.0,46.0,55,5774.0,square1,i,0.2273,0,V,11.0
V11,89.0,50.0,28.0,23.0,43.0,28,5802.0,square2,j,0.0658,1,V,11.0
V11,90.0,54.0,34.0,32.0,41.0,54,5856.0,square1,i,0.0979,0,V,11.0
V11,91.0,50.0,34.0,26.0,44.0,50,5906.0,square1,i,0.0112,0,V,11.0
V11,92.0,51.0,31.0,27.0,50.0,51,5957.0,square1,i,0.7179,0,V,11.0
V11,93.0,49.0,38.0,28.0,42.0,49,6006.0,square1,i,0.3009,0,V,11.0
V11,94.0,50.0,29.0,25.0,46.0,25,6031.0,square3,r,0.33,2,V,11.0
V11,95.0,51.0,36.0,22.0,40.0,40,6071.0,square4,f,0.0004,3,V,11.0
V11,96.0,52.0,34.0,32.0,45.0,52,6123.0,square1,i,0.4956,0,V,11.0
V11,97.0,53.0,27.0,32.0,44.0,53,6176.0,square1,i,0.2155,0,V,11.0
V11,98.0,60.0,31.0,25.0,48.0,60,6236.0,square1,i,0.0959,0,V,11.0
V11,99.0,53.0,33.0,23.0,42.0,33,6269.0,square2,j,0.3444,1,V,11.0
NS4,0.0,55.0,53.0,59.0,44.0,99999,0.0,invalid,,,-1,N,4.0
NS4,1.0,49.0,56.0,64.0,41.0,99999,0.0,invalid,,,-1,N,4.0
NS4,2.0,50.0,54.0,71.0,48.0,48,48.0,square4,i,1.539,3,N,4.0
NS4,3.0,53.0,58.0,67.0,50.0,99999,48.0,invalid,,,-1,N,4.0
NS4,4.0,49.0,51.0,70.0,55.0,49,97.0,square1,j,0.612,0,N,4.0
NS4,5.0,55.0,59.0,73.0,58.0,99999,97.0,invalid,,,-1,N,4.0
NS4,6.0,56.0,54.0,71.0,57.0,57,154.0,square4,i,1.6958,3,N,4.0
NS4,7.0,60.0,54.0,75.0,52.0,54,208.0,square2,r,1.5937,1,N,4.0
NS4,8.0,58.0,53.0,74.0,52.0,52,260.0,square4,i,0.2772,3,N,4.0
NS4,9.0,46.0,48.0,78.0,51.0,78,338.0,square3,f,0.1178,2,N,4.0
NS4,10.0,55.0,48.0,78.0,51.0,55,393.0,square1,j,0.3761,0,N,4.0
NS4,11.0,55.0,44.0,79.0,49.0,79,472.0,square3,f,0.5727,2,N,4.0
NS4,12.0,50.0,40.0,79.0,50.0,79,551.0,square3,f,0.3999,2,N,4.0
NS4,13.0,45.0,39.0,79.0,53.0,79,630.0,square3,f,0.6467,2,N,4.0
NS4,14.0,44.0,38.0,77.0,56.0,77,707.0,square3,f,1.0019,2,N,4.0
NS4,15.0,45.0,32.0,68.0,52.0,68,775.0,square3,f,0.3268,2,N,4.0
NS4,16.0,49.0,32.0,74.0,53.0,74,849.0,square3,f,0.2803,2,N,4.0
NS4,17.0,45.0,32.0,69.0,51.0,69,918.0,square3,f,0.2122,2,N,4.0
NS4,18.0,50.0,34.0,69.0,47.0,69,987.0,square3,f,0.2924,2,N,4.0
NS4,19.0,50.0,36.0,65.0,53.0,65,1052.0,square3,f,0.6446,2,N,4.0
NS4,20.0,45.0,36.0,62.0,53.0,62,1114.0,square3,f,0.2804,2,N,4.0
NS4,21.0,49.0,35.0,62.0,55.0,62,1176.0,square3,f,0.0278,2,N,4.0
NS4,22.0,53.0,32.0,61.0,60.0,61,1237.0,square3,f,0.1334,2,N,4.0
NS4,23.0,52.0,33.0,58.0,54.0,58,1295.0,square3,f,0.5313,2,N,4.0
NS4,24.0,48.0,32.0,52.0,60.0,60,1355.0,square4,i,0.2767,3,N,4.0
NS4,25.0,47.0,30.0,53.0,57.0,30,1385.0,square2,r,0.3767,1,N,4.0
NS4,26.0,50.0,30.0,60.0,55.0,50,1435.0,square1,j,0.3062,0,N,4.0
NS4,27.0,50.0,28.0,62.0,47.0,47,1482.0,square4,i,0.3432,3,N,4.0
NS4,28.0,54.0,28.0,58.0,49.0,58,1540.0,square3,f,0.1106,2,N,4.0
NS4,29.0,44.0,29.0,50.0,49.0,29,1569.0,square2,r,0.0791,1,N,4.0
NS4,30.0,43.0,26.0,55.0,57.0,43,1612.0,square1,j,0.8516,0,N,4.0
NS4,31.0,43.0,25.0,60.0,54.0,60,1672.0,square3,f,0.4437,2,N,4.0
NS4,32.0,34.0,27.0,58.0,56.0,58,1730.0,square3,f,0.41,2,N,4.0
NS4,33.0,34.0,20.0,60.0,62.0,60,1790.0,square3,f,0.2775,2,N,4.0
NS4,34.0,38.0,28.0,58.0,57.0,58,1848.0,square3,f,0.2354,2,N,4.0
NS4,35.0,40.0,24.0,63.0,59.0,63,1911.0,square3,f,0.3104,2,N,4.0
NS4,36.0,36.0,30.0,56.0,63.0,56,1967.0,square3,f,0.2239,2,N,4.0
NS4,37.0,40.0,29.0,54.0,63.0,54,2021.0,square3,f,0.0258,2,N,4.0
NS4,38.0,40.0,33.0,53.0,69.0,53,2074.0,square3,f,0.3096,2,N,4.0
NS4,39.0,36.0,30.0,57.0,67.0,67,2141.0,square4,i,0.0607,3,N,4.0
NS4,40.0,33.0,33.0,58.0,68.0,33,2174.0,square2,r,0.5986,1,N,4.0
NS4,41.0,34.0,28.0,58.0,72.0,34,2208.0,square1,j,0.2046,0,N,4.0
NS4,42.0,35.0,30.0,60.0,70.0,70,2278.0,square4,i,0.0056,3,N,4.0
NS4,43.0,35.0,34.0,57.0,63.0,63,2341.0,square4,i,0.284,3,N,4.0
NS4,44.0,30.0,32.0,59.0,69.0,69,2410.0,square4,i,0.1117,3,N,4.0
NS4,45.0,29.0,31.0,60.0,66.0,66,2476.0,square4,i,0.1669,3,N,4.0
NS4,46.0,35.0,34.0,66.0,66.0,66,2542.0,square4,i,0.444,3,N,4.0
NS4,47.0,35.0,28.0,63.0,62.0,62,2604.0,square4,i,0.1256,3,N,4.0
NS4,48.0,37.0,37.0,61.0,55.0,55,2659.0,square4,i,0.6551,3,N,4.0
NS4,49.0,40.0,34.0,59.0,54.0,54,2713.0,square4,i,0.0778,3,N,4.0
NS4,50.0,39.0,38.0,68.0,51.0,38,2751.0,square2,r,0.3121,1,N,4.0
NS4,51.0,46.0,28.0,69.0,48.0,69,2820.0,square3,f,0.0607,2,N,4.0
NS4,52.0,40.0,34.0,62.0,49.0,49,2869.0,square4,i,0.1467,3,N,4.0
NS4,53.0,39.0,34.0,63.0,48.0,63,2932.0,square3,f,0.0002,2,N,4.0
NS4,54.0,44.0,31.0,58.0,47.0,44,2976.0,square1,j,0.4527,0,N,4.0
NS4,55.0,42.0,30.0,68.0,46.0,68,3044.0,square3,f,0.3605,2,N,4.0
NS4,56.0,36.0,25.0,69.0,44.0,69,3113.0,square3,f,0.3116,2,N,4.0
NS4,57.0,35.0,29.0,71.0,46.0,71,3184.0,square3,f,0.3781,2,N,4.0
NS4,58.0,43.0,28.0,68.0,47.0,68,3252.0,square3,f,0.8437,2,N,4.0
NS4,59.0,43.0,27.0,67.0,43.0,67,3319.0,square3,f,1.8819,2,N,4.0
NS4,60.0,40.0,25.0,72.0,46.0,72,3391.0,square3,f,0.6507,2,N,4.0
NS4,61.0,39.0,32.0,63.0,43.0,63,3454.0,square3,f,0.0043,2,N,4.0
NS4,62.0,39.0,29.0,61.0,39.0,61,3515.0,square3,f,0.4477,2,N,4.0
NS4,63.0,41.0,28.0,59.0,40.0,99999,3515.0,invalid,,,-1,N,4.0
NS4,64.0,41.0,31.0,57.0,51.0,57,3572.0,square3,f,0.8618,2,N,4.0
NS4,65.0,46.0,36.0,59.0,58.0,58,3630.0,square4,i,0.6593,3,N,4.0
NS4,66.0,45.0,36.0,53.0,46.0,36,3666.0,square2,r,0.1104,1,N,4.0
NS4,67.0,40.0,34.0,49.0,46.0,40,3706.0,square1,j,0.1683,0,N,4.0
NS4,68.0,43.0,37.0,48.0,48.0,48,3754.0,square3,f,1.5603,2,N,4.0
NS4,69.0,42.0,36.0,44.0,56.0,56,3810.0,square4,i,0.16,3,N,4.0
NS4,70.0,40.0,38.0,47.0,58.0,38,3848.0,square2,r,0.6353,1,N,4.0
NS4,71.0,36.0,34.0,42.0,63.0,36,3884.0,square1,j,0.8674,0,N,4.0
NS4,72.0,38.0,36.0,36.0,66.0,36,3920.0,square2,r,0.3096,1,N,4.0
NS4,73.0,36.0,40.0,40.0,66.0,66,3986.0,square4,i,0.3782,3,N,4.0
NS4,74.0,31.0,38.0,46.0,67.0,46,4032.0,square3,f,0.0474,2,N,4.0
NS4,75.0,40.0,33.0,42.0,64.0,64,4096.0,square4,i,0.4109,3,N,4.0
NS4,76.0,38.0,35.0,42.0,64.0,64,4160.0,square4,i,0.3814,3,N,4.0
NS4,77.0,40.0,35.0,39.0,66.0,66,4226.0,square4,i,0.3942,3,N,4.0
NS4,78.0,40.0,33.0,38.0,68.0,68,4294.0,square4,i,0.3682,3,N,4.0
NS4,79.0,40.0,38.0,31.0,70.0,70,4364.0,square4,i,0.1944,3,N,4.0
NS4,80.0,37.0,35.0,33.0,73.0,73,4437.0,square4,i,0.2098,3,N,4.0
NS4,81.0,34.0,35.0,30.0,70.0,70,4507.0,square4,i,0.8935,3,N,4.0
NS4,82.0,35.0,37.0,31.0,66.0,66,4573.0,square4,i,1.4622,3,N,4.0
NS4,83.0,42.0,32.0,28.0,67.0,67,4640.0,square4,i,0.46,3,N,4.0
NS4,84.0,38.0,35.0,30.0,68.0,68,4708.0,square4,i,0.31,3,N,4.0
NS4,85.0,43.0,35.0,32.0,64.0,64,4772.0,square4,i,0.3349,3,N,4.0
NS4,86.0,49.0,35.0,32.0,70.0,70,4842.0,square4,i,0.1313,3,N,4.0
NS4,87.0,48.0,34.0,32.0,69.0,69,4911.0,square4,i,0.668,3,N,4.0
NS4,88.0,50.0,35.0,30.0,64.0,64,4975.0,square4,i,0.3686,3,N,4.0
NS4,89.0,48.0,34.0,32.0,68.0,68,5043.0,square4,i,0.181,3,N,4.0
NS4,90.0,53.0,29.0,27.0,68.0,29,5072.0,square2,r,0.1403,1,N,4.0
NS4,91.0,54.0,27.0,34.0,68.0,34,5106.0,square3,f,0.061,2,N,4.0
NS4,92.0,52.0,20.0,35.0,69.0,52,5158.0,square1,j,0.0318,0,N,4.0
NS4,93.0,42.0,15.0,33.0,68.0,68,5226.0,square4,i,0.415,3,N,4.0
NS4,94.0,40.0,24.0,37.0,72.0,72,5298.0,square4,i,0.2117,3,N,4.0
NS4,95.0,43.0,25.0,43.0,69.0,69,5367.0,square4,i,0.1775,3,N,4.0
NS4,96.0,41.0,29.0,43.0,74.0,74,5441.0,square4,i,0.2172,3,N,4.0
NS4,97.0,46.0,32.0,42.0,78.0,78,5519.0,square4,i,0.1436,3,N,4.0
NS4,98.0,48.0,26.0,46.0,75.0,75,5594.0,square4,i,0.0318,3,N,4.0
NS4,99.0,46.0,27.0,45.0,71.0,71,5665.0,square4,i,0.0102,3,N,4.0
NS1,0.0,60.0,65.0,21.0,53.0,53,53.0,square4,r,0.6487,3,N,1.0
NS1,1.0,56.0,62.0,31.0,51.0,31,84.0,square3,i,0.0992,2,N,1.0
NS1,2.0,58.0,62.0,24.0,57.0,58,142.0,square1,f,0.4766,0,N,1.0
NS1,3.0,56.0,58.0,33.0,58.0,58,200.0,square2,j,0.0935,1,N,1.0
NS1,4.0,60.0,58.0,32.0,58.0,58,258.0,square4,r,0.4731,3,N,1.0
NS1,5.0,56.0,59.0,31.0,54.0,31,289.0,square3,i,0.149,2,N,1.0
NS1,6.0,58.0,57.0,37.0,56.0,58,347.0,square1,f,0.363,0,N,1.0
NS1,7.0,57.0,53.0,37.0,57.0,53,400.0,square2,j,0.2342,1,N,1.0
NS1,8.0,58.0,57.0,37.0,54.0,54,454.0,square4,r,0.2924,3,N,1.0
NS1,9.0,53.0,50.0,36.0,55.0,53,507.0,square1,f,0.1295,0,N,1.0
NS1,10.0,58.0,47.0,32.0,53.0,47,554.0,square2,j,0.1172,1,N,1.0
NS1,11.0,55.0,44.0,34.0,53.0,53,607.0,square4,r,0.1149,3,N,1.0
NS1,12.0,56.0,44.0,30.0,45.0,56,663.0,square1,f,0.1112,0,N,1.0
NS1,13.0,60.0,47.0,34.0,48.0,48,711.0,square4,r,0.1005,3,N,1.0
NS1,14.0,54.0,48.0,37.0,54.0,54,765.0,square1,f,0.0004,0,N,1.0
NS1,15.0,53.0,44.0,35.0,51.0,35,800.0,square3,i,0.0605,2,N,1.0
NS1,16.0,50.0,50.0,35.0,43.0,50,850.0,square2,j,0.5967,1,N,1.0
NS1,17.0,53.0,46.0,35.0,44.0,53,903.0,square1,f,0.1101,0,N,1.0
NS1,18.0,54.0,51.0,42.0,48.0,51,954.0,square2,j,0.1446,1,N,1.0
NS1,19.0,62.0,51.0,44.0,53.0,53,1007.0,square4,r,0.0402,3,N,1.0
NS1,20.0,63.0,47.0,42.0,47.0,63,1070.0,square1,f,0.0423,0,N,1.0
NS1,21.0,67.0,51.0,41.0,46.0,51,1121.0,square2,j,0.1413,1,N,1.0
NS1,22.0,75.0,44.0,45.0,43.0,75,1196.0,square1,f,0.6664,0,N,1.0
NS1,23.0,64.0,42.0,41.0,47.0,64,1260.0,square1,f,0.0592,0,N,1.0
NS1,24.0,68.0,41.0,39.0,49.0,68,1328.0,square1,f,0.093,0,N,1.0
NS1,25.0,71.0,43.0,33.0,42.0,71,1399.0,square1,f,0.7287,0,N,1.0
NS1,26.0,70.0,41.0,26.0,45.0,70,1469.0,square1,f,0.0773,0,N,1.0
NS1,27.0,72.0,42.0,34.0,48.0,72,1541.0,square1,f,0.0006,0,N,1.0
NS1,28.0,71.0,41.0,33.0,45.0,45,1586.0,square4,r,0.3931,3,N,1.0
NS1,29.0,77.0,42.0,31.0,48.0,77,1663.0,square1,f,0.3177,0,N,1.0
NS1,30.0,73.0,41.0,33.0,51.0,73,1736.0,square1,f,0.1777,0,N,1.0
NS1,31.0,71.0,44.0,35.0,48.0,71,1807.0,square1,f,0.2927,0,N,1.0
NS1,32.0,81.0,47.0,33.0,50.0,47,1854.0,square2,j,0.1812,1,N,1.0
NS1,33.0,75.0,50.0,27.0,42.0,75,1929.0,square1,f,0.1281,0,N,1.0
NS1,34.0,71.0,49.0,27.0,44.0,71,2000.0,square1,f,0.1814,0,N,1.0
NS1,35.0,69.0,47.0,23.0,47.0,69,2069.0,square1,f,0.1344,0,N,1.0
NS1,36.0,71.0,50.0,32.0,45.0,71,2140.0,square1,f,0.2595,0,N,1.0
NS1,37.0,66.0,48.0,33.0,52.0,66,2206.0,square1,f,0.1947,0,N,1.0
NS1,38.0,64.0,50.0,34.0,51.0,64,2270.0,square1,f,0.2164,0,N,1.0
NS1,39.0,65.0,49.0,25.0,47.0,65,2335.0,square1,f,0.1076,0,N,1.0
NS1,40.0,66.0,46.0,23.0,50.0,66,2401.0,square1,f,0.2169,0,N,1.0
NS1,41.0,68.0,45.0,22.0,50.0,68,2469.0,square1,f,0.1529,0,N,1.0
NS1,42.0,74.0,41.0,28.0,50.0,74,2543.0,square1,f,0.311,0,N,1.0
NS1,43.0,69.0,42.0,27.0,52.0,69,2612.0,square1,f,0.2112,0,N,1.0
NS1,44.0,71.0,38.0,32.0,49.0,71,2683.0,square1,f,0.1095,0,N,1.0
NS1,45.0,68.0,38.0,30.0,55.0,68,2751.0,square1,f,0.2273,0,N,1.0
NS1,46.0,66.0,39.0,30.0,56.0,66,2817.0,square1,f,0.0773,0,N,1.0
NS1,47.0,62.0,35.0,31.0,50.0,62,2879.0,square1,f,0.2628,0,N,1.0
NS1,48.0,68.0,31.0,32.0,49.0,68,2947.0,square1,f,0.1633,0,N,1.0
NS1,49.0,66.0,33.0,35.0,46.0,66,3013.0,square1,f,0.144,0,N,1.0
NS1,50.0,64.0,30.0,32.0,46.0,46,3059.0,square4,r,0.1009,3,N,1.0
NS1,51.0,66.0,35.0,39.0,43.0,39,3098.0,square3,i,0.0773,2,N,1.0
NS1,52.0,67.0,33.0,37.0,49.0,33,3131.0,square2,j,0.124,1,N,1.0
NS1,53.0,70.0,32.0,35.0,47.0,70,3201.0,square1,f,0.0953,0,N,1.0
NS1,54.0,62.0,40.0,28.0,43.0,62,3263.0,square1,f,0.1285,0,N,1.0
NS1,55.0,66.0,39.0,26.0,43.0,66,3329.0,square1,f,0.227,0,N,1.0
NS1,56.0,64.0,38.0,26.0,44.0,64,3393.0,square1,f,0.0264,0,N,1.0
NS1,57.0,63.0,41.0,24.0,48.0,63,3456.0,square1,f,0.124,0,N,1.0
NS1,58.0,67.0,49.0,24.0,48.0,67,3523.0,square1,f,0.1812,0,N,1.0
NS1,59.0,57.0,51.0,27.0,43.0,57,3580.0,square1,f,0.0941,0,N,1.0
NS1,60.0,56.0,51.0,31.0,42.0,56,3636.0,square1,f,0.2171,0,N,1.0
NS1,61.0,55.0,50.0,25.0,49.0,49,3685.0,square4,r,0.1261,3,N,1.0
NS1,62.0,55.0,51.0,27.0,50.0,27,3712.0,square3,i,0.6981,2,N,1.0
NS1,63.0,53.0,51.0,27.0,50.0,51,3763.0,square2,j,0.1608,1,N,1.0
NS1,64.0,53.0,56.0,27.0,50.0,53,3816.0,square1,f,0.1102,0,N,1.0
NS1,65.0,49.0,56.0,26.0,49.0,49,3865.0,square4,r,0.0805,3,N,1.0
NS1,66.0,47.0,61.0,29.0,50.0,47,3912.0,square1,f,0.0835,0,N,1.0
NS1,67.0,47.0,56.0,27.0,50.0,56,3968.0,square2,j,0.1432,1,N,1.0
NS1,68.0,47.0,64.0,29.0,48.0,48,4016.0,square4,r,0.1298,3,N,1.0
NS1,69.0,54.0,67.0,24.0,53.0,24,4040.0,square3,i,0.6771,2,N,1.0
NS1,70.0,44.0,70.0,21.0,48.0,70,4110.0,square2,j,0.1316,1,N,1.0
NS1,71.0,45.0,67.0,26.0,52.0,67,4177.0,square2,j,0.1474,1,N,1.0
NS1,72.0,44.0,64.0,22.0,49.0,64,4241.0,square2,j,0.0779,1,N,1.0
NS1,73.0,43.0,60.0,23.0,51.0,60,4301.0,square2,j,0.0273,1,N,1.0
NS1,74.0,47.0,59.0,26.0,57.0,59,4360.0,square2,j,0.1225,1,N,1.0
NS1,75.0,44.0,56.0,27.0,51.0,56,4416.0,square2,j,0.1134,1,N,1.0
NS1,76.0,34.0,55.0,21.0,52.0,55,4471.0,square2,j,0.1726,1,N,1.0
NS1,77.0,39.0,64.0,17.0,55.0,39,4510.0,square1,f,0.1774,0,N,1.0
NS1,78.0,38.0,64.0,25.0,52.0,64,4574.0,square2,j,0.0072,1,N,1.0
NS1,79.0,40.0,65.0,24.0,54.0,65,4639.0,square2,j,0.1944,1,N,1.0
NS1,80.0,44.0,66.0,21.0,53.0,66,4705.0,square2,j,0.7767,1,N,1.0
NS1,81.0,50.0,60.0,27.0,54.0,60,4765.0,square2,j,0.1271,1,N,1.0
NS1,82.0,43.0,62.0,20.0,57.0,57,4822.0,square4,r,0.0101,3,N,1.0
NS1,83.0,44.0,55.0,24.0,59.0,24,4846.0,square3,i,0.0047,2,N,1.0
NS1,84.0,41.0,51.0,28.0,61.0,61,4907.0,square4,r,0.1109,3,N,1.0
NS1,85.0,49.0,49.0,29.0,70.0,49,4956.0,square2,j,0.1132,1,N,1.0
NS1,86.0,47.0,44.0,26.0,66.0,66,5022.0,square4,r,0.0132,3,N,1.0
NS1,87.0,48.0,48.0,23.0,68.0,68,5090.0,square4,r,0.2082,3,N,1.0
NS1,88.0,46.0,51.0,20.0,70.0,70,5160.0,square4,r,0.1103,3,N,1.0
NS1,89.0,45.0,50.0,17.0,75.0,75,5235.0,square4,r,0.126,3,N,1.0
NS1,90.0,50.0,48.0,18.0,74.0,74,5309.0,square4,r,0.1091,3,N,1.0
NS1,91.0,46.0,53.0,17.0,67.0,67,5376.0,square4,r,0.0661,3,N,1.0
NS1,92.0,38.0,56.0,22.0,65.0,22,5398.0,square3,i,0.1272,2,N,1.0
NS1,93.0,38.0,53.0,22.0,66.0,38,5436.0,square1,f,0.0433,0,N,1.0
NS1,94.0,42.0,49.0,24.0,72.0,49,5485.0,square2,j,0.1139,1,N,1.0
NS1,95.0,44.0,48.0,25.0,70.0,70,5555.0,square4,r,0.1436,3,N,1.0
NS1,96.0,35.0,50.0,21.0,67.0,67,5622.0,square4,r,0.147,3,N,1.0
NS1,97.0,43.0,55.0,16.0,72.0,72,5694.0,square4,r,0.1277,3,N,1.0
NS1,98.0,46.0,50.0,21.0,73.0,73,5767.0,square4,r,0.1275,3,N,1.0
NS1,99.0,43.0,46.0,27.0,71.0,71,5838.0,square4,r,0.0947,3,N,1.0
NS12,0.0,80.0,24.0,40.0,79.0,80,80.0,square1,r,0.7255,0,N,12.0
NS12,1.0,78.0,28.0,44.0,78.0,28,108.0,square2,i,0.4766,1,N,12.0
NS12,2.0,77.0,28.0,37.0,82.0,37,145.0,square3,f,0.1598,2,N,12.0
NS12,3.0,76.0,33.0,39.0,82.0,82,227.0,square4,j,0.0943,3,N,12.0
NS12,4.0,79.0,37.0,34.0,78.0,79,306.0,square1,r,0.0466,0,N,12.0
NS12,5.0,83.0,33.0,28.0,81.0,81,387.0,square4,j,0.077,3,N,12.0
NS12,6.0,77.0,39.0,33.0,80.0,77,464.0,square1,r,0.0134,0,N,12.0
NS12,7.0,77.0,40.0,25.0,85.0,85,549.0,square4,j,0.0917,3,N,12.0
NS12,8.0,77.0,40.0,29.0,87.0,77,626.0,square1,r,0.1273,0,N,12.0
NS12,9.0,70.0,42.0,29.0,88.0,88,714.0,square4,j,0.7314,3,N,12.0
NS12,10.0,65.0,47.0,31.0,86.0,86,800.0,square4,j,0.1447,3,N,12.0
NS12,11.0,67.0,46.0,26.0,84.0,84,884.0,square4,j,0.3438,3,N,12.0
NS12,12.0,67.0,36.0,26.0,84.0,84,968.0,square4,j,0.0763,3,N,12.0
NS12,13.0,69.0,33.0,23.0,82.0,82,1050.0,square4,j,0.0296,3,N,12.0
NS12,14.0,66.0,35.0,20.0,81.0,81,1131.0,square4,j,0.1091,3,N,12.0
NS12,15.0,66.0,30.0,23.0,78.0,78,1209.0,square4,j,0.1177,3,N,12.0
NS12,16.0,69.0,28.0,17.0,74.0,74,1283.0,square4,j,0.0449,3,N,12.0
NS12,17.0,66.0,32.0,20.0,78.0,78,1361.0,square4,j,0.1139,3,N,12.0
NS12,18.0,60.0,33.0,26.0,76.0,76,1437.0,square4,j,0.1163,3,N,12.0
NS12,19.0,63.0,37.0,23.0,76.0,76,1513.0,square4,j,0.0502,3,N,12.0
NS12,20.0,59.0,36.0,24.0,78.0,78,1591.0,square4,j,0.2765,3,N,12.0
NS12,21.0,59.0,35.0,25.0,79.0,79,1670.0,square4,j,0.0611,3,N,12.0
NS12,22.0,61.0,37.0,26.0,88.0,88,1758.0,square4,j,0.1433,3,N,12.0
NS12,23.0,61.0,37.0,25.0,83.0,83,1841.0,square4,j,0.1429,3,N,12.0
NS12,24.0,61.0,39.0,26.0,85.0,85,1926.0,square4,j,0.0882,3,N,12.0
NS12,25.0,63.0,30.0,29.0,77.0,77,2003.0,square4,j,0.0553,3,N,12.0
NS12,26.0,58.0,39.0,29.0,83.0,83,2086.0,square4,j,0.0325,3,N,12.0
NS12,27.0,60.0,34.0,32.0,85.0,85,2171.0,square4,j,0.0449,3,N,12.0
NS12,28.0,63.0,32.0,35.0,77.0,77,2248.0,square4,j,0.054,3,N,12.0
NS12,29.0,61.0,35.0,23.0,79.0,79,2327.0,square4,j,0.1605,3,N,12.0
NS12,30.0,57.0,27.0,30.0,69.0,69,2396.0,square4,j,0.1271,3,N,12.0
NS12,31.0,64.0,29.0,26.0,69.0,64,2460.0,square1,r,1.1503,0,N,12.0
NS12,32.0,65.0,29.0,33.0,69.0,29,2489.0,square2,i,0.0654,1,N,12.0
NS12,33.0,68.0,29.0,33.0,73.0,33,2522.0,square3,f,0.0934,2,N,12.0
NS12,34.0,69.0,29.0,29.0,67.0,67,2589.0,square4,j,0.0958,3,N,12.0
NS12,35.0,66.0,32.0,30.0,61.0,66,2655.0,square1,r,0.0949,0,N,12.0
NS12,36.0,64.0,27.0,26.0,58.0,58,2713.0,square4,j,0.06,3,N,12.0
NS12,37.0,65.0,32.0,27.0,67.0,65,2778.0,square1,r,0.1227,0,N,12.0
NS12,38.0,63.0,32.0,30.0,64.0,64,2842.0,square4,j,0.0671,3,N,12.0
NS12,39.0,65.0,30.0,30.0,70.0,30,2872.0,square2,i,0.1649,1,N,12.0
NS12,40.0,71.0,37.0,32.0,69.0,32,2904.0,square3,f,0.1687,2,N,12.0
NS12,41.0,66.0,45.0,37.0,69.0,66,2970.0,square1,r,0.0784,0,N,12.0
NS12,42.0,75.0,42.0,35.0,65.0,65,3035.0,square4,j,0.1052,3,N,12.0
NS12,43.0,82.0,39.0,35.0,57.0,82,3117.0,square1,r,0.0442,0,N,12.0
NS12,44.0,81.0,34.0,34.0,61.0,61,3178.0,square4,j,0.0095,3,N,12.0
NS12,45.0,74.0,33.0,36.0,59.0,74,3252.0,square1,r,0.4429,0,N,12.0
NS12,46.0,77.0,32.0,40.0,57.0,77,3329.0,square1,r,0.1815,0,N,12.0
NS12,47.0,79.0,32.0,39.0,60.0,79,3408.0,square1,r,0.1578,0,N,12.0
NS12,48.0,80.0,28.0,34.0,62.0,80,3488.0,square1,r,0.8124,0,N,12.0
NS12,49.0,76.0,23.0,37.0,64.0,76,3564.0,square1,r,0.3313,0,N,12.0
NS12,50.0,75.0,25.0,37.0,65.0,75,3639.0,square1,r,0.2943,0,N,12.0
NS12,51.0,74.0,25.0,39.0,70.0,74,3713.0,square1,r,0.2628,0,N,12.0
NS12,52.0,79.0,26.0,40.0,73.0,73,3786.0,square4,j,0.1486,3,N,12.0
NS12,53.0,75.0,25.0,33.0,69.0,75,3861.0,square1,r,0.2836,0,N,12.0
NS12,54.0,79.0,25.0,38.0,68.0,68,3929.0,square4,j,0.3277,3,N,12.0
NS12,55.0,81.0,22.0,34.0,68.0,81,4010.0,square1,r,0.0922,0,N,12.0
NS12,56.0,72.0,29.0,39.0,69.0,72,4082.0,square1,r,0.247,0,N,12.0
NS12,57.0,72.0,28.0,38.0,73.0,73,4155.0,square4,j,0.4566,3,N,12.0
NS12,58.0,69.0,25.0,32.0,71.0,69,4224.0,square1,r,0.161,0,N,12.0
NS12,59.0,75.0,30.0,33.0,69.0,69,4293.0,square4,j,0.1103,3,N,12.0
NS12,60.0,68.0,28.0,39.0,68.0,68,4361.0,square1,r,0.1609,0,N,12.0
NS12,61.0,69.0,32.0,37.0,60.0,60,4421.0,square4,j,0.1272,3,N,12.0
NS12,62.0,63.0,37.0,39.0,55.0,63,4484.0,square1,r,0.3113,0,N,12.0
NS12,63.0,63.0,38.0,43.0,54.0,54,4538.0,square4,j,0.0778,3,N,12.0
NS12,64.0,60.0,30.0,35.0,55.0,60,4598.0,square1,r,0.0939,0,N,12.0
NS12,65.0,60.0,37.0,34.0,55.0,60,4658.0,square1,r,0.1819,0,N,12.0
NS12,66.0,61.0,40.0,35.0,51.0,40,4698.0,square2,i,0.0002,1,N,12.0
NS12,67.0,65.0,37.0,35.0,53.0,35,4733.0,square3,f,0.116,2,N,12.0
NS12,68.0,62.0,33.0,38.0,50.0,62,4795.0,square1,r,0.1285,0,N,12.0
NS12,69.0,56.0,41.0,29.0,54.0,56,4851.0,square1,r,0.2841,0,N,12.0
NS12,70.0,56.0,39.0,30.0,57.0,56,4907.0,square1,r,0.2767,0,N,12.0
NS12,71.0,61.0,40.0,33.0,64.0,64,4971.0,square4,j,0.1428,3,N,12.0
NS12,72.0,51.0,42.0,35.0,67.0,67,5038.0,square4,j,0.1442,3,N,12.0
NS12,73.0,56.0,39.0,39.0,67.0,56,5094.0,square1,r,0.0607,0,N,12.0
NS12,74.0,50.0,38.0,40.0,63.0,38,5132.0,square2,i,0.0439,1,N,12.0
NS12,75.0,52.0,37.0,41.0,67.0,41,5173.0,square3,f,0.0685,2,N,12.0
NS12,76.0,47.0,40.0,46.0,67.0,67,5240.0,square4,j,0.0616,3,N,12.0
NS12,77.0,45.0,35.0,47.0,67.0,67,5307.0,square4,j,0.1293,3,N,12.0
NS12,78.0,44.0,38.0,52.0,66.0,66,5373.0,square4,j,0.1141,3,N,12.0
NS12,79.0,41.0,38.0,52.0,64.0,64,5437.0,square4,j,0.0455,3,N,12.0
NS12,80.0,36.0,41.0,57.0,58.0,58,5495.0,square4,j,0.1116,3,N,12.0
NS12,81.0,36.0,42.0,66.0,63.0,36,5531.0,square1,r,0.2275,0,N,12.0
NS12,82.0,35.0,44.0,65.0,62.0,44,5575.0,square2,i,0.0953,1,N,12.0
NS12,83.0,37.0,42.0,70.0,65.0,70,5645.0,square3,f,0.0271,2,N,12.0
NS12,84.0,35.0,39.0,72.0,58.0,58,5703.0,square4,j,0.1938,3,N,12.0
NS12,85.0,30.0,40.0,62.0,55.0,62,5765.0,square3,f,0.0055,2,N,12.0
NS12,86.0,36.0,40.0,65.0,59.0,59,5824.0,square4,j,0.1432,3,N,12.0
NS12,87.0,31.0,41.0,67.0,57.0,67,5891.0,square3,f,0.5469,2,N,12.0
NS12,88.0,30.0,50.0,67.0,52.0,67,5958.0,square3,f,0.1425,2,N,12.0
NS12,89.0,28.0,41.0,69.0,54.0,69,6027.0,square3,f,0.1271,2,N,12.0
NS12,90.0,29.0,41.0,61.0,57.0,61,6088.0,square3,f,0.0065,2,N,12.0
NS12,91.0,30.0,36.0,59.0,54.0,54,6142.0,square4,j,0.0598,3,N,12.0
NS12,92.0,28.0,29.0,60.0,54.0,60,6202.0,square3,f,0.126,2,N,12.0
NS12,93.0,30.0,35.0,62.0,52.0,62,6264.0,square3,f,0.1104,2,N,12.0
NS12,94.0,30.0,36.0,60.0,56.0,60,6324.0,square3,f,0.0772,2,N,12.0
NS12,95.0,29.0,33.0,63.0,60.0,63,6387.0,square3,f,0.1433,2,N,12.0
NS12,96.0,29.0,30.0,59.0,59.0,59,6446.0,square3,f,0.0736,2,N,12.0
NS12,97.0,31.0,35.0,61.0,61.0,61,6507.0,square4,j,0.0778,3,N,12.0
NS12,98.0,31.0,40.0,67.0,58.0,58,6565.0,square4,j,0.1604,3,N,12.0
NS12,99.0,33.0,37.0,65.0,67.0,65,6630.0,square3,f,0.1824,2,N,12.0
