block,Trial,square1,square2,square3,square4,currPoints,totalPoints,square,choiceKey.keys,choiceKey.rt,armNum,blockType,blockNum
prac,0.0,100.0,0.0,0.0,0.0,100,100.0,square1,,,0,p,0.0
prac,1.0,100.0,0.0,0.0,0.0,99999,100.0,invalid,,,-1,p,0.0
prac,2.0,100.0,0.0,0.0,0.0,0,100.0,square2,,,1,p,0.0
prac,3.0,100.0,0.0,0.0,0.0,0,100.0,square3,,,2,p,0.0
prac,4.0,100.0,0.0,0.0,0.0,0,100.0,square4,,,3,p,0.0
prac,5.0,100.0,0.0,0.0,0.0,100,200.0,square1,,,0,p,0.0
prac,6.0,100.0,0.0,0.0,0.0,100,300.0,square1,,,0,p,0.0
prac,7.0,100.0,0.0,0.0,0.0,100,400.0,square1,,,0,p,0.0
prac,8.0,100.0,0.0,0.0,0.0,100,500.0,square1,,,0,p,0.0
prac,9.0,100.0,0.0,0.0,0.0,100,600.0,square1,,,0,p,0.0
V2,0.0,33.0,24.0,43.0,18.0,24,24.0,square2,r,0.3971,1,V,2.0
V2,1.0,33.0,29.0,42.0,21.0,21,45.0,square4,i,0.4549,3,V,2.0
V2,2.0,37.0,26.0,45.0,22.0,37,82.0,square1,f,0.1439,0,V,2.0
V2,3.0,39.0,26.0,41.0,20.0,41,123.0,square3,j,0.8481,2,V,2.0
V2,4.0,29.0,32.0,45.0,19.0,45,168.0,square3,j,0.2398,2,V,2.0
V2,5.0,33.0,28.0,44.0,17.0,44,212.0,square3,j,0.4932,2,V,2.0
V2,6.0,32.0,24.0,49.0,20.0,24,236.0,square2,r,0.0562,1,V,2.0
V2,7.0,32.0,21.0,42.0,13.0,32,268.0,square1,f,0.4699,0,V,2.0
V2,8.0,35.0,23.0,45.0,19.0,35,303.0,square1,f,0.4084,0,V,2.0
V2,9.0,33.0,28.0,46.0,17.0,33,336.0,square1,f,0.6055,0,V,2.0
V2,10.0,39.0,27.0,45.0,21.0,21,357.0,square4,i,0.8303,3,V,2.0
V2,11.0,30.0,23.0,44.0,22.0,44,401.0,square3,j,0.1146,2,V,2.0
V2,12.0,31.0,26.0,43.0,16.0,43,444.0,square3,j,0.4259,2,V,2.0
V2,13.0,35.0,26.0,43.0,22.0,43,487.0,square3,j,0.4608,2,V,2.0
V2,14.0,35.0,29.0,46.0,19.0,46,533.0,square3,j,0.3979,2,V,2.0
V2,15.0,36.0,22.0,44.0,20.0,44,577.0,square3,j,0.4763,2,V,2.0
V2,16.0,33.0,27.0,45.0,19.0,45,622.0,square3,j,0.4553,2,V,2.0
V2,17.0,35.0,25.0,41.0,15.0,41,663.0,square3,j,0.4553,2,V,2.0
V2,18.0,37.0,27.0,51.0,21.0,27,690.0,square2,r,0.3927,1,V,2.0
V2,19.0,33.0,25.0,43.0,18.0,33,723.0,square1,f,0.3386,0,V,2.0
V2,20.0,39.0,25.0,43.0,20.0,20,743.0,square4,i,0.4344,3,V,2.0
V2,21.0,27.0,32.0,43.0,24.0,43,786.0,square3,j,0.0397,2,V,2.0
V2,22.0,35.0,27.0,50.0,13.0,50,836.0,square3,j,0.2417,2,V,2.0
V2,23.0,36.0,25.0,39.0,17.0,39,875.0,square3,j,0.3666,2,V,2.0
V2,24.0,32.0,45.0,39.0,59.0,39,914.0,square3,j,0.8251,2,V,2.0
V2,25.0,26.0,43.0,37.0,55.0,37,951.0,square3,j,0.3549,2,V,2.0
V2,26.0,23.0,45.0,39.0,58.0,39,990.0,square3,j,0.3427,2,V,2.0
V2,27.0,30.0,44.0,40.0,56.0,30,1020.0,square1,f,0.5236,0,V,2.0
V2,28.0,34.0,48.0,41.0,54.0,41,1061.0,square3,j,0.3777,2,V,2.0
V2,29.0,29.0,42.0,35.0,54.0,42,1103.0,square2,r,0.314,1,V,2.0
V2,30.0,22.0,39.0,39.0,55.0,55,1158.0,square4,i,0.3777,3,V,2.0
V2,31.0,32.0,48.0,35.0,50.0,50,1208.0,square4,i,0.4974,3,V,2.0
V2,32.0,27.0,47.0,40.0,58.0,58,1266.0,square4,i,0.4652,3,V,2.0
V2,33.0,28.0,46.0,31.0,54.0,54,1320.0,square4,i,0.5262,3,V,2.0
V2,34.0,28.0,44.0,41.0,49.0,49,1369.0,square4,i,0.3903,3,V,2.0
V2,35.0,31.0,44.0,33.0,59.0,44,1413.0,square2,r,0.5743,1,V,2.0
V2,36.0,29.0,48.0,30.0,55.0,29,1442.0,square1,f,0.1097,0,V,2.0
V2,37.0,25.0,45.0,32.0,51.0,32,1474.0,square3,j,0.6593,2,V,2.0
V2,38.0,29.0,48.0,33.0,54.0,54,1528.0,square4,i,0.1754,3,V,2.0
V2,39.0,29.0,44.0,33.0,54.0,54,1582.0,square4,i,0.4446,3,V,2.0
V2,40.0,33.0,42.0,37.0,61.0,61,1643.0,square4,i,0.5373,3,V,2.0
V2,41.0,28.0,45.0,41.0,57.0,57,1700.0,square4,i,0.4059,3,V,2.0
V2,42.0,33.0,46.0,36.0,54.0,54,1754.0,square4,i,0.3651,3,V,2.0
V2,43.0,31.0,42.0,40.0,57.0,57,1811.0,square4,i,0.578,3,V,2.0
V2,44.0,27.0,45.0,38.0,56.0,56,1867.0,square4,i,0.559,3,V,2.0
V2,45.0,27.0,44.0,32.0,51.0,51,1918.0,square4,i,0.4223,3,V,2.0
V2,46.0,28.0,44.0,39.0,57.0,57,1975.0,square4,i,0.4281,3,V,2.0
V2,47.0,30.0,45.0,36.0,56.0,45,2020.0,square2,r,0.4729,1,V,2.0
V2,48.0,31.0,47.0,41.0,59.0,31,2051.0,square1,f,0.479,0,V,2.0
V2,49.0,32.0,45.0,33.0,57.0,33,2084.0,square3,j,0.425,2,V,2.0
V2,50.0,24.0,38.0,36.0,52.0,52,2136.0,square4,i,0.1956,3,V,2.0
V2,51.0,29.0,48.0,34.0,54.0,54,2190.0,square4,i,0.4712,3,V,2.0
V2,52.0,30.0,50.0,38.0,56.0,56,2246.0,square4,i,0.4282,3,V,2.0
V2,53.0,27.0,47.0,33.0,55.0,55,2301.0,square4,i,0.3816,3,V,2.0
V2,54.0,34.0,21.0,45.0,25.0,25,2326.0,square4,i,0.3971,3,V,2.0
V2,55.0,36.0,19.0,39.0,24.0,19,2345.0,square2,r,0.4603,1,V,2.0
V2,56.0,29.0,19.0,45.0,18.0,29,2374.0,square1,f,0.5076,0,V,2.0
V2,57.0,29.0,20.0,39.0,20.0,39,2413.0,square3,j,0.1093,2,V,2.0
V2,58.0,40.0,18.0,42.0,21.0,42,2455.0,square3,j,0.3853,2,V,2.0
V2,59.0,31.0,17.0,44.0,23.0,44,2499.0,square3,j,0.4254,2,V,2.0
V2,60.0,31.0,19.0,42.0,20.0,42,2541.0,square3,j,0.409,2,V,2.0
V2,61.0,34.0,16.0,41.0,25.0,41,2582.0,square3,j,0.2949,2,V,2.0
V2,62.0,28.0,12.0,41.0,22.0,41,2623.0,square3,j,0.6981,2,V,2.0
V2,63.0,32.0,14.0,45.0,26.0,45,2668.0,square3,j,0.4766,2,V,2.0
V2,64.0,36.0,21.0,41.0,25.0,41,2709.0,square3,j,0.4767,2,V,2.0
V2,65.0,32.0,13.0,39.0,24.0,39,2748.0,square3,j,0.3054,2,V,2.0
V2,66.0,35.0,15.0,42.0,20.0,42,2790.0,square3,j,0.2555,2,V,2.0
V2,67.0,30.0,23.0,47.0,27.0,23,2813.0,square2,r,0.2594,1,V,2.0
V2,68.0,31.0,17.0,43.0,24.0,43,2856.0,square3,j,0.1065,2,V,2.0
V2,69.0,33.0,20.0,41.0,20.0,41,2897.0,square3,j,0.5002,2,V,2.0
V2,70.0,37.0,17.0,43.0,21.0,43,2940.0,square3,j,0.4263,2,V,2.0
V2,71.0,45.0,31.0,36.0,58.0,45,2985.0,square1,f,0.6085,0,V,2.0
V2,72.0,47.0,31.0,31.0,54.0,47,3032.0,square1,f,0.6391,0,V,2.0
V2,73.0,50.0,30.0,33.0,55.0,50,3082.0,square1,f,0.3139,0,V,2.0
V2,74.0,45.0,31.0,36.0,51.0,45,3127.0,square1,f,0.7769,0,V,2.0
V2,75.0,47.0,28.0,38.0,54.0,47,3174.0,square1,f,0.2107,0,V,2.0
V2,76.0,52.0,33.0,35.0,60.0,52,3226.0,square1,f,0.592,0,V,2.0
V2,77.0,41.0,29.0,37.0,53.0,41,3267.0,square1,f,0.3928,0,V,2.0
V2,78.0,51.0,24.0,34.0,56.0,51,3318.0,square1,f,0.6228,0,V,2.0
V2,79.0,41.0,34.0,36.0,52.0,41,3359.0,square1,f,0.6058,0,V,2.0
V2,80.0,48.0,31.0,37.0,51.0,37,3396.0,square3,j,0.0085,2,V,2.0
V2,81.0,43.0,32.0,40.0,53.0,43,3439.0,square1,f,0.4421,0,V,2.0
V2,82.0,48.0,25.0,37.0,58.0,58,3497.0,square4,i,0.444,3,V,2.0
V2,83.0,45.0,32.0,36.0,61.0,61,3558.0,square4,i,0.2144,3,V,2.0
V2,84.0,47.0,29.0,39.0,60.0,60,3618.0,square4,i,0.643,3,V,2.0
V2,85.0,49.0,30.0,39.0,54.0,54,3672.0,square4,i,0.3973,3,V,2.0
V2,86.0,46.0,28.0,33.0,51.0,51,3723.0,square4,i,0.4718,3,V,2.0
V2,87.0,45.0,24.0,37.0,55.0,24,3747.0,square2,r,0.1612,1,V,2.0
V2,88.0,48.0,29.0,42.0,54.0,48,3795.0,square1,f,0.5599,0,V,2.0
V2,89.0,43.0,31.0,38.0,52.0,38,3833.0,square3,j,0.3847,2,V,2.0
V2,90.0,51.0,33.0,36.0,56.0,36,3869.0,square3,j,0.2441,2,V,2.0
V2,91.0,49.0,32.0,37.0,59.0,37,3906.0,square3,j,0.263,2,V,2.0
V2,92.0,47.0,29.0,37.0,56.0,37,3943.0,square3,j,0.165,2,V,2.0
V2,93.0,45.0,27.0,35.0,56.0,35,3978.0,square3,j,0.1596,2,V,2.0
V2,94.0,45.0,31.0,31.0,49.0,49,4027.0,square4,i,0.148,3,V,2.0
V2,95.0,47.0,33.0,36.0,52.0,52,4079.0,square4,i,0.1436,3,V,2.0
V2,96.0,44.0,28.0,37.0,59.0,59,4138.0,square4,i,0.2424,3,V,2.0
V2,97.0,48.0,28.0,33.0,55.0,55,4193.0,square4,i,0.4762,3,V,2.0
V2,98.0,49.0,29.0,39.0,60.0,60,4253.0,square4,i,0.4145,3,V,2.0
V2,99.0,44.0,30.0,36.0,50.0,50,4303.0,square4,i,0.745,3,V,2.0
V1,0.0,46.0,61.0,52.0,71.0,71,71.0,square4,r,1.8848,3,V,1.0
V1,1.0,45.0,63.0,54.0,78.0,78,149.0,square4,r,0.8287,3,V,1.0
V1,2.0,51.0,58.0,59.0,77.0,77,226.0,square4,r,0.4427,3,V,1.0
V1,3.0,53.0,65.0,56.0,75.0,75,301.0,square4,r,0.5266,3,V,1.0
V1,4.0,49.0,68.0,53.0,72.0,72,373.0,square4,r,0.4764,3,V,1.0
V1,5.0,47.0,70.0,59.0,76.0,70,443.0,square2,f,0.9556,1,V,1.0
V1,6.0,55.0,63.0,54.0,76.0,76,519.0,square4,r,0.1968,3,V,1.0
V1,7.0,47.0,67.0,55.0,74.0,74,593.0,square4,r,0.4925,3,V,1.0
V1,8.0,47.0,65.0,46.0,76.0,76,669.0,square4,r,0.4616,3,V,1.0
V1,9.0,46.0,68.0,59.0,78.0,46,715.0,square1,j,0.2435,0,V,1.0
V1,10.0,58.0,67.0,58.0,79.0,58,773.0,square3,i,0.0784,2,V,1.0
V1,11.0,44.0,61.0,54.0,72.0,72,845.0,square4,r,0.0766,3,V,1.0
V1,12.0,44.0,65.0,56.0,75.0,75,920.0,square4,r,0.4814,3,V,1.0
V1,13.0,47.0,63.0,53.0,73.0,73,993.0,square4,r,0.6944,3,V,1.0
V1,14.0,49.0,66.0,56.0,75.0,75,1068.0,square4,r,0.5263,3,V,1.0
V1,15.0,49.0,66.0,52.0,79.0,79,1147.0,square4,r,0.2595,3,V,1.0
V1,16.0,51.0,61.0,48.0,72.0,72,1219.0,square4,r,0.3927,3,V,1.0
V1,17.0,46.0,61.0,59.0,71.0,61,1280.0,square2,f,0.4406,1,V,1.0
V1,18.0,45.0,61.0,53.0,72.0,72,1352.0,square4,r,0.0893,3,V,1.0
V1,19.0,49.0,63.0,54.0,76.0,76,1428.0,square4,r,0.6052,3,V,1.0
V1,20.0,46.0,66.0,52.0,72.0,72,1500.0,square4,r,0.9617,3,V,1.0
V1,21.0,50.0,65.0,51.0,73.0,73,1573.0,square4,r,0.0076,3,V,1.0
V1,22.0,56.0,62.0,56.0,77.0,77,1650.0,square4,r,0.71,3,V,1.0
V1,23.0,45.0,67.0,54.0,83.0,83,1733.0,square4,r,0.1944,3,V,1.0
V1,24.0,46.0,69.0,57.0,71.0,71,1804.0,square4,r,0.3662,3,V,1.0
V1,25.0,41.0,65.0,55.0,76.0,76,1880.0,square4,r,0.5048,3,V,1.0
V1,26.0,51.0,60.0,55.0,74.0,74,1954.0,square4,r,0.0577,3,V,1.0
V1,27.0,52.0,63.0,56.0,73.0,56,2010.0,square3,i,0.2159,2,V,1.0
V1,28.0,50.0,68.0,50.0,76.0,50,2060.0,square1,j,0.4318,0,V,1.0
V1,29.0,51.0,60.0,54.0,74.0,60,2120.0,square2,f,0.5098,1,V,1.0
V1,30.0,35.0,67.0,57.0,40.0,40,2160.0,square4,r,0.0336,3,V,1.0
V1,31.0,38.0,60.0,52.0,35.0,60,2220.0,square2,f,0.1068,1,V,1.0
V1,32.0,37.0,67.0,52.0,41.0,67,2287.0,square2,f,0.0624,1,V,1.0
V1,33.0,37.0,62.0,53.0,42.0,62,2349.0,square2,f,0.3755,1,V,1.0
V1,34.0,35.0,58.0,54.0,43.0,35,2384.0,square1,j,0.2932,0,V,1.0
V1,35.0,40.0,60.0,50.0,44.0,50,2434.0,square3,i,0.1781,2,V,1.0
V1,36.0,39.0,66.0,50.0,39.0,39,2473.0,square4,r,0.3427,3,V,1.0
V1,37.0,32.0,59.0,54.0,38.0,59,2532.0,square2,f,0.0398,1,V,1.0
V1,38.0,32.0,64.0,50.0,39.0,64,2596.0,square2,f,0.4944,1,V,1.0
V1,39.0,37.0,60.0,45.0,40.0,60,2656.0,square2,f,0.3637,1,V,1.0
V1,40.0,35.0,61.0,54.0,43.0,61,2717.0,square2,f,0.1927,1,V,1.0
V1,41.0,33.0,62.0,49.0,42.0,62,2779.0,square2,f,0.4596,1,V,1.0
V1,42.0,31.0,70.0,52.0,42.0,70,2849.0,square2,f,0.5264,1,V,1.0
V1,43.0,37.0,59.0,48.0,41.0,59,2908.0,square2,f,0.6604,1,V,1.0
V1,44.0,39.0,63.0,53.0,44.0,63,2971.0,square2,f,0.0007,1,V,1.0
V1,45.0,37.0,62.0,48.0,41.0,62,3033.0,square2,f,0.456,1,V,1.0
V1,46.0,34.0,65.0,52.0,39.0,65,3098.0,square2,f,0.5768,1,V,1.0
V1,47.0,42.0,59.0,52.0,43.0,43,3141.0,square4,r,0.1597,3,V,1.0
V1,48.0,39.0,62.0,50.0,38.0,50,3191.0,square3,i,0.2764,2,V,1.0
V1,49.0,33.0,63.0,49.0,40.0,33,3224.0,square1,j,0.247,0,V,1.0
V1,50.0,38.0,66.0,54.0,37.0,66,3290.0,square2,f,0.3102,1,V,1.0
V1,51.0,33.0,66.0,50.0,37.0,66,3356.0,square2,f,0.1589,1,V,1.0
V1,52.0,41.0,65.0,55.0,44.0,65,3421.0,square2,f,0.4542,1,V,1.0
V1,53.0,75.0,50.0,46.0,60.0,50,3471.0,square2,f,0.4426,1,V,1.0
V1,54.0,74.0,53.0,45.0,61.0,53,3524.0,square2,f,0.4187,1,V,1.0
V1,55.0,74.0,54.0,43.0,65.0,43,3567.0,square3,i,0.2766,2,V,1.0
V1,56.0,73.0,54.0,44.0,56.0,73,3640.0,square1,j,0.1454,0,V,1.0
V1,57.0,67.0,58.0,52.0,63.0,67,3707.0,square1,j,0.5791,0,V,1.0
V1,58.0,72.0,51.0,43.0,62.0,72,3779.0,square1,j,0.5724,0,V,1.0
V1,59.0,68.0,47.0,49.0,56.0,68,3847.0,square1,j,0.4962,0,V,1.0
V1,60.0,72.0,55.0,46.0,65.0,72,3919.0,square1,j,0.3611,0,V,1.0
V1,61.0,76.0,50.0,46.0,62.0,76,3995.0,square1,j,0.0007,0,V,1.0
V1,62.0,77.0,58.0,46.0,66.0,77,4072.0,square1,j,0.0007,0,V,1.0
V1,63.0,72.0,53.0,48.0,66.0,72,4144.0,square1,j,0.5186,0,V,1.0
V1,64.0,70.0,49.0,49.0,60.0,70,4214.0,square1,j,0.4298,0,V,1.0
V1,65.0,68.0,49.0,46.0,66.0,68,4282.0,square1,j,0.4394,0,V,1.0
V1,66.0,77.0,52.0,41.0,64.0,77,4359.0,square1,j,0.1775,0,V,1.0
V1,67.0,74.0,56.0,42.0,69.0,74,4433.0,square1,j,0.4294,0,V,1.0
V1,68.0,77.0,50.0,46.0,68.0,77,4510.0,square1,j,0.5098,0,V,1.0
V1,69.0,76.0,48.0,45.0,63.0,76,4586.0,square1,j,0.4776,0,V,1.0
V1,70.0,71.0,53.0,50.0,65.0,71,4657.0,square1,j,0.5632,0,V,1.0
V1,71.0,70.0,56.0,44.0,59.0,70,4727.0,square1,j,0.4766,0,V,1.0
V1,72.0,74.0,54.0,55.0,61.0,74,4801.0,square1,j,0.3773,0,V,1.0
V1,73.0,73.0,53.0,47.0,61.0,73,4874.0,square1,j,0.4231,0,V,1.0
V1,74.0,71.0,53.0,51.0,65.0,71,4945.0,square1,j,0.2597,0,V,1.0
V1,75.0,72.0,51.0,48.0,64.0,72,5017.0,square1,j,0.0841,0,V,1.0
V1,76.0,72.0,53.0,49.0,62.0,72,5089.0,square1,j,0.2927,0,V,1.0
V1,77.0,62.0,76.0,64.0,86.0,62,5151.0,square1,j,0.377,0,V,1.0
V1,78.0,61.0,74.0,63.0,87.0,63,5214.0,square3,i,0.146,2,V,1.0
V1,79.0,56.0,78.0,67.0,89.0,89,5303.0,square4,r,0.0433,3,V,1.0
V1,80.0,59.0,75.0,63.0,84.0,84,5387.0,square4,r,0.2057,3,V,1.0
V1,81.0,63.0,74.0,68.0,82.0,82,5469.0,square4,r,0.744,3,V,1.0
V1,82.0,59.0,75.0,67.0,80.0,80,5549.0,square4,r,0.4443,3,V,1.0
V1,83.0,58.0,77.0,63.0,82.0,82,5631.0,square4,r,0.5897,3,V,1.0
V1,84.0,57.0,76.0,64.0,87.0,87,5718.0,square4,r,0.4967,3,V,1.0
V1,85.0,61.0,73.0,66.0,83.0,83,5801.0,square4,r,0.4267,3,V,1.0
V1,86.0,60.0,71.0,66.0,85.0,85,5886.0,square4,r,0.5748,3,V,1.0
V1,87.0,61.0,80.0,73.0,84.0,84,5970.0,square4,r,0.4725,3,V,1.0
V1,88.0,67.0,77.0,67.0,85.0,85,6055.0,square4,r,0.4082,3,V,1.0
V1,89.0,60.0,79.0,63.0,86.0,86,6141.0,square4,r,0.3146,3,V,1.0
V1,90.0,60.0,74.0,66.0,88.0,88,6229.0,square4,r,0.327,3,V,1.0
V1,91.0,57.0,81.0,61.0,79.0,79,6308.0,square4,r,0.5096,3,V,1.0
V1,92.0,61.0,78.0,61.0,84.0,84,6392.0,square4,r,0.1135,3,V,1.0
V1,93.0,64.0,72.0,69.0,83.0,83,6475.0,square4,r,0.7103,3,V,1.0
V1,94.0,64.0,73.0,68.0,83.0,83,6558.0,square4,r,0.5486,3,V,1.0
V1,95.0,61.0,69.0,68.0,87.0,87,6645.0,square4,r,0.0595,3,V,1.0
V1,96.0,55.0,77.0,65.0,88.0,88,6733.0,square4,r,0.0007,3,V,1.0
V1,97.0,61.0,75.0,63.0,82.0,82,6815.0,square4,r,0.7169,3,V,1.0
V1,98.0,59.0,71.0,66.0,82.0,82,6897.0,square4,r,0.0251,3,V,1.0
V1,99.0,61.0,69.0,67.0,84.0,84,6981.0,square4,r,0.8268,3,V,1.0
V10,0.0,28.0,21.0,37.0,46.0,99999,0.0,invalid,,,-1,V,10.0
V10,1.0,26.0,19.0,41.0,49.0,19,19.0,square2,j,0.3742,1,V,10.0
V10,2.0,29.0,20.0,43.0,48.0,48,67.0,square4,i,0.3858,3,V,10.0
V10,3.0,27.0,27.0,37.0,44.0,37,104.0,square3,f,0.8935,2,V,10.0
V10,4.0,28.0,16.0,36.0,47.0,28,132.0,square1,r,0.4388,0,V,10.0
V10,5.0,33.0,25.0,42.0,54.0,25,157.0,square2,j,0.3093,1,V,10.0
V10,6.0,28.0,19.0,35.0,45.0,45,202.0,square4,i,0.3094,3,V,10.0
V10,7.0,30.0,24.0,35.0,49.0,49,251.0,square4,i,0.561,3,V,10.0
V10,8.0,37.0,29.0,41.0,47.0,47,298.0,square4,i,0.1264,3,V,10.0
V10,9.0,28.0,21.0,41.0,48.0,48,346.0,square4,i,0.2598,3,V,10.0
V10,10.0,27.0,22.0,39.0,42.0,42,388.0,square4,i,0.0006,3,V,10.0
V10,11.0,32.0,16.0,41.0,48.0,48,436.0,square4,i,0.1877,3,V,10.0
V10,12.0,34.0,15.0,33.0,49.0,49,485.0,square4,i,0.489,3,V,10.0
V10,13.0,36.0,19.0,41.0,45.0,99999,485.0,invalid,,,-1,V,10.0
V10,14.0,28.0,23.0,35.0,53.0,53,538.0,square4,i,0.7787,3,V,10.0
V10,15.0,26.0,28.0,40.0,50.0,50,588.0,square4,i,0.5349,3,V,10.0
V10,16.0,30.0,25.0,42.0,47.0,47,635.0,square4,i,0.077,3,V,10.0
V10,17.0,31.0,19.0,38.0,50.0,50,685.0,square4,i,0.1856,3,V,10.0
V10,18.0,34.0,21.0,35.0,48.0,48,733.0,square4,i,0.288,3,V,10.0
V10,19.0,31.0,24.0,39.0,46.0,46,779.0,square4,i,0.2056,3,V,10.0
V10,20.0,28.0,22.0,42.0,47.0,47,826.0,square4,i,0.1487,3,V,10.0
V10,21.0,24.0,20.0,41.0,47.0,47,873.0,square4,i,0.4108,3,V,10.0
V10,22.0,32.0,22.0,34.0,44.0,44,917.0,square4,i,0.0006,3,V,10.0
V10,23.0,29.0,23.0,37.0,47.0,47,964.0,square4,i,0.31,3,V,10.0
V10,24.0,25.0,25.0,38.0,46.0,46,1010.0,square4,i,0.3759,3,V,10.0
V10,25.0,30.0,24.0,41.0,45.0,45,1055.0,square4,i,0.1265,3,V,10.0
V10,26.0,32.0,17.0,38.0,49.0,49,1104.0,square4,i,0.2623,3,V,10.0
V10,27.0,34.0,21.0,38.0,47.0,47,1151.0,square4,i,0.1183,3,V,10.0
V10,28.0,29.0,21.0,37.0,45.0,45,1196.0,square4,i,0.2098,3,V,10.0
V10,29.0,30.0,20.0,31.0,47.0,47,1243.0,square4,i,0.0559,3,V,10.0
V10,30.0,28.0,21.0,35.0,44.0,44,1287.0,square4,i,0.3429,3,V,10.0
V10,31.0,36.0,25.0,14.0,8.0,8,1295.0,square4,i,0.1776,3,V,10.0
V10,32.0,38.0,27.0,19.0,11.0,27,1322.0,square2,j,0.6106,1,V,10.0
V10,33.0,39.0,21.0,20.0,13.0,13,1335.0,square4,i,0.3432,3,V,10.0
V10,34.0,34.0,24.0,20.0,10.0,34,1369.0,square1,r,0.2942,0,V,10.0
V10,35.0,44.0,29.0,17.0,11.0,17,1386.0,square3,f,0.81,2,V,10.0
V10,36.0,33.0,30.0,17.0,9.0,33,1419.0,square1,r,0.5932,0,V,10.0
V10,37.0,31.0,27.0,12.0,6.0,27,1446.0,square2,j,0.4598,1,V,10.0
V10,38.0,34.0,29.0,15.0,10.0,34,1480.0,square1,r,0.4149,0,V,10.0
V10,39.0,35.0,21.0,19.0,5.0,35,1515.0,square1,r,0.0759,0,V,10.0
V10,40.0,32.0,26.0,18.0,6.0,32,1547.0,square1,r,0.1303,0,V,10.0
V10,41.0,34.0,32.0,13.0,9.0,34,1581.0,square1,r,0.161,0,V,10.0
V10,42.0,35.0,30.0,16.0,8.0,8,1589.0,square4,i,0.0482,3,V,10.0
V10,43.0,38.0,32.0,16.0,8.0,38,1627.0,square1,r,0.1433,0,V,10.0
V10,44.0,34.0,20.0,18.0,3.0,34,1661.0,square1,r,0.344,0,V,10.0
V10,45.0,38.0,22.0,23.0,9.0,38,1699.0,square1,r,0.343,0,V,10.0
V10,46.0,36.0,28.0,16.0,10.0,36,1735.0,square1,r,0.161,0,V,10.0
V10,47.0,36.0,27.0,13.0,8.0,36,1771.0,square1,r,0.5782,0,V,10.0
V10,48.0,35.0,27.0,14.0,12.0,35,1806.0,square1,r,0.0751,0,V,10.0
V10,49.0,33.0,28.0,16.0,10.0,33,1839.0,square1,r,0.3397,0,V,10.0
V10,50.0,31.0,29.0,19.0,8.0,19,1858.0,square3,f,0.017,2,V,10.0
V10,51.0,32.0,21.0,20.0,12.0,21,1879.0,square2,j,0.1761,1,V,10.0
V10,52.0,29.0,25.0,21.0,10.0,10,1889.0,square4,i,0.081,3,V,10.0
V10,53.0,39.0,29.0,23.0,2.0,39,1928.0,square1,r,0.0036,0,V,10.0
V10,54.0,33.0,28.0,19.0,7.0,33,1961.0,square1,r,0.1295,0,V,10.0
V10,55.0,34.0,24.0,15.0,8.0,34,1995.0,square1,r,0.0105,0,V,10.0
V10,56.0,35.0,20.0,21.0,9.0,35,2030.0,square1,r,0.1441,0,V,10.0
V10,57.0,33.0,27.0,19.0,7.0,33,2063.0,square1,r,0.3438,0,V,10.0
V10,58.0,38.0,24.0,16.0,7.0,38,2101.0,square1,r,0.0117,0,V,10.0
V10,59.0,34.0,29.0,15.0,5.0,34,2135.0,square1,r,0.0034,0,V,10.0
V10,60.0,34.0,22.0,19.0,9.0,34,2169.0,square1,r,0.444,0,V,10.0
V10,61.0,39.0,31.0,20.0,10.0,39,2208.0,square1,r,0.4604,0,V,10.0
V10,62.0,35.0,24.0,18.0,6.0,35,2243.0,square1,r,0.0557,0,V,10.0
V10,63.0,35.0,26.0,18.0,9.0,35,2278.0,square1,r,0.199,0,V,10.0
V10,64.0,31.0,55.0,23.0,23.0,31,2309.0,square1,r,0.2235,0,V,10.0
V10,65.0,35.0,50.0,22.0,27.0,35,2344.0,square1,r,0.1795,0,V,10.0
V10,66.0,35.0,53.0,25.0,29.0,35,2379.0,square1,r,0.2817,0,V,10.0
V10,67.0,38.0,44.0,17.0,29.0,44,2423.0,square2,j,0.3071,1,V,10.0
V10,68.0,36.0,48.0,22.0,27.0,48,2471.0,square2,j,0.0006,1,V,10.0
V10,69.0,41.0,53.0,17.0,28.0,53,2524.0,square2,j,0.1775,1,V,10.0
V10,70.0,40.0,48.0,23.0,28.0,48,2572.0,square2,j,0.0659,1,V,10.0
V10,71.0,39.0,43.0,24.0,20.0,43,2615.0,square2,j,0.1101,1,V,10.0
V10,72.0,36.0,49.0,19.0,25.0,25,2640.0,square4,i,0.1718,3,V,10.0
V10,73.0,39.0,49.0,23.0,32.0,23,2663.0,square3,f,0.0585,2,V,10.0
V10,74.0,36.0,44.0,17.0,29.0,44,2707.0,square2,j,0.2148,1,V,10.0
V10,75.0,37.0,46.0,20.0,30.0,46,2753.0,square2,j,0.2144,1,V,10.0
V10,76.0,38.0,47.0,23.0,30.0,38,2791.0,square1,r,0.0005,0,V,10.0
V10,77.0,36.0,49.0,22.0,32.0,49,2840.0,square2,j,0.0006,1,V,10.0
V10,78.0,41.0,44.0,19.0,27.0,44,2884.0,square2,j,0.1761,1,V,10.0
V10,79.0,41.0,48.0,22.0,27.0,48,2932.0,square2,j,0.0005,1,V,10.0
V10,80.0,34.0,44.0,26.0,29.0,44,2976.0,square2,j,0.3945,1,V,10.0
V10,81.0,38.0,47.0,18.0,29.0,47,3023.0,square2,j,0.4991,1,V,10.0
V10,82.0,43.0,43.0,23.0,28.0,43,3066.0,square2,j,0.06,1,V,10.0
V10,83.0,34.0,51.0,23.0,26.0,51,3117.0,square2,j,0.2266,1,V,10.0
V10,84.0,36.0,46.0,18.0,25.0,46,3163.0,square2,j,0.3059,1,V,10.0
V10,85.0,39.0,46.0,25.0,26.0,46,3209.0,square2,j,0.0179,1,V,10.0
V10,86.0,39.0,50.0,27.0,27.0,50,3259.0,square2,j,0.1784,1,V,10.0
V10,87.0,38.0,46.0,20.0,30.0,46,3305.0,square2,j,0.2429,1,V,10.0
V10,88.0,37.0,49.0,22.0,28.0,49,3354.0,square2,j,0.2891,1,V,10.0
V10,89.0,34.0,51.0,25.0,26.0,51,3405.0,square2,j,0.2077,1,V,10.0
V10,90.0,41.0,49.0,22.0,29.0,49,3454.0,square2,j,0.3079,1,V,10.0
V10,91.0,37.0,45.0,26.0,32.0,45,3499.0,square2,j,0.1744,1,V,10.0
V10,92.0,42.0,42.0,27.0,28.0,42,3541.0,square2,j,0.0175,1,V,10.0
V10,93.0,41.0,48.0,19.0,36.0,48,3589.0,square2,j,0.1895,1,V,10.0
V10,94.0,43.0,49.0,23.0,31.0,49,3638.0,square2,j,0.3167,1,V,10.0
V10,95.0,39.0,46.0,18.0,27.0,46,3684.0,square2,j,0.209,1,V,10.0
V10,96.0,37.0,48.0,24.0,27.0,48,3732.0,square2,j,0.3388,1,V,10.0
V10,97.0,42.0,50.0,23.0,31.0,50,3782.0,square2,j,0.3269,1,V,10.0
V10,98.0,33.0,47.0,25.0,32.0,47,3829.0,square2,j,0.5979,1,V,10.0
V10,99.0,39.0,48.0,23.0,32.0,48,3877.0,square2,j,1.055,1,V,10.0
NS2,0.0,44.0,66.0,42.0,38.0,66,66.0,square2,r,1.4969,1,N,2.0
NS2,1.0,44.0,66.0,47.0,43.0,47,113.0,square3,i,0.3268,2,N,2.0
NS2,2.0,42.0,62.0,53.0,43.0,43,156.0,square4,j,0.1393,3,N,2.0
NS2,3.0,46.0,58.0,48.0,46.0,46,202.0,square1,f,1.762,0,N,2.0
NS2,4.0,47.0,61.0,51.0,42.0,61,263.0,square2,r,0.3798,1,N,2.0
NS2,5.0,51.0,58.0,50.0,50.0,58,321.0,square2,r,0.0007,1,N,2.0
NS2,6.0,52.0,58.0,43.0,48.0,58,379.0,square2,r,0.0636,1,N,2.0
NS2,7.0,50.0,52.0,43.0,50.0,52,431.0,square2,r,0.0992,1,N,2.0
NS2,8.0,54.0,58.0,41.0,46.0,58,489.0,square2,r,0.4149,1,N,2.0
NS2,9.0,52.0,59.0,42.0,46.0,59,548.0,square2,r,0.0229,1,N,2.0
NS2,10.0,50.0,52.0,37.0,48.0,52,600.0,square2,r,0.4464,1,N,2.0
NS2,11.0,45.0,56.0,38.0,43.0,56,656.0,square2,r,0.6785,1,N,2.0
NS2,12.0,50.0,56.0,37.0,48.0,56,712.0,square2,r,0.0562,1,N,2.0
NS2,13.0,47.0,63.0,36.0,49.0,63,775.0,square2,r,0.0007,1,N,2.0
NS2,14.0,51.0,56.0,39.0,49.0,56,831.0,square2,r,0.0553,1,N,2.0
NS2,15.0,46.0,64.0,39.0,50.0,64,895.0,square2,r,0.2021,1,N,2.0
NS2,16.0,51.0,61.0,37.0,47.0,47,942.0,square4,j,0.0755,3,N,2.0
NS2,17.0,59.0,68.0,46.0,53.0,59,1001.0,square1,f,0.5333,0,N,2.0
NS2,18.0,53.0,65.0,42.0,49.0,42,1043.0,square3,i,0.7123,2,N,2.0
NS2,19.0,52.0,67.0,47.0,49.0,67,1110.0,square2,r,0.0597,1,N,2.0
NS2,20.0,56.0,64.0,45.0,48.0,64,1174.0,square2,r,0.2635,1,N,2.0
NS2,21.0,57.0,73.0,46.0,44.0,73,1247.0,square2,r,0.0086,1,N,2.0
NS2,22.0,54.0,76.0,36.0,47.0,76,1323.0,square2,r,0.1112,1,N,2.0
NS2,23.0,55.0,77.0,35.0,42.0,77,1400.0,square2,r,0.1391,1,N,2.0
NS2,24.0,53.0,68.0,35.0,46.0,68,1468.0,square2,r,0.0333,1,N,2.0
NS2,25.0,55.0,73.0,29.0,45.0,73,1541.0,square2,r,0.0007,1,N,2.0
NS2,26.0,52.0,69.0,30.0,49.0,69,1610.0,square2,r,0.0431,1,N,2.0
NS2,27.0,52.0,62.0,33.0,52.0,62,1672.0,square2,r,0.3448,1,N,2.0
NS2,28.0,58.0,62.0,33.0,47.0,62,1734.0,square2,r,0.1573,1,N,2.0
NS2,29.0,56.0,65.0,38.0,46.0,65,1799.0,square2,r,0.0719,1,N,2.0
NS2,30.0,56.0,66.0,37.0,50.0,66,1865.0,square2,r,0.1053,1,N,2.0
NS2,31.0,50.0,64.0,35.0,45.0,64,1929.0,square2,r,0.4954,1,N,2.0
NS2,32.0,56.0,62.0,38.0,45.0,62,1991.0,square2,r,0.1111,1,N,2.0
NS2,33.0,59.0,58.0,34.0,48.0,58,2049.0,square2,r,0.6253,1,N,2.0
NS2,34.0,55.0,59.0,36.0,48.0,59,2108.0,square2,r,0.0929,1,N,2.0
NS2,35.0,54.0,57.0,33.0,48.0,57,2165.0,square2,r,0.1097,1,N,2.0
NS2,36.0,53.0,58.0,34.0,51.0,58,2223.0,square2,r,0.4269,1,N,2.0
NS2,37.0,46.0,53.0,32.0,55.0,53,2276.0,square2,r,0.3726,1,N,2.0
NS2,38.0,46.0,59.0,37.0,49.0,59,2335.0,square2,r,1.4642,1,N,2.0
NS2,39.0,53.0,59.0,36.0,48.0,59,2394.0,square2,r,0.044,1,N,2.0
NS2,40.0,46.0,60.0,37.0,42.0,60,2454.0,square2,r,0.0014,1,N,2.0
NS2,41.0,51.0,57.0,42.0,41.0,57,2511.0,square2,r,0.235,1,N,2.0
NS2,42.0,49.0,53.0,46.0,41.0,53,2564.0,square2,r,0.0558,1,N,2.0
NS2,43.0,49.0,57.0,43.0,39.0,57,2621.0,square2,r,0.1134,1,N,2.0
NS2,44.0,48.0,55.0,48.0,37.0,55,2676.0,square2,r,0.1486,1,N,2.0
NS2,45.0,49.0,52.0,34.0,36.0,52,2728.0,square2,r,0.0434,1,N,2.0
NS2,46.0,50.0,46.0,39.0,34.0,46,2774.0,square2,r,0.1892,1,N,2.0
NS2,47.0,55.0,48.0,39.0,26.0,48,2822.0,square2,r,0.9899,1,N,2.0
NS2,48.0,55.0,42.0,41.0,31.0,42,2864.0,square2,r,0.0766,1,N,2.0
NS2,49.0,55.0,41.0,36.0,36.0,41,2905.0,square2,r,0.0183,1,N,2.0
NS2,50.0,50.0,43.0,43.0,36.0,50,2955.0,square1,f,0.6596,0,N,2.0
NS2,51.0,49.0,40.0,44.0,32.0,32,2987.0,square4,j,0.3566,3,N,2.0
NS2,52.0,54.0,45.0,40.0,32.0,40,3027.0,square3,i,0.0457,2,N,2.0
NS2,53.0,55.0,44.0,42.0,38.0,55,3082.0,square1,f,0.7941,0,N,2.0
NS2,54.0,57.0,44.0,42.0,37.0,57,3139.0,square1,f,0.1483,0,N,2.0
NS2,55.0,56.0,47.0,35.0,29.0,56,3195.0,square1,f,0.7764,0,N,2.0
NS2,56.0,56.0,45.0,31.0,36.0,56,3251.0,square1,f,0.1727,0,N,2.0
NS2,57.0,48.0,43.0,33.0,36.0,48,3299.0,square1,f,0.1777,0,N,2.0
NS2,58.0,46.0,44.0,30.0,40.0,46,3345.0,square1,f,0.0378,0,N,2.0
NS2,59.0,45.0,36.0,33.0,37.0,45,3390.0,square1,f,0.0588,0,N,2.0
NS2,60.0,45.0,37.0,32.0,38.0,45,3435.0,square1,f,0.1129,0,N,2.0
NS2,61.0,47.0,37.0,31.0,37.0,37,3472.0,square2,r,0.7375,1,N,2.0
NS2,62.0,46.0,36.0,28.0,34.0,46,3518.0,square1,f,0.1066,0,N,2.0
NS2,63.0,53.0,36.0,26.0,43.0,43,3561.0,square4,j,0.6768,3,N,2.0
NS2,64.0,53.0,37.0,24.0,45.0,24,3585.0,square3,i,0.2768,2,N,2.0
NS2,65.0,49.0,34.0,27.0,49.0,49,3634.0,square4,j,0.3645,3,N,2.0
NS2,66.0,50.0,30.0,26.0,57.0,50,3684.0,square1,f,0.2854,0,N,2.0
NS2,67.0,49.0,28.0,32.0,55.0,49,3733.0,square1,f,0.1252,0,N,2.0
NS2,68.0,53.0,23.0,35.0,55.0,53,3786.0,square1,f,0.2459,0,N,2.0
NS2,69.0,49.0,29.0,33.0,51.0,49,3835.0,square1,f,0.3926,0,N,2.0
NS2,70.0,54.0,27.0,30.0,60.0,54,3889.0,square1,f,0.0397,0,N,2.0
NS2,71.0,57.0,28.0,31.0,59.0,57,3946.0,square1,f,0.0428,0,N,2.0
NS2,72.0,55.0,25.0,29.0,61.0,55,4001.0,square1,f,0.0006,0,N,2.0
NS2,73.0,63.0,29.0,31.0,56.0,63,4064.0,square1,f,0.2431,0,N,2.0
NS2,74.0,59.0,34.0,34.0,58.0,59,4123.0,square1,f,0.1088,0,N,2.0
NS2,75.0,58.0,37.0,31.0,53.0,58,4181.0,square1,f,0.0018,0,N,2.0
NS2,76.0,62.0,41.0,25.0,53.0,62,4243.0,square1,f,0.123,0,N,2.0
NS2,77.0,60.0,37.0,30.0,52.0,60,4303.0,square1,f,0.2882,0,N,2.0
NS2,78.0,63.0,37.0,37.0,50.0,63,4366.0,square1,f,0.204,0,N,2.0
NS2,79.0,66.0,44.0,32.0,47.0,66,4432.0,square1,f,0.0775,0,N,2.0
NS2,80.0,65.0,41.0,30.0,45.0,65,4497.0,square1,f,0.4068,0,N,2.0
NS2,81.0,60.0,37.0,26.0,49.0,60,4557.0,square1,f,0.0595,0,N,2.0
NS2,82.0,68.0,38.0,28.0,46.0,68,4625.0,square1,f,0.2264,0,N,2.0
NS2,83.0,63.0,42.0,30.0,49.0,63,4688.0,square1,f,0.2461,0,N,2.0
NS2,84.0,71.0,41.0,37.0,51.0,71,4759.0,square1,f,0.1269,0,N,2.0
NS2,85.0,63.0,47.0,29.0,40.0,63,4822.0,square1,f,0.1759,0,N,2.0
NS2,86.0,67.0,42.0,36.0,44.0,67,4889.0,square1,f,0.2473,0,N,2.0
NS2,87.0,62.0,45.0,31.0,41.0,62,4951.0,square1,f,0.1141,0,N,2.0
NS2,88.0,63.0,39.0,32.0,44.0,63,5014.0,square1,f,0.0772,0,N,2.0
NS2,89.0,66.0,39.0,37.0,39.0,66,5080.0,square1,f,0.0453,0,N,2.0
NS2,90.0,53.0,38.0,35.0,40.0,53,5133.0,square1,f,0.2454,0,N,2.0
NS2,91.0,57.0,39.0,38.0,43.0,57,5190.0,square1,f,0.3795,0,N,2.0
NS2,92.0,53.0,36.0,40.0,47.0,53,5243.0,square1,f,0.1768,0,N,2.0
NS2,93.0,47.0,39.0,43.0,38.0,47,5290.0,square1,f,0.1495,0,N,2.0
NS2,94.0,45.0,33.0,46.0,40.0,45,5335.0,square1,f,0.0815,0,N,2.0
NS2,95.0,49.0,38.0,53.0,36.0,49,5384.0,square1,f,0.1268,0,N,2.0
NS2,96.0,50.0,39.0,46.0,34.0,50,5434.0,square1,f,0.1054,0,N,2.0
NS2,97.0,57.0,37.0,44.0,41.0,57,5491.0,square1,f,0.4545,0,N,2.0
NS2,98.0,55.0,43.0,39.0,43.0,55,5546.0,square1,f,0.2767,0,N,2.0
NS2,99.0,56.0,46.0,41.0,41.0,56,5602.0,square1,f,0.0788,0,N,2.0
NS5,0.0,26.0,19.0,54.0,39.0,26,26.0,square1,r,1.3171,0,N,5.0
NS5,1.0,21.0,17.0,51.0,42.0,17,43.0,square2,i,1.0258,1,N,5.0
NS5,2.0,19.0,17.0,52.0,42.0,52,95.0,square3,j,0.0008,2,N,5.0
NS5,3.0,21.0,16.0,55.0,38.0,38,133.0,square4,f,0.4977,3,N,5.0
NS5,4.0,14.0,26.0,52.0,44.0,14,147.0,square1,r,0.0602,0,N,5.0
NS5,5.0,18.0,25.0,47.0,42.0,47,194.0,square3,j,0.4773,2,N,5.0
NS5,6.0,23.0,21.0,54.0,38.0,54,248.0,square3,j,0.2425,2,N,5.0
NS5,7.0,18.0,27.0,56.0,39.0,56,304.0,square3,j,0.1718,2,N,5.0
NS5,8.0,18.0,28.0,57.0,40.0,57,361.0,square3,j,0.2423,2,N,5.0
NS5,9.0,15.0,29.0,53.0,38.0,53,414.0,square3,j,0.0985,2,N,5.0
NS5,10.0,13.0,26.0,56.0,41.0,56,470.0,square3,j,0.193,2,N,5.0
NS5,11.0,11.0,25.0,58.0,41.0,58,528.0,square3,j,0.1957,2,N,5.0
NS5,12.0,9.0,22.0,53.0,40.0,53,581.0,square3,j,0.126,2,N,5.0
NS5,13.0,11.0,21.0,55.0,39.0,55,636.0,square3,j,0.5896,2,N,5.0
NS5,14.0,12.0,17.0,49.0,38.0,49,685.0,square3,j,0.2754,2,N,5.0
NS5,15.0,18.0,19.0,52.0,37.0,52,737.0,square3,j,0.0684,2,N,5.0
NS5,16.0,18.0,20.0,49.0,40.0,49,786.0,square3,j,0.0927,2,N,5.0
NS5,17.0,16.0,16.0,50.0,41.0,50,836.0,square3,j,0.1431,2,N,5.0
NS5,18.0,16.0,18.0,51.0,43.0,51,887.0,square3,j,0.0891,2,N,5.0
NS5,19.0,14.0,20.0,44.0,45.0,44,931.0,square3,j,0.0278,2,N,5.0
NS5,20.0,19.0,21.0,42.0,48.0,42,973.0,square3,j,0.0485,2,N,5.0
NS5,21.0,19.0,22.0,43.0,47.0,43,1016.0,square3,j,0.0729,2,N,5.0
NS5,22.0,17.0,15.0,43.0,47.0,43,1059.0,square3,j,0.0833,2,N,5.0
NS5,23.0,16.0,28.0,37.0,47.0,37,1096.0,square3,j,0.0551,2,N,5.0
NS5,24.0,20.0,21.0,38.0,49.0,38,1134.0,square3,j,0.1678,2,N,5.0
NS5,25.0,22.0,17.0,34.0,46.0,34,1168.0,square3,j,0.1271,2,N,5.0
NS5,26.0,30.0,16.0,32.0,50.0,32,1200.0,square3,j,0.3612,2,N,5.0
NS5,27.0,21.0,20.0,35.0,42.0,35,1235.0,square3,j,0.2431,2,N,5.0
NS5,28.0,20.0,23.0,39.0,42.0,39,1274.0,square3,j,0.4766,2,N,5.0
NS5,29.0,21.0,18.0,39.0,41.0,39,1313.0,square3,j,0.0727,2,N,5.0
NS5,30.0,20.0,11.0,41.0,44.0,41,1354.0,square3,j,0.0006,2,N,5.0
NS5,31.0,20.0,9.0,36.0,43.0,36,1390.0,square3,j,0.0432,2,N,5.0
NS5,32.0,21.0,13.0,35.0,46.0,35,1425.0,square3,j,0.3818,2,N,5.0
NS5,33.0,16.0,22.0,32.0,44.0,32,1457.0,square3,j,0.0006,2,N,5.0
NS5,34.0,20.0,20.0,33.0,37.0,20,1477.0,square2,i,0.4927,1,N,5.0
NS5,35.0,19.0,27.0,34.0,40.0,40,1517.0,square4,f,1.3925,3,N,5.0
NS5,36.0,20.0,23.0,31.0,37.0,20,1537.0,square1,r,0.4104,0,N,5.0
NS5,37.0,15.0,28.0,41.0,40.0,40,1577.0,square4,f,1.0125,3,N,5.0
NS5,38.0,18.0,21.0,45.0,37.0,45,1622.0,square3,j,0.5123,2,N,5.0
NS5,39.0,23.0,22.0,40.0,34.0,40,1662.0,square3,j,0.2202,2,N,5.0
NS5,40.0,22.0,25.0,44.0,26.0,44,1706.0,square3,j,0.3282,2,N,5.0
NS5,41.0,28.0,25.0,39.0,29.0,39,1745.0,square3,j,0.0761,2,N,5.0
NS5,42.0,27.0,27.0,42.0,35.0,42,1787.0,square3,j,0.2751,2,N,5.0
NS5,43.0,25.0,25.0,49.0,38.0,49,1836.0,square3,j,0.0019,2,N,5.0
NS5,44.0,24.0,26.0,42.0,30.0,42,1878.0,square3,j,0.2243,2,N,5.0
NS5,45.0,33.0,22.0,43.0,37.0,43,1921.0,square3,j,0.2096,2,N,5.0
NS5,46.0,32.0,24.0,50.0,38.0,50,1971.0,square3,j,0.1891,2,N,5.0
NS5,47.0,39.0,25.0,52.0,29.0,52,2023.0,square3,j,0.206,2,N,5.0
NS5,48.0,42.0,22.0,46.0,33.0,46,2069.0,square3,j,0.1108,2,N,5.0
NS5,49.0,40.0,26.0,40.0,33.0,40,2109.0,square3,j,0.3581,2,N,5.0
NS5,50.0,34.0,19.0,47.0,33.0,47,2156.0,square3,j,0.2261,2,N,5.0
NS5,51.0,29.0,25.0,45.0,29.0,45,2201.0,square3,j,0.1738,2,N,5.0
NS5,52.0,29.0,24.0,48.0,35.0,48,2249.0,square3,j,0.0595,2,N,5.0
NS5,53.0,24.0,25.0,45.0,40.0,45,2294.0,square3,j,0.1375,2,N,5.0
NS5,54.0,26.0,25.0,51.0,36.0,51,2345.0,square3,j,0.06,2,N,5.0
NS5,55.0,25.0,28.0,56.0,34.0,56,2401.0,square3,j,0.1134,2,N,5.0
NS5,56.0,23.0,27.0,54.0,36.0,54,2455.0,square3,j,0.0224,2,N,5.0
NS5,57.0,19.0,25.0,51.0,31.0,51,2506.0,square3,j,0.1276,2,N,5.0
NS5,58.0,20.0,30.0,53.0,29.0,53,2559.0,square3,j,0.0005,2,N,5.0
NS5,59.0,17.0,30.0,52.0,28.0,52,2611.0,square3,j,0.0005,2,N,5.0
NS5,60.0,15.0,30.0,55.0,30.0,55,2666.0,square3,j,0.0931,2,N,5.0
NS5,61.0,22.0,29.0,54.0,30.0,54,2720.0,square3,j,0.0301,2,N,5.0
NS5,62.0,18.0,31.0,55.0,32.0,55,2775.0,square3,j,0.0547,2,N,5.0
NS5,63.0,19.0,31.0,51.0,37.0,51,2826.0,square3,j,0.2763,2,N,5.0
NS5,64.0,20.0,30.0,45.0,35.0,45,2871.0,square3,j,0.2259,2,N,5.0
NS5,65.0,24.0,21.0,55.0,38.0,55,2926.0,square3,j,0.2094,2,N,5.0
NS5,66.0,22.0,29.0,58.0,36.0,58,2984.0,square3,j,0.1593,2,N,5.0
NS5,67.0,22.0,26.0,51.0,36.0,51,3035.0,square3,j,0.1104,2,N,5.0
NS5,68.0,20.0,28.0,52.0,36.0,52,3087.0,square3,j,0.1562,2,N,5.0
NS5,69.0,18.0,27.0,52.0,40.0,52,3139.0,square3,j,0.0005,2,N,5.0
NS5,70.0,22.0,34.0,55.0,39.0,55,3194.0,square3,j,0.1597,2,N,5.0
NS5,71.0,27.0,37.0,59.0,41.0,59,3253.0,square3,j,0.0005,2,N,5.0
NS5,72.0,27.0,37.0,57.0,40.0,99999,3253.0,invalid,,,-1,N,5.0
NS5,73.0,35.0,36.0,55.0,38.0,55,3308.0,square3,j,0.5453,2,N,5.0
NS5,74.0,27.0,36.0,52.0,36.0,52,3360.0,square3,j,0.2769,2,N,5.0
NS5,75.0,31.0,40.0,53.0,38.0,53,3413.0,square3,j,0.0105,2,N,5.0
NS5,76.0,33.0,41.0,59.0,35.0,59,3472.0,square3,j,0.0761,2,N,5.0
NS5,77.0,33.0,42.0,56.0,38.0,56,3528.0,square3,j,0.0718,2,N,5.0
NS5,78.0,30.0,42.0,53.0,37.0,53,3581.0,square3,j,0.2052,2,N,5.0
NS5,79.0,27.0,49.0,51.0,44.0,51,3632.0,square3,j,0.0464,2,N,5.0
NS5,80.0,31.0,49.0,45.0,44.0,45,3677.0,square3,j,0.2972,2,N,5.0
NS5,81.0,33.0,51.0,48.0,43.0,48,3725.0,square3,j,0.3102,2,N,5.0
NS5,82.0,31.0,54.0,41.0,43.0,41,3766.0,square3,j,0.1762,2,N,5.0
NS5,83.0,25.0,57.0,42.0,40.0,42,3808.0,square3,j,0.1719,2,N,5.0
NS5,84.0,36.0,57.0,45.0,38.0,45,3853.0,square3,j,0.042,2,N,5.0
NS5,85.0,36.0,62.0,44.0,42.0,44,3897.0,square3,j,0.1273,2,N,5.0
NS5,86.0,33.0,55.0,48.0,43.0,48,3945.0,square3,j,0.0006,2,N,5.0
NS5,87.0,37.0,53.0,44.0,46.0,44,3989.0,square3,j,0.0006,2,N,5.0
NS5,88.0,36.0,54.0,41.0,48.0,41,4030.0,square3,j,0.0599,2,N,5.0
NS5,89.0,39.0,62.0,47.0,47.0,47,4077.0,square3,j,0.192,2,N,5.0
NS5,90.0,37.0,62.0,51.0,48.0,48,4125.0,square4,f,0.2925,3,N,5.0
NS5,91.0,40.0,64.0,48.0,53.0,40,4165.0,square1,r,0.4235,0,N,5.0
NS5,92.0,42.0,64.0,51.0,55.0,64,4229.0,square2,i,0.059,1,N,5.0
NS5,93.0,39.0,63.0,51.0,53.0,63,4292.0,square2,i,0.2891,1,N,5.0
NS5,94.0,41.0,60.0,50.0,58.0,60,4352.0,square2,i,0.0614,1,N,5.0
NS5,95.0,36.0,55.0,53.0,52.0,55,4407.0,square2,i,0.1596,1,N,5.0
NS5,96.0,36.0,56.0,55.0,56.0,56,4463.0,square2,i,0.0925,1,N,5.0
NS5,97.0,28.0,52.0,57.0,53.0,52,4515.0,square2,i,0.1093,1,N,5.0
NS5,98.0,29.0,53.0,53.0,43.0,53,4568.0,square2,i,0.0253,1,N,5.0
NS5,99.0,25.0,55.0,53.0,46.0,55,4623.0,square2,i,0.1095,1,N,5.0
NS12,0.0,80.0,24.0,40.0,79.0,80,80.0,square1,i,1.572,0,N,12.0
NS12,1.0,78.0,28.0,44.0,78.0,78,158.0,square1,i,0.2388,0,N,12.0
NS12,2.0,77.0,28.0,37.0,82.0,77,235.0,square1,i,0.2761,0,N,12.0
NS12,3.0,76.0,33.0,39.0,82.0,76,311.0,square1,i,0.0764,0,N,12.0
NS12,4.0,79.0,37.0,34.0,78.0,79,390.0,square1,i,0.1394,0,N,12.0
NS12,5.0,83.0,33.0,28.0,81.0,83,473.0,square1,i,0.1932,0,N,12.0
NS12,6.0,77.0,39.0,33.0,80.0,77,550.0,square1,i,0.2731,0,N,12.0
NS12,7.0,77.0,40.0,25.0,85.0,77,627.0,square1,i,0.0008,0,N,12.0
NS12,8.0,77.0,40.0,29.0,87.0,77,704.0,square1,i,0.2433,0,N,12.0
NS12,9.0,70.0,42.0,29.0,88.0,70,774.0,square1,i,0.0005,0,N,12.0
NS12,10.0,65.0,47.0,31.0,86.0,65,839.0,square1,i,0.0733,0,N,12.0
NS12,11.0,67.0,46.0,26.0,84.0,67,906.0,square1,i,0.2176,0,N,12.0
NS12,12.0,67.0,36.0,26.0,84.0,67,973.0,square1,i,0.2886,0,N,12.0
NS12,13.0,69.0,33.0,23.0,82.0,69,1042.0,square1,i,0.1614,0,N,12.0
NS12,14.0,66.0,35.0,20.0,81.0,66,1108.0,square1,i,0.1947,0,N,12.0
NS12,15.0,66.0,30.0,23.0,78.0,66,1174.0,square1,i,0.0392,0,N,12.0
NS12,16.0,69.0,28.0,17.0,74.0,69,1243.0,square1,i,0.0714,0,N,12.0
NS12,17.0,66.0,32.0,20.0,78.0,66,1309.0,square1,i,0.1224,0,N,12.0
NS12,18.0,60.0,33.0,26.0,76.0,60,1369.0,square1,i,0.1103,0,N,12.0
NS12,19.0,63.0,37.0,23.0,76.0,63,1432.0,square1,i,0.373,0,N,12.0
NS12,20.0,59.0,36.0,24.0,78.0,59,1491.0,square1,i,0.3208,0,N,12.0
NS12,21.0,59.0,35.0,25.0,79.0,35,1526.0,square2,j,0.3243,1,N,12.0
NS12,22.0,61.0,37.0,26.0,88.0,88,1614.0,square4,r,0.3406,3,N,12.0
NS12,23.0,61.0,37.0,25.0,83.0,25,1639.0,square3,f,0.4097,2,N,12.0
NS12,24.0,61.0,39.0,26.0,85.0,85,1724.0,square4,r,0.1496,3,N,12.0
NS12,25.0,63.0,30.0,29.0,77.0,77,1801.0,square4,r,0.235,3,N,12.0
NS12,26.0,58.0,39.0,29.0,83.0,83,1884.0,square4,r,0.2263,3,N,12.0
NS12,27.0,60.0,34.0,32.0,85.0,85,1969.0,square4,r,0.089,3,N,12.0
NS12,28.0,63.0,32.0,35.0,77.0,77,2046.0,square4,r,0.1902,3,N,12.0
NS12,29.0,61.0,35.0,23.0,79.0,79,2125.0,square4,r,0.0943,3,N,12.0
NS12,30.0,57.0,27.0,30.0,69.0,69,2194.0,square4,r,0.2109,3,N,12.0
NS12,31.0,64.0,29.0,26.0,69.0,69,2263.0,square4,r,0.2257,3,N,12.0
NS12,32.0,65.0,29.0,33.0,69.0,69,2332.0,square4,r,0.1388,3,N,12.0
NS12,33.0,68.0,29.0,33.0,73.0,73,2405.0,square4,r,0.0559,3,N,12.0
NS12,34.0,69.0,29.0,29.0,67.0,67,2472.0,square4,r,0.0599,3,N,12.0
NS12,35.0,66.0,32.0,30.0,61.0,61,2533.0,square4,r,0.0017,3,N,12.0
NS12,36.0,64.0,27.0,26.0,58.0,58,2591.0,square4,r,0.0638,3,N,12.0
NS12,37.0,65.0,32.0,27.0,67.0,67,2658.0,square4,r,0.1709,3,N,12.0
NS12,38.0,63.0,32.0,30.0,64.0,64,2722.0,square4,r,0.1132,3,N,12.0
NS12,39.0,65.0,30.0,30.0,70.0,70,2792.0,square4,r,0.143,3,N,12.0
NS12,40.0,71.0,37.0,32.0,69.0,69,2861.0,square4,r,0.1778,3,N,12.0
NS12,41.0,66.0,45.0,37.0,69.0,69,2930.0,square4,r,0.1286,3,N,12.0
NS12,42.0,75.0,42.0,35.0,65.0,65,2995.0,square4,r,0.1483,3,N,12.0
NS12,43.0,82.0,39.0,35.0,57.0,35,3030.0,square3,f,0.4121,2,N,12.0
NS12,44.0,81.0,34.0,34.0,61.0,81,3111.0,square1,i,0.6098,0,N,12.0
NS12,45.0,74.0,33.0,36.0,59.0,33,3144.0,square2,j,0.4274,1,N,12.0
NS12,46.0,77.0,32.0,40.0,57.0,77,3221.0,square1,i,0.1983,0,N,12.0
NS12,47.0,79.0,32.0,39.0,60.0,79,3300.0,square1,i,0.1896,0,N,12.0
NS12,48.0,80.0,28.0,34.0,62.0,80,3380.0,square1,i,0.1436,0,N,12.0
NS12,49.0,76.0,23.0,37.0,64.0,76,3456.0,square1,i,0.1261,0,N,12.0
NS12,50.0,75.0,25.0,37.0,65.0,75,3531.0,square1,i,0.1097,0,N,12.0
NS12,51.0,74.0,25.0,39.0,70.0,74,3605.0,square1,i,0.1933,0,N,12.0
NS12,52.0,79.0,26.0,40.0,73.0,79,3684.0,square1,i,0.1598,0,N,12.0
NS12,53.0,75.0,25.0,33.0,69.0,75,3759.0,square1,i,0.1399,0,N,12.0
NS12,54.0,79.0,25.0,38.0,68.0,79,3838.0,square1,i,0.2484,0,N,12.0
NS12,55.0,81.0,22.0,34.0,68.0,81,3919.0,square1,i,0.0773,0,N,12.0
NS12,56.0,72.0,29.0,39.0,69.0,72,3991.0,square1,i,0.0099,0,N,12.0
NS12,57.0,72.0,28.0,38.0,73.0,72,4063.0,square1,i,0.0032,0,N,12.0
NS12,58.0,69.0,25.0,32.0,71.0,69,4132.0,square1,i,0.0395,0,N,12.0
NS12,59.0,75.0,30.0,33.0,69.0,75,4207.0,square1,i,0.1092,0,N,12.0
NS12,60.0,68.0,28.0,39.0,68.0,68,4275.0,square1,i,0.3257,0,N,12.0
NS12,61.0,69.0,32.0,37.0,60.0,69,4344.0,square1,i,0.123,0,N,12.0
NS12,62.0,63.0,37.0,39.0,55.0,63,4407.0,square1,i,0.0734,0,N,12.0
NS12,63.0,63.0,38.0,43.0,54.0,63,4470.0,square1,i,0.0263,0,N,12.0
NS12,64.0,60.0,30.0,35.0,55.0,60,4530.0,square1,i,0.0962,0,N,12.0
NS12,65.0,60.0,37.0,34.0,55.0,37,4567.0,square2,j,0.0636,1,N,12.0
NS12,66.0,61.0,40.0,35.0,51.0,51,4618.0,square4,r,0.2279,3,N,12.0
NS12,67.0,65.0,37.0,35.0,53.0,35,4653.0,square3,f,0.0006,2,N,12.0
NS12,68.0,62.0,33.0,38.0,50.0,62,4715.0,square1,i,0.0423,0,N,12.0
NS12,69.0,56.0,41.0,29.0,54.0,56,4771.0,square1,i,0.0599,0,N,12.0
NS12,70.0,56.0,39.0,30.0,57.0,56,4827.0,square1,i,0.2019,0,N,12.0
NS12,71.0,61.0,40.0,33.0,64.0,61,4888.0,square1,i,0.2765,0,N,12.0
NS12,72.0,51.0,42.0,35.0,67.0,51,4939.0,square1,i,0.0914,0,N,12.0
NS12,73.0,56.0,39.0,39.0,67.0,56,4995.0,square1,i,0.034,0,N,12.0
NS12,74.0,50.0,38.0,40.0,63.0,50,5045.0,square1,i,0.2222,0,N,12.0
NS12,75.0,52.0,37.0,41.0,67.0,37,5082.0,square2,j,0.4218,1,N,12.0
NS12,76.0,47.0,40.0,46.0,67.0,67,5149.0,square4,r,1.1464,3,N,12.0
NS12,77.0,45.0,35.0,47.0,67.0,47,5196.0,square3,f,0.4403,2,N,12.0
NS12,78.0,44.0,38.0,52.0,66.0,66,5262.0,square4,r,0.0805,3,N,12.0
NS12,79.0,41.0,38.0,52.0,64.0,41,5303.0,square1,i,0.1262,0,N,12.0
NS12,80.0,36.0,41.0,57.0,58.0,58,5361.0,square4,r,0.3562,3,N,12.0
NS12,81.0,36.0,42.0,66.0,63.0,63,5424.0,square4,r,0.1223,3,N,12.0
NS12,82.0,35.0,44.0,65.0,62.0,62,5486.0,square4,r,0.1374,3,N,12.0
NS12,83.0,37.0,42.0,70.0,65.0,65,5551.0,square4,r,0.1053,3,N,12.0
NS12,84.0,35.0,39.0,72.0,58.0,58,5609.0,square4,r,0.094,3,N,12.0
NS12,85.0,30.0,40.0,62.0,55.0,55,5664.0,square4,r,0.2441,3,N,12.0
NS12,86.0,36.0,40.0,65.0,59.0,59,5723.0,square4,r,0.0316,3,N,12.0
NS12,87.0,31.0,41.0,67.0,57.0,57,5780.0,square4,r,0.2049,3,N,12.0
NS12,88.0,30.0,50.0,67.0,52.0,52,5832.0,square4,r,0.0337,3,N,12.0
NS12,89.0,28.0,41.0,69.0,54.0,54,5886.0,square4,r,0.1612,3,N,12.0
NS12,90.0,29.0,41.0,61.0,57.0,57,5943.0,square4,r,0.004,3,N,12.0
NS12,91.0,30.0,36.0,59.0,54.0,54,5997.0,square4,r,0.0006,3,N,12.0
NS12,92.0,28.0,29.0,60.0,54.0,54,6051.0,square4,r,0.1477,3,N,12.0
NS12,93.0,30.0,35.0,62.0,52.0,52,6103.0,square4,r,0.0577,3,N,12.0
NS12,94.0,30.0,36.0,60.0,56.0,56,6159.0,square4,r,0.0917,3,N,12.0
NS12,95.0,29.0,33.0,63.0,60.0,60,6219.0,square4,r,0.0912,3,N,12.0
NS12,96.0,29.0,30.0,59.0,59.0,59,6278.0,square4,r,0.3265,3,N,12.0
NS12,97.0,31.0,35.0,61.0,61.0,61,6339.0,square4,r,0.3896,3,N,12.0
NS12,98.0,31.0,40.0,67.0,58.0,58,6397.0,square4,r,0.0598,3,N,12.0
NS12,99.0,33.0,37.0,65.0,67.0,67,6464.0,square4,r,0.021,3,N,12.0
