block,Trial,square1,square2,square3,square4,currPoints,totalPoints,square,choiceKey.keys,choiceKey.rt,armNum,blockType,blockNum
prac,0.0,100.0,0.0,0.0,0.0,99999,0.0,invalid,,,-1,p,0.0
prac,1.0,100.0,0.0,0.0,0.0,99999,0.0,invalid,,,-1,p,0.0
prac,2.0,100.0,0.0,0.0,0.0,100,100.0,square1,,,0,p,0.0
prac,3.0,100.0,0.0,0.0,0.0,100,200.0,square1,,,0,p,0.0
prac,4.0,100.0,0.0,0.0,0.0,100,300.0,square1,,,0,p,0.0
prac,5.0,100.0,0.0,0.0,0.0,100,400.0,square1,,,0,p,0.0
prac,6.0,100.0,0.0,0.0,0.0,100,500.0,square1,,,0,p,0.0
prac,7.0,100.0,0.0,0.0,0.0,0,500.0,square4,,,3,p,0.0
prac,8.0,100.0,0.0,0.0,0.0,0,500.0,square3,,,2,p,0.0
prac,9.0,100.0,0.0,0.0,0.0,0,500.0,square2,,,1,p,0.0
V2,0.0,33.0,24.0,43.0,18.0,43,43.0,square3,j,0.997,2,V,2.0
V2,1.0,33.0,29.0,42.0,21.0,33,76.0,square1,i,0.512,0,V,2.0
V2,2.0,37.0,26.0,45.0,22.0,26,102.0,square2,r,0.3186,1,V,2.0
V2,3.0,39.0,26.0,41.0,20.0,20,122.0,square4,f,0.2685,3,V,2.0
V2,4.0,29.0,32.0,45.0,19.0,45,167.0,square3,j,0.0506,2,V,2.0
V2,5.0,33.0,28.0,44.0,17.0,44,211.0,square3,j,0.2561,2,V,2.0
V2,6.0,32.0,24.0,49.0,20.0,49,260.0,square3,j,0.2261,2,V,2.0
V2,7.0,32.0,21.0,42.0,13.0,42,302.0,square3,j,0.2843,2,V,2.0
V2,8.0,35.0,23.0,45.0,19.0,35,337.0,square1,i,0.2252,0,V,2.0
V2,9.0,33.0,28.0,46.0,17.0,28,365.0,square2,r,0.2555,1,V,2.0
V2,10.0,39.0,27.0,45.0,21.0,45,410.0,square3,j,0.1341,2,V,2.0
V2,11.0,30.0,23.0,44.0,22.0,22,432.0,square4,f,0.2389,3,V,2.0
V2,12.0,31.0,26.0,43.0,16.0,43,475.0,square3,j,0.1513,2,V,2.0
V2,13.0,35.0,26.0,43.0,22.0,35,510.0,square1,i,0.0093,0,V,2.0
V2,14.0,35.0,29.0,46.0,19.0,46,556.0,square3,j,0.0603,2,V,2.0
V2,15.0,36.0,22.0,44.0,20.0,44,600.0,square3,j,0.1393,2,V,2.0
V2,16.0,33.0,27.0,45.0,19.0,27,627.0,square2,r,0.1092,1,V,2.0
V2,17.0,35.0,25.0,41.0,15.0,35,662.0,square1,i,0.5844,0,V,2.0
V2,18.0,37.0,27.0,51.0,21.0,51,713.0,square3,j,0.2287,2,V,2.0
V2,19.0,33.0,25.0,43.0,18.0,43,756.0,square3,j,0.3341,2,V,2.0
V2,20.0,39.0,25.0,43.0,20.0,43,799.0,square3,j,0.1926,2,V,2.0
V2,21.0,27.0,32.0,43.0,24.0,43,842.0,square3,j,0.1515,2,V,2.0
V2,22.0,35.0,27.0,50.0,13.0,50,892.0,square3,j,0.1732,2,V,2.0
V2,23.0,36.0,25.0,39.0,17.0,39,931.0,square3,j,0.1044,2,V,2.0
V2,24.0,32.0,45.0,39.0,59.0,32,963.0,square1,i,0.2924,0,V,2.0
V2,25.0,26.0,43.0,37.0,55.0,43,1006.0,square2,r,0.4674,1,V,2.0
V2,26.0,23.0,45.0,39.0,58.0,45,1051.0,square2,r,0.2668,1,V,2.0
V2,27.0,30.0,44.0,40.0,56.0,56,1107.0,square4,f,0.0014,3,V,2.0
V2,28.0,34.0,48.0,41.0,54.0,54,1161.0,square4,f,0.2569,3,V,2.0
V2,29.0,29.0,42.0,35.0,54.0,54,1215.0,square4,f,0.2838,3,V,2.0
V2,30.0,22.0,39.0,39.0,55.0,55,1270.0,square4,f,0.2586,3,V,2.0
V2,31.0,32.0,48.0,35.0,50.0,50,1320.0,square4,f,0.178,3,V,2.0
V2,32.0,27.0,47.0,40.0,58.0,58,1378.0,square4,f,0.1613,3,V,2.0
V2,33.0,28.0,46.0,31.0,54.0,54,1432.0,square4,f,0.2344,3,V,2.0
V2,34.0,28.0,44.0,41.0,49.0,49,1481.0,square4,f,0.2346,3,V,2.0
V2,35.0,31.0,44.0,33.0,59.0,59,1540.0,square4,f,0.0756,3,V,2.0
V2,36.0,29.0,48.0,30.0,55.0,55,1595.0,square4,f,0.1171,3,V,2.0
V2,37.0,25.0,45.0,32.0,51.0,51,1646.0,square4,f,0.0743,3,V,2.0
V2,38.0,29.0,48.0,33.0,54.0,48,1694.0,square2,r,0.1705,1,V,2.0
V2,39.0,29.0,44.0,33.0,54.0,29,1723.0,square1,i,0.1346,0,V,2.0
V2,40.0,33.0,42.0,37.0,61.0,37,1760.0,square3,j,0.034,2,V,2.0
V2,41.0,28.0,45.0,41.0,57.0,57,1817.0,square4,f,0.2515,3,V,2.0
V2,42.0,33.0,46.0,36.0,54.0,54,1871.0,square4,f,0.2172,3,V,2.0
V2,43.0,31.0,42.0,40.0,57.0,57,1928.0,square4,f,0.1173,3,V,2.0
V2,44.0,27.0,45.0,38.0,56.0,56,1984.0,square4,f,0.2005,3,V,2.0
V2,45.0,27.0,44.0,32.0,51.0,51,2035.0,square4,f,0.1036,3,V,2.0
V2,46.0,28.0,44.0,39.0,57.0,57,2092.0,square4,f,0.1737,3,V,2.0
V2,47.0,30.0,45.0,36.0,56.0,56,2148.0,square4,f,0.2008,3,V,2.0
V2,48.0,31.0,47.0,41.0,59.0,59,2207.0,square4,f,0.101,3,V,2.0
V2,49.0,32.0,45.0,33.0,57.0,57,2264.0,square4,f,0.2241,3,V,2.0
V2,50.0,24.0,38.0,36.0,52.0,52,2316.0,square4,f,0.0211,3,V,2.0
V2,51.0,29.0,48.0,34.0,54.0,54,2370.0,square4,f,0.4539,3,V,2.0
V2,52.0,30.0,50.0,38.0,56.0,56,2426.0,square4,f,0.135,3,V,2.0
V2,53.0,27.0,47.0,33.0,55.0,55,2481.0,square4,f,0.2335,3,V,2.0
V2,54.0,34.0,21.0,45.0,25.0,21,2502.0,square2,r,0.0345,1,V,2.0
V2,55.0,36.0,19.0,39.0,24.0,36,2538.0,square1,i,0.3551,0,V,2.0
V2,56.0,29.0,19.0,45.0,18.0,45,2583.0,square3,j,0.2883,2,V,2.0
V2,57.0,29.0,20.0,39.0,20.0,20,2603.0,square4,f,0.2544,3,V,2.0
V2,58.0,40.0,18.0,42.0,21.0,18,2621.0,square2,r,0.3172,1,V,2.0
V2,59.0,31.0,17.0,44.0,23.0,31,2652.0,square1,i,0.5011,0,V,2.0
V2,60.0,31.0,19.0,42.0,20.0,42,2694.0,square3,j,0.1443,2,V,2.0
V2,61.0,34.0,16.0,41.0,25.0,41,2735.0,square3,j,0.2716,2,V,2.0
V2,62.0,28.0,12.0,41.0,22.0,41,2776.0,square3,j,0.2341,2,V,2.0
V2,63.0,32.0,14.0,45.0,26.0,45,2821.0,square3,j,0.2176,2,V,2.0
V2,64.0,36.0,21.0,41.0,25.0,41,2862.0,square3,j,0.0748,2,V,2.0
V2,65.0,32.0,13.0,39.0,24.0,39,2901.0,square3,j,0.1008,2,V,2.0
V2,66.0,35.0,15.0,42.0,20.0,35,2936.0,square1,i,0.2445,0,V,2.0
V2,67.0,30.0,23.0,47.0,27.0,23,2959.0,square2,r,0.4394,1,V,2.0
V2,68.0,31.0,17.0,43.0,24.0,24,2983.0,square4,f,0.3181,3,V,2.0
V2,69.0,33.0,20.0,41.0,20.0,41,3024.0,square3,j,0.1838,2,V,2.0
V2,70.0,37.0,17.0,43.0,21.0,37,3061.0,square1,i,0.2841,0,V,2.0
V2,71.0,45.0,31.0,36.0,58.0,36,3097.0,square3,j,0.1178,2,V,2.0
V2,72.0,47.0,31.0,31.0,54.0,31,3128.0,square3,j,0.4872,2,V,2.0
V2,73.0,50.0,30.0,33.0,55.0,33,3161.0,square3,j,0.1505,2,V,2.0
V2,74.0,45.0,31.0,36.0,51.0,36,3197.0,square3,j,0.3001,2,V,2.0
V2,75.0,47.0,28.0,38.0,54.0,38,3235.0,square3,j,0.2286,2,V,2.0
V2,76.0,52.0,33.0,35.0,60.0,35,3270.0,square3,j,0.2199,2,V,2.0
V2,77.0,41.0,29.0,37.0,53.0,29,3299.0,square2,r,0.301,1,V,2.0
V2,78.0,51.0,24.0,34.0,56.0,56,3355.0,square4,f,0.2348,3,V,2.0
V2,79.0,41.0,34.0,36.0,52.0,52,3407.0,square4,f,0.2675,3,V,2.0
V2,80.0,48.0,31.0,37.0,51.0,51,3458.0,square4,f,0.1845,3,V,2.0
V2,81.0,43.0,32.0,40.0,53.0,53,3511.0,square4,f,0.1177,3,V,2.0
V2,82.0,48.0,25.0,37.0,58.0,58,3569.0,square4,f,0.0421,3,V,2.0
V2,83.0,45.0,32.0,36.0,61.0,61,3630.0,square4,f,0.2579,3,V,2.0
V2,84.0,47.0,29.0,39.0,60.0,60,3690.0,square4,f,0.1873,3,V,2.0
V2,85.0,49.0,30.0,39.0,54.0,54,3744.0,square4,f,0.7068,3,V,2.0
V2,86.0,46.0,28.0,33.0,51.0,51,3795.0,square4,f,0.1757,3,V,2.0
V2,87.0,45.0,24.0,37.0,55.0,55,3850.0,square4,f,0.0673,3,V,2.0
V2,88.0,48.0,29.0,42.0,54.0,54,3904.0,square4,f,0.1173,3,V,2.0
V2,89.0,43.0,31.0,38.0,52.0,52,3956.0,square4,f,0.1369,3,V,2.0
V2,90.0,51.0,33.0,36.0,56.0,56,4012.0,square4,f,0.1027,3,V,2.0
V2,91.0,49.0,32.0,37.0,59.0,59,4071.0,square4,f,0.0675,3,V,2.0
V2,92.0,47.0,29.0,37.0,56.0,56,4127.0,square4,f,0.0272,3,V,2.0
V2,93.0,45.0,27.0,35.0,56.0,56,4183.0,square4,f,0.0011,3,V,2.0
V2,94.0,45.0,31.0,31.0,49.0,49,4232.0,square4,f,0.7344,3,V,2.0
V2,95.0,47.0,33.0,36.0,52.0,52,4284.0,square4,f,0.0689,3,V,2.0
V2,96.0,44.0,28.0,37.0,59.0,59,4343.0,square4,f,0.0421,3,V,2.0
V2,97.0,48.0,28.0,33.0,55.0,55,4398.0,square4,f,0.2339,3,V,2.0
V2,98.0,49.0,29.0,39.0,60.0,60,4458.0,square4,f,0.0235,3,V,2.0
V2,99.0,44.0,30.0,36.0,50.0,50,4508.0,square4,f,0.2513,3,V,2.0
V3,0.0,62.0,45.0,70.0,53.0,53,53.0,square4,r,0.7444,3,V,3.0
V3,1.0,63.0,47.0,76.0,60.0,76,129.0,square3,i,0.2243,2,V,3.0
V3,2.0,65.0,54.0,73.0,57.0,54,183.0,square2,j,0.3343,1,V,3.0
V3,3.0,68.0,51.0,71.0,51.0,68,251.0,square1,f,0.1841,0,V,3.0
V3,4.0,61.0,49.0,75.0,53.0,75,326.0,square3,i,0.4006,2,V,3.0
V3,5.0,65.0,47.0,74.0,50.0,74,400.0,square3,i,0.0937,2,V,3.0
V3,6.0,61.0,51.0,72.0,57.0,72,472.0,square3,i,0.1839,2,V,3.0
V3,7.0,67.0,49.0,75.0,55.0,75,547.0,square3,i,0.1836,2,V,3.0
V3,8.0,64.0,48.0,76.0,56.0,76,623.0,square3,i,0.1607,2,V,3.0
V3,9.0,67.0,49.0,71.0,56.0,71,694.0,square3,i,0.0507,2,V,3.0
V3,10.0,65.0,50.0,71.0,56.0,56,750.0,square4,r,0.2004,3,V,3.0
V3,11.0,63.0,43.0,78.0,58.0,63,813.0,square1,f,0.5212,0,V,3.0
V3,12.0,66.0,53.0,73.0,54.0,53,866.0,square2,j,0.2436,1,V,3.0
V3,13.0,64.0,46.0,78.0,51.0,78,944.0,square3,i,0.2604,2,V,3.0
V3,14.0,67.0,51.0,71.0,58.0,71,1015.0,square3,i,0.1084,2,V,3.0
V3,15.0,61.0,50.0,73.0,54.0,73,1088.0,square3,i,0.0871,2,V,3.0
V3,16.0,64.0,52.0,74.0,54.0,74,1162.0,square3,i,0.1884,2,V,3.0
V3,17.0,61.0,48.0,74.0,55.0,74,1236.0,square3,i,0.2065,2,V,3.0
V3,18.0,65.0,50.0,70.0,59.0,70,1306.0,square3,i,0.017,2,V,3.0
V3,19.0,64.0,52.0,76.0,56.0,76,1382.0,square3,i,0.0913,2,V,3.0
V3,20.0,64.0,50.0,69.0,58.0,69,1451.0,square3,i,0.0853,2,V,3.0
V3,21.0,66.0,50.0,72.0,56.0,72,1523.0,square3,i,0.6679,2,V,3.0
V3,22.0,43.0,48.0,40.0,62.0,40,1563.0,square3,i,0.385,2,V,3.0
V3,23.0,41.0,51.0,35.0,59.0,59,1622.0,square4,r,0.4529,3,V,3.0
V3,24.0,51.0,51.0,37.0,60.0,51,1673.0,square1,f,0.2519,0,V,3.0
V3,25.0,45.0,53.0,36.0,57.0,53,1726.0,square2,j,0.0847,1,V,3.0
V3,26.0,44.0,51.0,38.0,59.0,59,1785.0,square4,r,0.2507,3,V,3.0
V3,27.0,43.0,51.0,34.0,66.0,66,1851.0,square4,r,0.2678,3,V,3.0
V3,28.0,47.0,51.0,40.0,67.0,67,1918.0,square4,r,0.2678,3,V,3.0
V3,29.0,42.0,55.0,35.0,65.0,65,1983.0,square4,r,0.3021,3,V,3.0
V3,30.0,49.0,54.0,36.0,62.0,62,2045.0,square4,r,0.2415,3,V,3.0
V3,31.0,50.0,53.0,42.0,66.0,66,2111.0,square4,r,0.2843,3,V,3.0
V3,32.0,47.0,53.0,34.0,58.0,58,2169.0,square4,r,0.2418,3,V,3.0
V3,33.0,45.0,56.0,34.0,62.0,62,2231.0,square4,r,0.2512,3,V,3.0
V3,34.0,48.0,54.0,38.0,64.0,64,2295.0,square4,r,0.277,3,V,3.0
V3,35.0,39.0,55.0,42.0,65.0,65,2360.0,square4,r,0.2836,3,V,3.0
V3,36.0,46.0,57.0,41.0,63.0,41,2401.0,square3,i,0.1086,2,V,3.0
V3,37.0,43.0,54.0,41.0,65.0,65,2466.0,square4,r,0.0088,3,V,3.0
V3,38.0,47.0,52.0,37.0,63.0,63,2529.0,square4,r,0.2884,3,V,3.0
V3,39.0,47.0,53.0,38.0,55.0,55,2584.0,square4,r,0.184,3,V,3.0
V3,40.0,41.0,54.0,39.0,64.0,41,2625.0,square1,f,0.0442,0,V,3.0
V3,41.0,48.0,52.0,38.0,64.0,52,2677.0,square2,j,0.0213,1,V,3.0
V3,42.0,45.0,50.0,34.0,63.0,63,2740.0,square4,r,0.4344,3,V,3.0
V3,43.0,44.0,50.0,34.0,62.0,62,2802.0,square4,r,0.2504,3,V,3.0
V3,44.0,47.0,55.0,39.0,65.0,65,2867.0,square4,r,0.2839,3,V,3.0
V3,45.0,45.0,55.0,31.0,63.0,63,2930.0,square4,r,0.2338,3,V,3.0
V3,46.0,42.0,52.0,38.0,64.0,64,2994.0,square4,r,0.1339,3,V,3.0
V3,47.0,44.0,53.0,37.0,55.0,55,3049.0,square4,r,0.0927,3,V,3.0
V3,48.0,44.0,49.0,37.0,58.0,58,3107.0,square4,r,0.1075,3,V,3.0
V3,49.0,48.0,58.0,35.0,54.0,54,3161.0,square4,r,0.3048,3,V,3.0
V3,50.0,42.0,28.0,30.0,52.0,30,3191.0,square3,i,0.0012,2,V,3.0
V3,51.0,46.0,29.0,32.0,51.0,51,3242.0,square4,r,0.3506,3,V,3.0
V3,52.0,37.0,20.0,36.0,50.0,37,3279.0,square1,f,0.2097,0,V,3.0
V3,53.0,44.0,22.0,34.0,55.0,22,3301.0,square2,j,0.1506,1,V,3.0
V3,54.0,37.0,27.0,26.0,50.0,50,3351.0,square4,r,0.2038,3,V,3.0
V3,55.0,41.0,21.0,39.0,53.0,53,3404.0,square4,r,0.2153,3,V,3.0
V3,56.0,40.0,20.0,38.0,51.0,51,3455.0,square4,r,0.2829,3,V,3.0
V3,57.0,44.0,28.0,31.0,57.0,57,3512.0,square4,r,0.2531,3,V,3.0
V3,58.0,46.0,20.0,28.0,49.0,49,3561.0,square4,r,0.2675,3,V,3.0
V3,59.0,44.0,24.0,30.0,55.0,55,3616.0,square4,r,0.2524,3,V,3.0
V3,60.0,42.0,29.0,29.0,51.0,51,3667.0,square4,r,0.2347,3,V,3.0
V3,61.0,41.0,21.0,30.0,46.0,30,3697.0,square3,i,0.2507,2,V,3.0
V3,62.0,41.0,27.0,31.0,49.0,49,3746.0,square4,r,0.3561,3,V,3.0
V3,63.0,42.0,27.0,34.0,51.0,51,3797.0,square4,r,0.2689,3,V,3.0
V3,64.0,41.0,24.0,30.0,47.0,41,3838.0,square1,f,0.2849,0,V,3.0
V3,65.0,36.0,18.0,34.0,48.0,48,3886.0,square4,r,0.2549,3,V,3.0
V3,66.0,39.0,28.0,35.0,45.0,45,3931.0,square4,r,0.2445,3,V,3.0
V3,67.0,42.0,21.0,32.0,46.0,46,3977.0,square4,r,0.2799,3,V,3.0
V3,68.0,40.0,24.0,35.0,53.0,24,4001.0,square2,j,0.326,1,V,3.0
V3,69.0,48.0,23.0,34.0,50.0,50,4051.0,square4,r,0.3088,3,V,3.0
V3,70.0,40.0,27.0,31.0,49.0,49,4100.0,square4,r,0.2183,3,V,3.0
V3,71.0,41.0,23.0,28.0,51.0,51,4151.0,square4,r,0.1332,3,V,3.0
V3,72.0,42.0,25.0,33.0,55.0,55,4206.0,square4,r,0.1603,3,V,3.0
V3,73.0,41.0,24.0,35.0,55.0,55,4261.0,square4,r,0.2342,3,V,3.0
V3,74.0,38.0,26.0,28.0,53.0,53,4314.0,square4,r,0.2226,3,V,3.0
V3,75.0,54.0,39.0,69.0,50.0,50,4364.0,square4,r,0.3097,3,V,3.0
V3,76.0,55.0,42.0,64.0,53.0,53,4417.0,square4,r,0.2691,3,V,3.0
V3,77.0,59.0,37.0,66.0,44.0,44,4461.0,square4,r,0.1765,3,V,3.0
V3,78.0,58.0,38.0,60.0,46.0,60,4521.0,square3,i,0.2374,2,V,3.0
V3,79.0,54.0,35.0,66.0,49.0,66,4587.0,square3,i,0.284,2,V,3.0
V3,80.0,60.0,36.0,68.0,44.0,60,4647.0,square1,f,0.2187,0,V,3.0
V3,81.0,55.0,38.0,66.0,51.0,66,4713.0,square3,i,0.2869,2,V,3.0
V3,82.0,57.0,47.0,64.0,50.0,64,4777.0,square3,i,0.4518,2,V,3.0
V3,83.0,57.0,37.0,63.0,45.0,37,4814.0,square2,j,0.2173,1,V,3.0
V3,84.0,54.0,40.0,65.0,53.0,65,4879.0,square3,i,0.3719,2,V,3.0
V3,85.0,58.0,41.0,63.0,48.0,48,4927.0,square4,r,0.2883,3,V,3.0
V3,86.0,53.0,38.0,57.0,49.0,57,4984.0,square3,i,0.4487,2,V,3.0
V3,87.0,49.0,42.0,60.0,43.0,60,5044.0,square3,i,0.2492,2,V,3.0
V3,88.0,56.0,35.0,70.0,46.0,70,5114.0,square3,i,0.2245,2,V,3.0
V3,89.0,58.0,39.0,63.0,52.0,63,5177.0,square3,i,0.1284,2,V,3.0
V3,90.0,59.0,43.0,63.0,45.0,63,5240.0,square3,i,0.1347,2,V,3.0
V3,91.0,54.0,37.0,69.0,49.0,69,5309.0,square3,i,0.5292,2,V,3.0
V3,92.0,56.0,41.0,61.0,47.0,61,5370.0,square3,i,0.437,2,V,3.0
V3,93.0,58.0,35.0,68.0,47.0,68,5438.0,square3,i,0.2489,2,V,3.0
V3,94.0,61.0,37.0,67.0,51.0,67,5505.0,square3,i,0.2707,2,V,3.0
V3,95.0,57.0,32.0,64.0,47.0,64,5569.0,square3,i,0.3116,2,V,3.0
V3,96.0,53.0,38.0,63.0,48.0,63,5632.0,square3,i,0.2815,2,V,3.0
V3,97.0,57.0,44.0,71.0,50.0,71,5703.0,square3,i,0.3068,2,V,3.0
V3,98.0,56.0,39.0,70.0,47.0,70,5773.0,square3,i,0.2976,2,V,3.0
V3,99.0,62.0,40.0,67.0,49.0,99999,5773.0,invalid,,,-1,V,3.0
V6,0.0,43.0,59.0,68.0,49.0,68,68.0,square3,r,1.8447,2,V,6.0
V6,1.0,43.0,62.0,71.0,50.0,62,130.0,square2,i,0.3302,1,V,6.0
V6,2.0,48.0,61.0,72.0,51.0,48,178.0,square1,j,0.2377,0,V,6.0
V6,3.0,46.0,55.0,71.0,51.0,51,229.0,square4,f,0.2644,3,V,6.0
V6,4.0,44.0,61.0,74.0,48.0,74,303.0,square3,r,0.2641,2,V,6.0
V6,5.0,45.0,62.0,70.0,51.0,70,373.0,square3,r,0.2548,2,V,6.0
V6,6.0,42.0,67.0,73.0,46.0,73,446.0,square3,r,0.2448,2,V,6.0
V6,7.0,44.0,63.0,71.0,53.0,71,517.0,square3,r,0.2307,2,V,6.0
V6,8.0,41.0,62.0,73.0,52.0,73,590.0,square3,r,0.2513,2,V,6.0
V6,9.0,46.0,59.0,72.0,54.0,59,649.0,square2,i,0.2572,1,V,6.0
V6,10.0,45.0,59.0,70.0,53.0,70,719.0,square3,r,0.2123,2,V,6.0
V6,11.0,45.0,60.0,70.0,49.0,70,789.0,square3,r,0.1704,2,V,6.0
V6,12.0,45.0,66.0,64.0,48.0,64,853.0,square3,r,0.2457,2,V,6.0
V6,13.0,45.0,61.0,69.0,47.0,69,922.0,square3,r,0.2895,2,V,6.0
V6,14.0,47.0,60.0,71.0,56.0,56,978.0,square4,f,0.1014,3,V,6.0
V6,15.0,46.0,64.0,67.0,52.0,67,1045.0,square3,r,0.2208,2,V,6.0
V6,16.0,50.0,60.0,69.0,54.0,50,1095.0,square1,j,0.1801,0,V,6.0
V6,17.0,43.0,60.0,70.0,53.0,70,1165.0,square3,r,0.2412,2,V,6.0
V6,18.0,46.0,63.0,72.0,55.0,72,1237.0,square3,r,0.1828,2,V,6.0
V6,19.0,46.0,65.0,73.0,51.0,73,1310.0,square3,r,0.2004,2,V,6.0
V6,20.0,44.0,63.0,66.0,51.0,66,1376.0,square3,r,0.2043,2,V,6.0
V6,21.0,43.0,63.0,70.0,49.0,70,1446.0,square3,r,0.2198,2,V,6.0
V6,22.0,45.0,63.0,71.0,50.0,71,1517.0,square3,r,0.2608,2,V,6.0
V6,23.0,45.0,38.0,28.0,60.0,38,1555.0,square2,i,0.149,1,V,6.0
V6,24.0,46.0,33.0,33.0,53.0,33,1588.0,square3,r,0.2054,2,V,6.0
V6,25.0,45.0,36.0,32.0,63.0,63,1651.0,square4,f,0.3555,3,V,6.0
V6,26.0,52.0,37.0,28.0,57.0,52,1703.0,square1,j,0.1278,0,V,6.0
V6,27.0,45.0,33.0,30.0,62.0,62,1765.0,square4,f,0.2804,3,V,6.0
V6,28.0,43.0,37.0,24.0,51.0,51,1816.0,square4,f,0.2353,3,V,6.0
V6,29.0,48.0,39.0,34.0,61.0,39,1855.0,square2,i,0.3218,1,V,6.0
V6,30.0,48.0,44.0,35.0,59.0,59,1914.0,square4,f,0.1785,3,V,6.0
V6,31.0,50.0,39.0,34.0,53.0,53,1967.0,square4,f,0.4153,3,V,6.0
V6,32.0,44.0,33.0,33.0,54.0,54,2021.0,square4,f,0.1036,3,V,6.0
V6,33.0,48.0,37.0,30.0,56.0,56,2077.0,square4,f,0.1981,3,V,6.0
V6,34.0,52.0,37.0,27.0,59.0,27,2104.0,square3,r,0.2047,2,V,6.0
V6,35.0,47.0,32.0,29.0,59.0,59,2163.0,square4,f,0.0413,3,V,6.0
V6,36.0,45.0,37.0,27.0,56.0,56,2219.0,square4,f,0.2059,3,V,6.0
V6,37.0,39.0,37.0,31.0,57.0,57,2276.0,square4,f,0.1447,3,V,6.0
V6,38.0,50.0,38.0,29.0,56.0,56,2332.0,square4,f,0.2641,3,V,6.0
V6,39.0,48.0,37.0,27.0,57.0,57,2389.0,square4,f,0.2115,3,V,6.0
V6,40.0,53.0,37.0,29.0,57.0,57,2446.0,square4,f,0.2242,3,V,6.0
V6,41.0,41.0,34.0,33.0,58.0,41,2487.0,square1,j,0.0065,0,V,6.0
V6,42.0,50.0,37.0,31.0,57.0,37,2524.0,square2,i,0.1146,1,V,6.0
V6,43.0,48.0,34.0,30.0,58.0,58,2582.0,square4,f,0.0011,3,V,6.0
V6,44.0,44.0,37.0,33.0,60.0,60,2642.0,square4,f,0.1289,3,V,6.0
V6,45.0,44.0,32.0,33.0,55.0,55,2697.0,square4,f,0.0778,3,V,6.0
V6,46.0,44.0,36.0,33.0,59.0,59,2756.0,square4,f,0.0943,3,V,6.0
V6,47.0,42.0,34.0,29.0,52.0,52,2808.0,square4,f,0.2563,3,V,6.0
V6,48.0,46.0,41.0,28.0,60.0,60,2868.0,square4,f,0.0969,3,V,6.0
V6,49.0,46.0,40.0,27.0,55.0,55,2923.0,square4,f,0.0879,3,V,6.0
V6,50.0,46.0,41.0,32.0,55.0,55,2978.0,square4,f,0.1166,3,V,6.0
V6,51.0,41.0,39.0,30.0,55.0,55,3033.0,square4,f,0.1283,3,V,6.0
V6,52.0,47.0,37.0,31.0,55.0,55,3088.0,square4,f,0.178,3,V,6.0
V6,53.0,57.0,36.0,30.0,58.0,58,3146.0,square4,f,0.1716,3,V,6.0
V6,54.0,42.0,38.0,28.0,50.0,50,3196.0,square4,f,0.1851,3,V,6.0
V6,55.0,56.0,42.0,67.0,46.0,46,3242.0,square4,f,0.1034,3,V,6.0
V6,56.0,54.0,37.0,68.0,46.0,46,3288.0,square4,f,0.1148,3,V,6.0
V6,57.0,57.0,40.0,64.0,52.0,64,3352.0,square3,r,0.2859,2,V,6.0
V6,58.0,53.0,45.0,68.0,45.0,45,3397.0,square4,f,0.0791,3,V,6.0
V6,59.0,59.0,41.0,69.0,49.0,69,3466.0,square3,r,0.6146,2,V,6.0
V6,60.0,62.0,41.0,71.0,51.0,71,3537.0,square3,r,0.2285,2,V,6.0
V6,61.0,58.0,50.0,72.0,51.0,50,3587.0,square2,i,0.001,1,V,6.0
V6,62.0,61.0,43.0,65.0,47.0,61,3648.0,square1,j,0.0304,0,V,6.0
V6,63.0,55.0,40.0,67.0,51.0,67,3715.0,square3,r,0.4216,2,V,6.0
V6,64.0,56.0,43.0,67.0,47.0,67,3782.0,square3,r,0.2445,2,V,6.0
V6,65.0,62.0,46.0,67.0,48.0,67,3849.0,square3,r,0.0901,2,V,6.0
V6,66.0,55.0,44.0,67.0,48.0,67,3916.0,square3,r,0.1163,2,V,6.0
V6,67.0,61.0,46.0,70.0,49.0,61,3977.0,square1,j,0.4293,0,V,6.0
V6,68.0,63.0,41.0,72.0,46.0,72,4049.0,square3,r,0.4209,2,V,6.0
V6,69.0,59.0,41.0,68.0,48.0,68,4117.0,square3,r,0.2147,2,V,6.0
V6,70.0,59.0,37.0,70.0,45.0,70,4187.0,square3,r,0.0136,2,V,6.0
V6,71.0,83.0,64.0,56.0,70.0,56,4243.0,square3,r,0.2465,2,V,6.0
V6,72.0,82.0,59.0,53.0,75.0,82,4325.0,square1,j,0.2368,0,V,6.0
V6,73.0,85.0,67.0,58.0,73.0,85,4410.0,square1,j,0.2034,0,V,6.0
V6,74.0,79.0,67.0,61.0,73.0,67,4477.0,square2,i,0.0296,1,V,6.0
V6,75.0,84.0,62.0,53.0,69.0,69,4546.0,square4,f,0.0959,3,V,6.0
V6,76.0,81.0,60.0,55.0,76.0,81,4627.0,square1,j,0.2522,0,V,6.0
V6,77.0,84.0,61.0,60.0,72.0,84,4711.0,square1,j,0.232,0,V,6.0
V6,78.0,90.0,61.0,54.0,74.0,90,4801.0,square1,j,0.2294,0,V,6.0
V6,79.0,80.0,64.0,51.0,75.0,80,4881.0,square1,j,0.1814,0,V,6.0
V6,80.0,85.0,62.0,56.0,78.0,85,4966.0,square1,j,0.2315,0,V,6.0
V6,81.0,86.0,65.0,58.0,69.0,86,5052.0,square1,j,0.2678,0,V,6.0
V6,82.0,83.0,62.0,58.0,77.0,83,5135.0,square1,j,0.1017,0,V,6.0
V6,83.0,87.0,61.0,59.0,70.0,87,5222.0,square1,j,0.2517,0,V,6.0
V6,84.0,89.0,65.0,54.0,78.0,89,5311.0,square1,j,0.1863,0,V,6.0
V6,85.0,78.0,63.0,55.0,75.0,78,5389.0,square1,j,0.214,0,V,6.0
V6,86.0,87.0,67.0,52.0,75.0,87,5476.0,square1,j,0.3067,0,V,6.0
V6,87.0,86.0,62.0,60.0,75.0,62,5538.0,square2,i,0.2866,1,V,6.0
V6,88.0,79.0,67.0,56.0,76.0,79,5617.0,square1,j,0.2511,0,V,6.0
V6,89.0,83.0,61.0,57.0,75.0,83,5700.0,square1,j,0.195,0,V,6.0
V6,90.0,83.0,67.0,51.0,76.0,76,5776.0,square4,f,0.1184,3,V,6.0
V6,91.0,83.0,63.0,55.0,69.0,83,5859.0,square1,j,0.2321,0,V,6.0
V6,92.0,89.0,56.0,53.0,68.0,53,5912.0,square3,r,0.203,2,V,6.0
V6,93.0,84.0,61.0,59.0,74.0,84,5996.0,square1,j,0.021,0,V,6.0
V6,94.0,77.0,58.0,58.0,76.0,77,6073.0,square1,j,0.2171,0,V,6.0
V6,95.0,82.0,60.0,53.0,74.0,82,6155.0,square1,j,0.1646,0,V,6.0
V6,96.0,87.0,61.0,56.0,71.0,87,6242.0,square1,j,0.2503,0,V,6.0
V6,97.0,83.0,66.0,55.0,75.0,83,6325.0,square1,j,0.2342,0,V,6.0
V6,98.0,81.0,63.0,55.0,76.0,81,6406.0,square1,j,0.328,0,V,6.0
V6,99.0,92.0,63.0,61.0,78.0,92,6498.0,square1,j,0.4957,0,V,6.0
NS5,0.0,26.0,19.0,54.0,39.0,19,19.0,square2,r,1.867,1,N,5.0
NS5,1.0,21.0,17.0,51.0,42.0,51,70.0,square3,f,0.2208,2,N,5.0
NS5,2.0,19.0,17.0,52.0,42.0,19,89.0,square1,i,0.268,0,N,5.0
NS5,3.0,21.0,16.0,55.0,38.0,38,127.0,square4,j,1.3394,3,N,5.0
NS5,4.0,14.0,26.0,52.0,44.0,52,179.0,square3,f,0.2837,2,N,5.0
NS5,5.0,18.0,25.0,47.0,42.0,47,226.0,square3,f,0.2177,2,N,5.0
NS5,6.0,23.0,21.0,54.0,38.0,54,280.0,square3,f,0.2666,2,N,5.0
NS5,7.0,18.0,27.0,56.0,39.0,56,336.0,square3,f,0.1177,2,N,5.0
NS5,8.0,18.0,28.0,57.0,40.0,57,393.0,square3,f,0.0702,2,N,5.0
NS5,9.0,15.0,29.0,53.0,38.0,29,422.0,square2,r,0.0435,1,N,5.0
NS5,10.0,13.0,26.0,56.0,41.0,56,478.0,square3,f,0.218,2,N,5.0
NS5,11.0,11.0,25.0,58.0,41.0,58,536.0,square3,f,0.1508,2,N,5.0
NS5,12.0,9.0,22.0,53.0,40.0,53,589.0,square3,f,0.0997,2,N,5.0
NS5,13.0,11.0,21.0,55.0,39.0,55,644.0,square3,f,0.1871,2,N,5.0
NS5,14.0,12.0,17.0,49.0,38.0,49,693.0,square3,f,0.2544,2,N,5.0
NS5,15.0,18.0,19.0,52.0,37.0,18,711.0,square1,i,0.0836,0,N,5.0
NS5,16.0,18.0,20.0,49.0,40.0,49,760.0,square3,f,0.0344,2,N,5.0
NS5,17.0,16.0,16.0,50.0,41.0,50,810.0,square3,f,0.0014,2,N,5.0
NS5,18.0,16.0,18.0,51.0,43.0,43,853.0,square4,j,0.2509,3,N,5.0
NS5,19.0,14.0,20.0,44.0,45.0,44,897.0,square3,f,0.2393,2,N,5.0
NS5,20.0,19.0,21.0,42.0,48.0,42,939.0,square3,f,0.267,2,N,5.0
NS5,21.0,19.0,22.0,43.0,47.0,43,982.0,square3,f,0.2511,2,N,5.0
NS5,22.0,17.0,15.0,43.0,47.0,47,1029.0,square4,j,0.3343,3,N,5.0
NS5,23.0,16.0,28.0,37.0,47.0,47,1076.0,square4,j,0.2664,3,N,5.0
NS5,24.0,20.0,21.0,38.0,49.0,49,1125.0,square4,j,0.2338,3,N,5.0
NS5,25.0,22.0,17.0,34.0,46.0,17,1142.0,square2,r,0.2676,1,N,5.0
NS5,26.0,30.0,16.0,32.0,50.0,50,1192.0,square4,j,0.2058,3,N,5.0
NS5,27.0,21.0,20.0,35.0,42.0,42,1234.0,square4,j,0.2345,3,N,5.0
NS5,28.0,20.0,23.0,39.0,42.0,42,1276.0,square4,j,0.3007,3,N,5.0
NS5,29.0,21.0,18.0,39.0,41.0,39,1315.0,square3,f,0.1266,2,N,5.0
NS5,30.0,20.0,11.0,41.0,44.0,44,1359.0,square4,j,0.1786,3,N,5.0
NS5,31.0,20.0,9.0,36.0,43.0,43,1402.0,square4,j,0.2173,3,N,5.0
NS5,32.0,21.0,13.0,35.0,46.0,21,1423.0,square1,i,0.2005,0,N,5.0
NS5,33.0,16.0,22.0,32.0,44.0,44,1467.0,square4,j,0.0348,3,N,5.0
NS5,34.0,20.0,20.0,33.0,37.0,37,1504.0,square4,j,0.1677,3,N,5.0
NS5,35.0,19.0,27.0,34.0,40.0,34,1538.0,square3,f,0.1882,2,N,5.0
NS5,36.0,20.0,23.0,31.0,37.0,37,1575.0,square4,j,0.1586,3,N,5.0
NS5,37.0,15.0,28.0,41.0,40.0,40,1615.0,square4,j,0.204,3,N,5.0
NS5,38.0,18.0,21.0,45.0,37.0,37,1652.0,square4,j,0.257,3,N,5.0
NS5,39.0,23.0,22.0,40.0,34.0,22,1674.0,square2,r,0.1007,1,N,5.0
NS5,40.0,22.0,25.0,44.0,26.0,26,1700.0,square4,j,0.068,3,N,5.0
NS5,41.0,28.0,25.0,39.0,29.0,28,1728.0,square1,i,0.3762,0,N,5.0
NS5,42.0,27.0,27.0,42.0,35.0,27,1755.0,square1,i,0.2699,0,N,5.0
NS5,43.0,25.0,25.0,49.0,38.0,49,1804.0,square3,f,0.1008,2,N,5.0
NS5,44.0,24.0,26.0,42.0,30.0,42,1846.0,square3,f,0.2673,2,N,5.0
NS5,45.0,33.0,22.0,43.0,37.0,43,1889.0,square3,f,0.2538,2,N,5.0
NS5,46.0,32.0,24.0,50.0,38.0,50,1939.0,square3,f,0.084,2,N,5.0
NS5,47.0,39.0,25.0,52.0,29.0,52,1991.0,square3,f,0.143,2,N,5.0
NS5,48.0,42.0,22.0,46.0,33.0,46,2037.0,square3,f,0.8499,2,N,5.0
NS5,49.0,40.0,26.0,40.0,33.0,40,2077.0,square3,f,0.1396,2,N,5.0
NS5,50.0,34.0,19.0,47.0,33.0,47,2124.0,square3,f,0.4283,2,N,5.0
NS5,51.0,29.0,25.0,45.0,29.0,45,2169.0,square3,f,0.2672,2,N,5.0
NS5,52.0,29.0,24.0,48.0,35.0,48,2217.0,square3,f,0.1011,2,N,5.0
NS5,53.0,24.0,25.0,45.0,40.0,40,2257.0,square4,j,0.2503,3,N,5.0
NS5,54.0,26.0,25.0,51.0,36.0,51,2308.0,square3,f,0.1499,2,N,5.0
NS5,55.0,25.0,28.0,56.0,34.0,56,2364.0,square3,f,0.2245,2,N,5.0
NS5,56.0,23.0,27.0,54.0,36.0,54,2418.0,square3,f,0.1214,2,N,5.0
NS5,57.0,19.0,25.0,51.0,31.0,25,2443.0,square2,r,0.2341,1,N,5.0
NS5,58.0,20.0,30.0,53.0,29.0,20,2463.0,square1,i,0.2342,0,N,5.0
NS5,59.0,17.0,30.0,52.0,28.0,52,2515.0,square3,f,0.2607,2,N,5.0
NS5,60.0,15.0,30.0,55.0,30.0,55,2570.0,square3,f,0.2512,2,N,5.0
NS5,61.0,22.0,29.0,54.0,30.0,54,2624.0,square3,f,0.1344,2,N,5.0
NS5,62.0,18.0,31.0,55.0,32.0,55,2679.0,square3,f,0.5839,2,N,5.0
NS5,63.0,19.0,31.0,51.0,37.0,51,2730.0,square3,f,0.236,2,N,5.0
NS5,64.0,20.0,30.0,45.0,35.0,45,2775.0,square3,f,0.2336,2,N,5.0
NS5,65.0,24.0,21.0,55.0,38.0,55,2830.0,square3,f,0.0879,2,N,5.0
NS5,66.0,22.0,29.0,58.0,36.0,36,2866.0,square4,j,0.0761,3,N,5.0
NS5,67.0,22.0,26.0,51.0,36.0,51,2917.0,square3,f,0.2067,2,N,5.0
NS5,68.0,20.0,28.0,52.0,36.0,52,2969.0,square3,f,0.3001,2,N,5.0
NS5,69.0,18.0,27.0,52.0,40.0,52,3021.0,square3,f,0.0177,2,N,5.0
NS5,70.0,22.0,34.0,55.0,39.0,55,3076.0,square3,f,0.1457,2,N,5.0
NS5,71.0,27.0,37.0,59.0,41.0,59,3135.0,square3,f,0.1259,2,N,5.0
NS5,72.0,27.0,37.0,57.0,40.0,57,3192.0,square3,f,0.2445,2,N,5.0
NS5,73.0,35.0,36.0,55.0,38.0,36,3228.0,square2,r,0.1014,1,N,5.0
NS5,74.0,27.0,36.0,52.0,36.0,52,3280.0,square3,f,0.0599,2,N,5.0
NS5,75.0,31.0,40.0,53.0,38.0,53,3333.0,square3,f,0.061,2,N,5.0
NS5,76.0,33.0,41.0,59.0,35.0,59,3392.0,square3,f,0.1346,2,N,5.0
NS5,77.0,33.0,42.0,56.0,38.0,33,3425.0,square1,i,0.4508,0,N,5.0
NS5,78.0,30.0,42.0,53.0,37.0,53,3478.0,square3,f,0.1592,2,N,5.0
NS5,79.0,27.0,49.0,51.0,44.0,51,3529.0,square3,f,0.1507,2,N,5.0
NS5,80.0,31.0,49.0,45.0,44.0,45,3574.0,square3,f,0.1947,2,N,5.0
NS5,81.0,33.0,51.0,48.0,43.0,48,3622.0,square3,f,0.2915,2,N,5.0
NS5,82.0,31.0,54.0,41.0,43.0,41,3663.0,square3,f,0.2013,2,N,5.0
NS5,83.0,25.0,57.0,42.0,40.0,42,3705.0,square3,f,0.2506,2,N,5.0
NS5,84.0,36.0,57.0,45.0,38.0,45,3750.0,square3,f,0.2339,2,N,5.0
NS5,85.0,36.0,62.0,44.0,42.0,44,3794.0,square3,f,0.3001,2,N,5.0
NS5,86.0,33.0,55.0,48.0,43.0,43,3837.0,square4,j,0.128,3,N,5.0
NS5,87.0,37.0,53.0,44.0,46.0,44,3881.0,square3,f,0.3538,2,N,5.0
NS5,88.0,36.0,54.0,41.0,48.0,54,3935.0,square2,r,0.3221,1,N,5.0
NS5,89.0,39.0,62.0,47.0,47.0,62,3997.0,square2,r,0.2678,1,N,5.0
NS5,90.0,37.0,62.0,51.0,48.0,62,4059.0,square2,r,0.2675,1,N,5.0
NS5,91.0,40.0,64.0,48.0,53.0,40,4099.0,square1,i,0.2875,0,N,5.0
NS5,92.0,42.0,64.0,51.0,55.0,64,4163.0,square2,r,0.2206,1,N,5.0
NS5,93.0,39.0,63.0,51.0,53.0,63,4226.0,square2,r,0.272,1,N,5.0
NS5,94.0,41.0,60.0,50.0,58.0,60,4286.0,square2,r,0.2211,1,N,5.0
NS5,95.0,36.0,55.0,53.0,52.0,55,4341.0,square2,r,0.3277,1,N,5.0
NS5,96.0,36.0,56.0,55.0,56.0,56,4397.0,square2,r,0.2419,1,N,5.0
NS5,97.0,28.0,52.0,57.0,53.0,52,4449.0,square2,r,0.2393,1,N,5.0
NS5,98.0,29.0,53.0,53.0,43.0,53,4502.0,square2,r,0.2846,1,N,5.0
NS5,99.0,25.0,55.0,53.0,46.0,55,4557.0,square2,r,0.2845,1,N,5.0
NS9,0.0,40.0,33.0,41.0,64.0,99999,0.0,invalid,,,-1,N,9.0
NS9,1.0,40.0,19.0,39.0,64.0,39,39.0,square3,r,0.2038,2,N,9.0
NS9,2.0,41.0,16.0,44.0,59.0,16,55.0,square2,i,0.2745,1,N,9.0
NS9,3.0,41.0,19.0,48.0,58.0,19,74.0,square2,i,1.1074,1,N,9.0
NS9,4.0,46.0,18.0,45.0,54.0,46,120.0,square1,j,0.0575,0,N,9.0
NS9,5.0,40.0,17.0,53.0,54.0,54,174.0,square4,f,0.2517,3,N,9.0
NS9,6.0,40.0,19.0,47.0,46.0,47,221.0,square3,r,0.2341,2,N,9.0
NS9,7.0,44.0,21.0,51.0,49.0,49,270.0,square4,f,0.2836,3,N,9.0
NS9,8.0,41.0,26.0,44.0,55.0,41,311.0,square1,j,0.2566,0,N,9.0
NS9,9.0,36.0,15.0,44.0,54.0,54,365.0,square4,f,0.3182,3,N,9.0
NS9,10.0,32.0,19.0,48.0,49.0,48,413.0,square3,r,0.1336,2,N,9.0
NS9,11.0,32.0,18.0,50.0,57.0,18,431.0,square2,i,0.2836,1,N,9.0
NS9,12.0,32.0,18.0,57.0,52.0,52,483.0,square4,f,0.1838,3,N,9.0
NS9,13.0,32.0,8.0,58.0,56.0,56,539.0,square4,f,0.1522,3,N,9.0
NS9,14.0,28.0,9.0,61.0,55.0,55,594.0,square4,f,0.1915,3,N,9.0
NS9,15.0,31.0,11.0,64.0,48.0,48,642.0,square4,f,0.2877,3,N,9.0
NS9,16.0,34.0,13.0,68.0,47.0,47,689.0,square4,f,0.2338,3,N,9.0
NS9,17.0,37.0,11.0,71.0,54.0,54,743.0,square4,f,0.1183,3,N,9.0
NS9,18.0,35.0,10.0,71.0,50.0,50,793.0,square4,f,0.2842,3,N,9.0
NS9,19.0,32.0,21.0,77.0,49.0,49,842.0,square4,f,0.0671,3,N,9.0
NS9,20.0,41.0,22.0,74.0,48.0,48,890.0,square4,f,0.0701,3,N,9.0
NS9,21.0,40.0,21.0,75.0,50.0,50,940.0,square4,f,0.1673,3,N,9.0
NS9,22.0,42.0,23.0,72.0,54.0,54,994.0,square4,f,0.177,3,N,9.0
NS9,23.0,43.0,22.0,75.0,45.0,45,1039.0,square4,f,0.0276,3,N,9.0
NS9,24.0,41.0,18.0,70.0,49.0,49,1088.0,square4,f,0.1498,3,N,9.0
NS9,25.0,38.0,21.0,75.0,53.0,53,1141.0,square4,f,0.0338,3,N,9.0
NS9,26.0,40.0,20.0,73.0,54.0,54,1195.0,square4,f,0.1671,3,N,9.0
NS9,27.0,46.0,21.0,74.0,56.0,56,1251.0,square4,f,0.1677,3,N,9.0
NS9,28.0,51.0,25.0,72.0,58.0,58,1309.0,square4,f,0.1173,3,N,9.0
NS9,29.0,43.0,29.0,71.0,56.0,71,1380.0,square3,r,0.1082,2,N,9.0
NS9,30.0,38.0,26.0,71.0,52.0,71,1451.0,square3,r,0.1182,2,N,9.0
NS9,31.0,43.0,23.0,73.0,53.0,43,1494.0,square1,j,0.1271,0,N,9.0
NS9,32.0,43.0,24.0,76.0,52.0,24,1518.0,square2,i,0.1538,1,N,9.0
NS9,33.0,41.0,18.0,72.0,49.0,72,1590.0,square3,r,0.1841,2,N,9.0
NS9,34.0,36.0,26.0,68.0,55.0,68,1658.0,square3,r,0.1669,2,N,9.0
NS9,35.0,34.0,34.0,68.0,52.0,68,1726.0,square3,r,0.0399,2,N,9.0
NS9,36.0,34.0,43.0,70.0,49.0,70,1796.0,square3,r,0.1699,2,N,9.0
NS9,37.0,32.0,41.0,61.0,47.0,61,1857.0,square3,r,0.0274,2,N,9.0
NS9,38.0,28.0,41.0,65.0,47.0,65,1922.0,square3,r,0.1175,2,N,9.0
NS9,39.0,28.0,43.0,61.0,48.0,61,1983.0,square3,r,0.0336,2,N,9.0
NS9,40.0,26.0,46.0,65.0,39.0,65,2048.0,square3,r,0.0509,2,N,9.0
NS9,41.0,21.0,38.0,62.0,41.0,62,2110.0,square3,r,0.1339,2,N,9.0
NS9,42.0,18.0,37.0,59.0,42.0,42,2152.0,square4,f,0.2874,3,N,9.0
NS9,43.0,18.0,44.0,57.0,39.0,57,2209.0,square3,r,0.0043,2,N,9.0
NS9,44.0,19.0,43.0,58.0,36.0,58,2267.0,square3,r,0.1175,2,N,9.0
NS9,45.0,23.0,42.0,53.0,39.0,23,2290.0,square1,j,0.0348,0,N,9.0
NS9,46.0,22.0,48.0,58.0,43.0,58,2348.0,square3,r,0.4713,2,N,9.0
NS9,47.0,20.0,47.0,51.0,44.0,51,2399.0,square3,r,0.0379,2,N,9.0
NS9,48.0,21.0,43.0,57.0,40.0,43,2442.0,square2,i,0.0594,1,N,9.0
NS9,49.0,25.0,38.0,59.0,46.0,59,2501.0,square3,r,0.3416,2,N,9.0
NS9,50.0,27.0,41.0,49.0,52.0,49,2550.0,square3,r,0.6,2,N,9.0
NS9,51.0,20.0,42.0,52.0,54.0,52,2602.0,square3,r,0.1675,2,N,9.0
NS9,52.0,18.0,41.0,51.0,48.0,51,2653.0,square3,r,0.0212,2,N,9.0
NS9,53.0,17.0,43.0,52.0,50.0,52,2705.0,square3,r,0.1852,2,N,9.0
NS9,54.0,27.0,37.0,55.0,56.0,55,2760.0,square3,r,0.1539,2,N,9.0
NS9,55.0,30.0,38.0,59.0,50.0,59,2819.0,square3,r,0.0683,2,N,9.0
NS9,56.0,32.0,49.0,54.0,59.0,59,2878.0,square4,f,0.3173,3,N,9.0
NS9,57.0,34.0,50.0,50.0,58.0,50,2928.0,square3,r,0.3501,2,N,9.0
NS9,58.0,28.0,49.0,54.0,51.0,51,2979.0,square4,f,0.2344,3,N,9.0
NS9,59.0,26.0,47.0,46.0,49.0,49,3028.0,square4,f,0.184,3,N,9.0
NS9,60.0,30.0,47.0,50.0,51.0,50,3078.0,square3,r,0.0342,2,N,9.0
NS9,61.0,29.0,43.0,51.0,50.0,51,3129.0,square3,r,0.2861,2,N,9.0
NS9,62.0,32.0,42.0,52.0,54.0,52,3181.0,square3,r,0.2931,2,N,9.0
NS9,63.0,35.0,45.0,57.0,46.0,46,3227.0,square4,f,0.0222,3,N,9.0
NS9,64.0,37.0,41.0,53.0,44.0,37,3264.0,square1,j,0.3504,0,N,9.0
NS9,65.0,34.0,41.0,50.0,49.0,41,3305.0,square2,i,0.0704,1,N,9.0
NS9,66.0,38.0,43.0,46.0,53.0,46,3351.0,square3,r,0.1674,2,N,9.0
NS9,67.0,36.0,35.0,51.0,54.0,54,3405.0,square4,f,0.3127,3,N,9.0
NS9,68.0,43.0,38.0,48.0,57.0,57,3462.0,square4,f,0.1018,3,N,9.0
NS9,69.0,42.0,42.0,48.0,49.0,49,3511.0,square4,f,0.2008,3,N,9.0
NS9,70.0,45.0,40.0,50.0,51.0,50,3561.0,square3,r,0.1845,2,N,9.0
NS9,71.0,49.0,42.0,48.0,52.0,48,3609.0,square3,r,0.156,2,N,9.0
NS9,72.0,39.0,44.0,47.0,58.0,58,3667.0,square4,f,0.1776,3,N,9.0
NS9,73.0,40.0,45.0,45.0,62.0,62,3729.0,square4,f,0.1589,3,N,9.0
NS9,74.0,46.0,48.0,47.0,56.0,56,3785.0,square4,f,0.2384,3,N,9.0
NS9,75.0,35.0,39.0,53.0,65.0,65,3850.0,square4,f,0.1885,3,N,9.0
NS9,76.0,40.0,45.0,56.0,67.0,67,3917.0,square4,f,0.2782,3,N,9.0
NS9,77.0,38.0,46.0,54.0,69.0,38,3955.0,square1,j,0.0569,0,N,9.0
NS9,78.0,37.0,42.0,53.0,69.0,69,4024.0,square4,f,0.0504,3,N,9.0
NS9,79.0,40.0,44.0,53.0,70.0,44,4068.0,square2,i,0.1502,1,N,9.0
NS9,80.0,37.0,50.0,55.0,70.0,70,4138.0,square4,f,0.3006,3,N,9.0
NS9,81.0,33.0,54.0,54.0,63.0,54,4192.0,square3,r,0.0854,2,N,9.0
NS9,82.0,35.0,55.0,52.0,74.0,74,4266.0,square4,f,0.0249,3,N,9.0
NS9,83.0,34.0,48.0,56.0,75.0,75,4341.0,square4,f,0.1075,3,N,9.0
NS9,84.0,39.0,51.0,62.0,78.0,78,4419.0,square4,f,0.6115,3,N,9.0
NS9,85.0,38.0,57.0,55.0,77.0,77,4496.0,square4,f,0.0595,3,N,9.0
NS9,86.0,34.0,53.0,57.0,68.0,68,4564.0,square4,f,0.0673,3,N,9.0
NS9,87.0,35.0,48.0,55.0,69.0,69,4633.0,square4,f,0.0737,3,N,9.0
NS9,88.0,41.0,48.0,50.0,69.0,69,4702.0,square4,f,0.1846,3,N,9.0
NS9,89.0,38.0,54.0,55.0,70.0,70,4772.0,square4,f,0.2837,3,N,9.0
NS9,90.0,43.0,55.0,49.0,71.0,71,4843.0,square4,f,0.2563,3,N,9.0
NS9,91.0,41.0,46.0,54.0,78.0,78,4921.0,square4,f,0.2342,3,N,9.0
NS9,92.0,40.0,42.0,41.0,72.0,72,4993.0,square4,f,0.0395,3,N,9.0
NS9,93.0,39.0,43.0,47.0,70.0,70,5063.0,square4,f,0.1675,3,N,9.0
NS9,94.0,36.0,47.0,43.0,80.0,43,5106.0,square3,r,0.0841,2,N,9.0
NS9,95.0,37.0,46.0,43.0,75.0,75,5181.0,square4,f,0.4336,3,N,9.0
NS9,96.0,39.0,47.0,47.0,75.0,75,5256.0,square4,f,0.2943,3,N,9.0
NS9,97.0,35.0,41.0,49.0,80.0,80,5336.0,square4,f,0.2376,3,N,9.0
NS9,98.0,33.0,45.0,56.0,74.0,74,5410.0,square4,f,0.2505,3,N,9.0
NS9,99.0,34.0,42.0,58.0,74.0,74,5484.0,square4,f,0.2598,3,N,9.0
NS8,0.0,61.0,62.0,34.0,32.0,62,62.0,square2,r,0.7105,1,N,8.0
NS8,1.0,57.0,56.0,38.0,27.0,57,119.0,square1,i,0.0013,0,N,8.0
NS8,2.0,66.0,55.0,42.0,28.0,28,147.0,square4,j,0.4125,3,N,8.0
NS8,3.0,67.0,51.0,37.0,28.0,37,184.0,square3,f,0.3953,2,N,8.0
NS8,4.0,65.0,53.0,38.0,32.0,53,237.0,square2,r,0.3148,1,N,8.0
NS8,5.0,67.0,52.0,43.0,33.0,52,289.0,square2,r,0.2115,1,N,8.0
NS8,6.0,56.0,47.0,41.0,36.0,47,336.0,square2,r,0.2185,1,N,8.0
NS8,7.0,58.0,46.0,37.0,31.0,58,394.0,square1,i,0.3188,0,N,8.0
NS8,8.0,60.0,58.0,36.0,35.0,60,454.0,square1,i,0.2469,0,N,8.0
NS8,9.0,60.0,66.0,41.0,39.0,60,514.0,square1,i,0.1965,0,N,8.0
NS8,10.0,60.0,60.0,36.0,33.0,60,574.0,square1,i,0.2464,0,N,8.0
NS8,11.0,53.0,63.0,32.0,35.0,53,627.0,square1,i,0.3001,0,N,8.0
NS8,12.0,51.0,60.0,32.0,29.0,51,678.0,square1,i,0.3506,0,N,8.0
NS8,13.0,53.0,65.0,30.0,32.0,30,708.0,square3,f,0.017,2,N,8.0
NS8,14.0,56.0,69.0,25.0,33.0,69,777.0,square2,r,0.2508,1,N,8.0
NS8,15.0,57.0,71.0,29.0,35.0,57,834.0,square1,i,0.2346,0,N,8.0
NS8,16.0,55.0,64.0,31.0,33.0,64,898.0,square2,r,0.2673,1,N,8.0
NS8,17.0,48.0,65.0,29.0,32.0,65,963.0,square2,r,0.2667,1,N,8.0
NS8,18.0,44.0,64.0,28.0,34.0,64,1027.0,square2,r,0.1672,1,N,8.0
NS8,19.0,46.0,60.0,26.0,33.0,60,1087.0,square2,r,0.417,1,N,8.0
NS8,20.0,41.0,58.0,29.0,35.0,41,1128.0,square1,i,0.3176,0,N,8.0
NS8,21.0,45.0,57.0,29.0,35.0,57,1185.0,square2,r,0.3175,1,N,8.0
NS8,22.0,47.0,53.0,32.0,32.0,32,1217.0,square4,j,0.3177,3,N,8.0
NS8,23.0,49.0,52.0,33.0,35.0,52,1269.0,square2,r,0.3005,1,N,8.0
NS8,24.0,56.0,53.0,30.0,37.0,30,1299.0,square3,f,0.2012,2,N,8.0
NS8,25.0,57.0,48.0,28.0,42.0,48,1347.0,square2,r,0.2001,1,N,8.0
NS8,26.0,52.0,48.0,33.0,43.0,48,1395.0,square2,r,0.117,1,N,8.0
NS8,27.0,53.0,45.0,28.0,47.0,45,1440.0,square2,r,0.1667,1,N,8.0
NS8,28.0,50.0,43.0,27.0,41.0,50,1490.0,square1,i,0.1671,0,N,8.0
NS8,29.0,53.0,52.0,29.0,43.0,53,1543.0,square1,i,0.4838,0,N,8.0
NS8,30.0,54.0,51.0,30.0,41.0,54,1597.0,square1,i,0.2516,0,N,8.0
NS8,31.0,50.0,50.0,31.0,42.0,50,1647.0,square1,i,0.2011,0,N,8.0
NS8,32.0,50.0,50.0,35.0,43.0,50,1697.0,square2,r,0.0013,1,N,8.0
NS8,33.0,46.0,48.0,39.0,41.0,46,1743.0,square1,i,0.3511,0,N,8.0
NS8,34.0,47.0,46.0,41.0,40.0,46,1789.0,square2,r,0.2674,1,N,8.0
NS8,35.0,57.0,45.0,36.0,37.0,57,1846.0,square1,i,0.2851,0,N,8.0
NS8,36.0,53.0,49.0,41.0,38.0,53,1899.0,square1,i,0.3346,0,N,8.0
NS8,37.0,57.0,50.0,41.0,39.0,41,1940.0,square3,f,0.2677,2,N,8.0
NS8,38.0,61.0,51.0,39.0,43.0,61,2001.0,square1,i,0.3175,0,N,8.0
NS8,39.0,59.0,54.0,41.0,36.0,36,2037.0,square4,j,0.1837,3,N,8.0
NS8,40.0,53.0,55.0,47.0,40.0,53,2090.0,square1,i,0.3171,0,N,8.0
NS8,41.0,53.0,55.0,43.0,39.0,55,2145.0,square2,r,0.2835,1,N,8.0
NS8,42.0,59.0,55.0,45.0,40.0,59,2204.0,square1,i,0.1511,0,N,8.0
NS8,43.0,54.0,46.0,51.0,37.0,54,2258.0,square1,i,0.2675,0,N,8.0
NS8,44.0,56.0,44.0,50.0,35.0,44,2302.0,square2,r,0.1501,1,N,8.0
NS8,45.0,51.0,46.0,41.0,37.0,51,2353.0,square1,i,0.0011,0,N,8.0
NS8,46.0,52.0,43.0,44.0,34.0,52,2405.0,square1,i,0.2013,0,N,8.0
NS8,47.0,46.0,41.0,36.0,37.0,37,2442.0,square4,j,0.5168,3,N,8.0
NS8,48.0,47.0,46.0,39.0,37.0,47,2489.0,square1,i,0.1348,0,N,8.0
NS8,49.0,48.0,36.0,38.0,40.0,48,2537.0,square1,i,0.2513,0,N,8.0
NS8,50.0,51.0,37.0,36.0,46.0,37,2574.0,square2,r,0.1339,1,N,8.0
NS8,51.0,53.0,38.0,40.0,43.0,40,2614.0,square3,f,0.2667,2,N,8.0
NS8,52.0,47.0,32.0,37.0,44.0,47,2661.0,square1,i,0.2341,0,N,8.0
NS8,53.0,52.0,31.0,38.0,46.0,52,2713.0,square1,i,0.2507,0,N,8.0
NS8,54.0,44.0,34.0,40.0,45.0,44,2757.0,square1,i,0.3336,0,N,8.0
NS8,55.0,46.0,26.0,37.0,41.0,46,2803.0,square1,i,0.2506,0,N,8.0
NS8,56.0,42.0,29.0,36.0,40.0,42,2845.0,square1,i,0.2837,0,N,8.0
NS8,57.0,39.0,21.0,39.0,40.0,21,2866.0,square2,r,0.3016,1,N,8.0
NS8,58.0,42.0,18.0,39.0,40.0,42,2908.0,square1,i,0.4013,0,N,8.0
NS8,59.0,46.0,16.0,41.0,39.0,46,2954.0,square1,i,0.3182,0,N,8.0
NS8,60.0,45.0,20.0,40.0,39.0,40,2994.0,square3,f,0.3174,2,N,8.0
NS8,61.0,45.0,26.0,42.0,39.0,45,3039.0,square1,i,0.301,0,N,8.0
NS8,62.0,46.0,21.0,45.0,37.0,46,3085.0,square1,i,0.1508,0,N,8.0
NS8,63.0,50.0,23.0,40.0,38.0,38,3123.0,square4,j,0.2339,3,N,8.0
NS8,64.0,46.0,24.0,41.0,33.0,46,3169.0,square1,i,0.2336,0,N,8.0
NS8,65.0,48.0,28.0,42.0,32.0,48,3217.0,square1,i,0.234,0,N,8.0
NS8,66.0,47.0,20.0,40.0,35.0,47,3264.0,square1,i,0.334,0,N,8.0
NS8,67.0,49.0,25.0,46.0,34.0,49,3313.0,square1,i,0.2841,0,N,8.0
NS8,68.0,47.0,24.0,45.0,33.0,45,3358.0,square3,f,0.2005,2,N,8.0
NS8,69.0,45.0,21.0,47.0,35.0,21,3379.0,square2,r,0.0676,1,N,8.0
NS8,70.0,44.0,21.0,47.0,37.0,44,3423.0,square1,i,0.2175,0,N,8.0
NS8,71.0,44.0,15.0,41.0,38.0,41,3464.0,square3,f,0.2681,2,N,8.0
NS8,72.0,47.0,19.0,49.0,40.0,47,3511.0,square1,i,0.0506,0,N,8.0
NS8,73.0,39.0,21.0,53.0,38.0,39,3550.0,square1,i,0.3342,0,N,8.0
NS8,74.0,42.0,19.0,53.0,35.0,53,3603.0,square3,f,0.0343,2,N,8.0
NS8,75.0,37.0,18.0,43.0,35.0,43,3646.0,square3,f,0.1181,2,N,8.0
NS8,76.0,35.0,14.0,42.0,38.0,42,3688.0,square3,f,0.1841,2,N,8.0
NS8,77.0,38.0,19.0,47.0,44.0,47,3735.0,square3,f,0.2343,2,N,8.0
NS8,78.0,38.0,18.0,50.0,46.0,18,3753.0,square2,r,0.3177,1,N,8.0
NS8,79.0,33.0,22.0,54.0,44.0,54,3807.0,square3,f,0.3008,2,N,8.0
NS8,80.0,38.0,21.0,56.0,52.0,52,3859.0,square4,j,0.1666,3,N,8.0
NS8,81.0,37.0,22.0,56.0,43.0,56,3915.0,square3,f,0.1509,2,N,8.0
NS8,82.0,30.0,26.0,60.0,42.0,60,3975.0,square3,f,0.1163,2,N,8.0
NS8,83.0,38.0,22.0,54.0,46.0,54,4029.0,square3,f,0.0512,2,N,8.0
NS8,84.0,33.0,18.0,52.0,46.0,52,4081.0,square3,f,0.233,2,N,8.0
NS8,85.0,42.0,12.0,57.0,48.0,57,4138.0,square3,f,0.0679,2,N,8.0
NS8,86.0,45.0,19.0,58.0,42.0,58,4196.0,square3,f,0.1846,2,N,8.0
NS8,87.0,46.0,10.0,65.0,44.0,65,4261.0,square3,f,0.1677,2,N,8.0
NS8,88.0,45.0,11.0,59.0,45.0,45,4306.0,square4,j,0.1677,3,N,8.0
NS8,89.0,42.0,11.0,60.0,47.0,60,4366.0,square3,f,0.3841,2,N,8.0
NS8,90.0,40.0,7.0,64.0,49.0,40,4406.0,square1,i,0.5185,0,N,8.0
NS8,91.0,42.0,11.0,64.0,48.0,64,4470.0,square3,f,0.1342,2,N,8.0
NS8,92.0,43.0,13.0,60.0,43.0,60,4530.0,square3,f,0.1678,2,N,8.0
NS8,93.0,44.0,12.0,64.0,45.0,64,4594.0,square3,f,0.1682,2,N,8.0
NS8,94.0,45.0,16.0,65.0,49.0,65,4659.0,square3,f,0.2679,2,N,8.0
NS8,95.0,45.0,24.0,66.0,42.0,66,4725.0,square3,f,0.3335,2,N,8.0
NS8,96.0,53.0,27.0,67.0,44.0,67,4792.0,square3,f,0.1841,2,N,8.0
NS8,97.0,50.0,29.0,68.0,43.0,68,4860.0,square3,f,0.2171,2,N,8.0
NS8,98.0,52.0,29.0,66.0,37.0,66,4926.0,square3,f,0.2675,2,N,8.0
NS8,99.0,53.0,32.0,65.0,37.0,65,4991.0,square3,f,0.1346,2,N,8.0
