block,Trial,square1,square2,square3,square4,currPoints,totalPoints,square,choiceKey.keys,choiceKey.rt,armNum,blockType,blockNum
prac,0.0,100.0,0.0,0.0,0.0,99999,0.0,invalid,,,-1,p,0.0
prac,1.0,100.0,0.0,0.0,0.0,100,100.0,square1,,,0,p,0.0
prac,2.0,100.0,0.0,0.0,0.0,0,100.0,square2,,,1,p,0.0
prac,3.0,100.0,0.0,0.0,0.0,100,200.0,square1,,,0,p,0.0
prac,4.0,100.0,0.0,0.0,0.0,100,300.0,square1,,,0,p,0.0
prac,5.0,100.0,0.0,0.0,0.0,0,300.0,square4,,,3,p,0.0
prac,6.0,100.0,0.0,0.0,0.0,0,300.0,square3,,,2,p,0.0
prac,7.0,100.0,0.0,0.0,0.0,100,400.0,square1,,,0,p,0.0
prac,8.0,100.0,0.0,0.0,0.0,100,500.0,square1,,,0,p,0.0
prac,9.0,100.0,0.0,0.0,0.0,100,600.0,square1,,,0,p,0.0
S10,0.0,72.0,76.0,80.0,64.0,76,76.0,square2,r,0.9782,1,S,10.0
S10,1.0,76.0,75.0,74.0,65.0,74,150.0,square3,j,0.4044,2,S,10.0
S10,2.0,70.0,72.0,79.0,74.0,74,224.0,square4,i,0.4177,3,S,10.0
S10,3.0,69.0,77.0,76.0,68.0,69,293.0,square1,f,0.2235,0,S,10.0
S10,4.0,72.0,79.0,77.0,70.0,79,372.0,square2,r,0.1877,1,S,10.0
S10,5.0,68.0,74.0,72.0,64.0,74,446.0,square2,r,0.237,1,S,10.0
S10,6.0,70.0,77.0,72.0,62.0,77,523.0,square2,r,0.3529,1,S,10.0
S10,7.0,78.0,81.0,80.0,74.0,81,604.0,square2,r,0.2421,1,S,10.0
S10,8.0,78.0,78.0,82.0,66.0,78,682.0,square2,r,0.2768,1,S,10.0
S10,9.0,69.0,76.0,77.0,65.0,76,758.0,square2,r,0.2927,1,S,10.0
S10,10.0,72.0,78.0,72.0,75.0,72,830.0,square3,j,0.1663,2,S,10.0
S10,11.0,71.0,76.0,78.0,66.0,66,896.0,square4,i,0.0594,3,S,10.0
S10,12.0,73.0,83.0,79.0,69.0,73,969.0,square1,f,0.0205,0,S,10.0
S10,13.0,68.0,77.0,65.0,65.0,68,1037.0,square1,f,0.351,0,S,10.0
S10,14.0,69.0,84.0,79.0,65.0,84,1121.0,square2,r,0.1735,1,S,10.0
S10,15.0,72.0,84.0,70.0,71.0,84,1205.0,square2,r,0.1887,1,S,10.0
S10,16.0,79.0,80.0,82.0,67.0,80,1285.0,square2,r,0.1745,1,S,10.0
S10,17.0,69.0,83.0,75.0,70.0,83,1368.0,square2,r,0.0971,1,S,10.0
S10,18.0,69.0,75.0,69.0,68.0,75,1443.0,square2,r,0.0065,1,S,10.0
S10,19.0,70.0,83.0,73.0,66.0,83,1526.0,square2,r,0.2198,1,S,10.0
S10,20.0,69.0,83.0,75.0,66.0,83,1609.0,square2,r,0.1592,1,S,10.0
S10,21.0,77.0,70.0,75.0,70.0,75,1684.0,square3,j,0.1206,2,S,10.0
S10,22.0,73.0,77.0,81.0,69.0,77,1761.0,square2,r,0.0005,1,S,10.0
S10,23.0,73.0,78.0,70.0,65.0,70,1831.0,square3,j,0.0997,2,S,10.0
S10,24.0,70.0,80.0,75.0,66.0,80,1911.0,square2,r,0.0069,1,S,10.0
S10,25.0,70.0,80.0,73.0,72.0,70,1981.0,square1,f,0.49,0,S,10.0
S10,26.0,73.0,75.0,73.0,75.0,75,2056.0,square2,r,0.0993,1,S,10.0
S10,27.0,77.0,81.0,83.0,66.0,66,2122.0,square4,i,0.0247,3,S,10.0
S10,28.0,73.0,79.0,79.0,73.0,79,2201.0,square2,r,0.54,1,S,10.0
S10,29.0,73.0,79.0,72.0,69.0,79,2280.0,square2,r,0.2349,1,S,10.0
S10,30.0,71.0,85.0,79.0,69.0,85,2365.0,square2,r,0.2014,1,S,10.0
S10,31.0,71.0,85.0,83.0,66.0,85,2450.0,square2,r,0.1409,1,S,10.0
S10,32.0,78.0,79.0,77.0,65.0,79,2529.0,square2,r,0.2332,1,S,10.0
S10,33.0,83.0,79.0,72.0,68.0,79,2608.0,square2,r,0.2161,1,S,10.0
S10,34.0,68.0,74.0,79.0,72.0,74,2682.0,square2,r,0.2018,1,S,10.0
S10,35.0,70.0,83.0,79.0,67.0,83,2765.0,square2,r,0.1432,1,S,10.0
S10,36.0,67.0,76.0,75.0,72.0,76,2841.0,square2,r,0.0681,1,S,10.0
S10,37.0,76.0,82.0,79.0,60.0,82,2923.0,square2,r,0.1046,1,S,10.0
S10,38.0,72.0,75.0,69.0,68.0,75,2998.0,square2,r,0.0844,1,S,10.0
S10,39.0,73.0,78.0,76.0,70.0,78,3076.0,square2,r,0.1236,1,S,10.0
S10,40.0,76.0,77.0,66.0,60.0,66,3142.0,square3,j,0.1799,2,S,10.0
S10,41.0,74.0,83.0,73.0,67.0,74,3216.0,square1,f,0.1824,0,S,10.0
S10,42.0,72.0,69.0,80.0,63.0,69,3285.0,square2,r,0.2201,1,S,10.0
S10,43.0,69.0,74.0,72.0,68.0,69,3354.0,square1,f,0.1632,0,S,10.0
S10,44.0,67.0,76.0,70.0,65.0,76,3430.0,square2,r,0.039,1,S,10.0
S10,45.0,76.0,81.0,74.0,72.0,81,3511.0,square2,r,0.1898,1,S,10.0
S10,46.0,76.0,79.0,76.0,66.0,79,3590.0,square2,r,0.1203,1,S,10.0
S10,47.0,67.0,81.0,84.0,60.0,81,3671.0,square2,r,0.2195,1,S,10.0
S10,48.0,73.0,83.0,75.0,66.0,83,3754.0,square2,r,0.0005,1,S,10.0
S10,49.0,66.0,77.0,74.0,71.0,77,3831.0,square2,r,0.1644,1,S,10.0
S12,0.0,38.0,42.0,30.0,42.0,38,38.0,square1,r,0.7001,0,S,12.0
S12,1.0,30.0,42.0,28.0,37.0,30,68.0,square1,r,0.3008,0,S,12.0
S12,2.0,34.0,41.0,38.0,43.0,41,109.0,square2,j,0.2336,1,S,12.0
S12,3.0,38.0,51.0,38.0,38.0,38,147.0,square3,i,0.2496,2,S,12.0
S12,4.0,32.0,37.0,33.0,45.0,45,192.0,square4,f,0.2164,3,S,12.0
S12,5.0,38.0,52.0,36.0,35.0,52,244.0,square2,j,0.2405,1,S,12.0
S12,6.0,30.0,43.0,30.0,38.0,38,282.0,square4,f,0.2367,3,S,12.0
S12,7.0,38.0,39.0,30.0,39.0,39,321.0,square4,f,0.2569,3,S,12.0
S12,8.0,37.0,49.0,35.0,38.0,49,370.0,square2,j,0.0961,1,S,12.0
S12,9.0,37.0,44.0,29.0,38.0,29,399.0,square3,i,0.1664,2,S,12.0
S12,10.0,35.0,42.0,30.0,45.0,42,441.0,square2,j,0.0834,1,S,12.0
S12,11.0,34.0,45.0,36.0,32.0,45,486.0,square2,j,0.1897,1,S,12.0
S12,12.0,33.0,45.0,35.0,42.0,45,531.0,square2,j,0.1111,1,S,12.0
S12,13.0,36.0,36.0,29.0,40.0,36,567.0,square2,j,0.126,1,S,12.0
S12,14.0,36.0,49.0,32.0,42.0,32,599.0,square3,i,0.2624,2,S,12.0
S12,15.0,35.0,43.0,35.0,46.0,35,634.0,square3,i,0.2002,2,S,12.0
S12,16.0,39.0,48.0,41.0,43.0,41,675.0,square3,i,0.0334,2,S,12.0
S12,17.0,35.0,47.0,27.0,38.0,27,702.0,square3,i,0.058,2,S,12.0
S12,18.0,37.0,51.0,33.0,33.0,33,735.0,square4,f,0.0672,3,S,12.0
S12,19.0,41.0,42.0,33.0,36.0,36,771.0,square4,f,0.0669,3,S,12.0
S12,20.0,34.0,44.0,26.0,41.0,41,812.0,square4,f,0.0617,3,S,12.0
S12,21.0,35.0,37.0,29.0,35.0,35,847.0,square4,f,0.167,3,S,12.0
S12,22.0,37.0,48.0,31.0,41.0,48,895.0,square2,j,0.1335,1,S,12.0
S12,23.0,36.0,43.0,27.0,45.0,43,938.0,square2,j,0.2668,1,S,12.0
S12,24.0,39.0,48.0,38.0,38.0,48,986.0,square2,j,0.134,1,S,12.0
S12,25.0,31.0,43.0,30.0,40.0,43,1029.0,square2,j,0.1533,1,S,12.0
S12,26.0,35.0,48.0,34.0,33.0,48,1077.0,square2,j,0.1501,1,S,12.0
S12,27.0,46.0,46.0,28.0,38.0,46,1123.0,square2,j,0.036,1,S,12.0
S12,28.0,32.0,37.0,32.0,40.0,37,1160.0,square2,j,0.0332,1,S,12.0
S12,29.0,38.0,41.0,32.0,44.0,41,1201.0,square2,j,0.434,1,S,12.0
S12,30.0,32.0,48.0,29.0,42.0,32,1233.0,square1,r,0.1369,0,S,12.0
S12,31.0,34.0,46.0,30.0,42.0,34,1267.0,square1,r,0.2577,0,S,12.0
S12,32.0,39.0,43.0,41.0,40.0,39,1306.0,square1,r,0.1676,0,S,12.0
S12,33.0,36.0,47.0,33.0,46.0,36,1342.0,square1,r,0.2333,0,S,12.0
S12,34.0,36.0,41.0,34.0,41.0,36,1378.0,square1,r,0.1737,0,S,12.0
S12,35.0,34.0,42.0,31.0,43.0,42,1420.0,square2,j,0.1335,1,S,12.0
S12,36.0,39.0,43.0,26.0,33.0,43,1463.0,square2,j,0.2864,1,S,12.0
S12,37.0,39.0,49.0,30.0,42.0,42,1505.0,square4,f,0.0908,3,S,12.0
S12,38.0,33.0,47.0,36.0,41.0,41,1546.0,square4,f,0.0337,3,S,12.0
S12,39.0,29.0,46.0,35.0,36.0,36,1582.0,square4,f,0.1666,3,S,12.0
S12,40.0,39.0,39.0,29.0,36.0,39,1621.0,square2,j,0.1996,1,S,12.0
S12,41.0,33.0,44.0,31.0,40.0,44,1665.0,square2,j,0.2334,1,S,12.0
S12,42.0,34.0,46.0,25.0,37.0,46,1711.0,square2,j,0.1836,1,S,12.0
S12,43.0,37.0,42.0,30.0,42.0,42,1753.0,square2,j,0.0928,1,S,12.0
S12,44.0,33.0,49.0,36.0,39.0,49,1802.0,square2,j,0.1564,1,S,12.0
S12,45.0,35.0,40.0,30.0,47.0,40,1842.0,square2,j,0.1895,1,S,12.0
S12,46.0,40.0,41.0,29.0,35.0,29,1871.0,square3,i,0.1696,2,S,12.0
S12,47.0,32.0,42.0,28.0,43.0,43,1914.0,square4,f,0.0664,3,S,12.0
S12,48.0,43.0,47.0,31.0,38.0,38,1952.0,square4,f,0.1947,3,S,12.0
S12,49.0,37.0,41.0,35.0,40.0,41,1993.0,square2,j,0.1666,1,S,12.0
S2,0.0,62.0,57.0,71.0,74.0,71,71.0,square3,r,0.4433,2,S,2.0
S2,1.0,64.0,59.0,72.0,67.0,72,143.0,square3,r,0.0322,2,S,2.0
S2,2.0,68.0,57.0,75.0,68.0,75,218.0,square3,r,0.1213,2,S,2.0
S2,3.0,69.0,57.0,80.0,70.0,57,275.0,square2,i,0.2321,1,S,2.0
S2,4.0,66.0,60.0,74.0,68.0,68,343.0,square4,j,0.2082,3,S,2.0
S2,5.0,63.0,62.0,77.0,72.0,72,415.0,square4,j,0.2303,3,S,2.0
S2,6.0,69.0,61.0,75.0,74.0,74,489.0,square4,j,0.2191,3,S,2.0
S2,7.0,74.0,66.0,79.0,72.0,72,561.0,square4,j,0.2357,3,S,2.0
S2,8.0,81.0,65.0,76.0,72.0,72,633.0,square4,j,0.1096,3,S,2.0
S2,9.0,70.0,66.0,78.0,70.0,70,703.0,square4,j,0.1468,3,S,2.0
S2,10.0,70.0,72.0,70.0,74.0,70,773.0,square3,r,0.164,2,S,2.0
S2,11.0,64.0,66.0,72.0,67.0,72,845.0,square3,r,0.1472,2,S,2.0
S2,12.0,66.0,57.0,70.0,67.0,70,915.0,square3,r,0.1146,2,S,2.0
S2,13.0,68.0,68.0,71.0,73.0,71,986.0,square3,r,0.0733,2,S,2.0
S2,14.0,70.0,63.0,77.0,71.0,70,1056.0,square1,f,0.0468,0,S,2.0
S2,15.0,64.0,66.0,75.0,66.0,64,1120.0,square1,f,0.2151,0,S,2.0
S2,16.0,67.0,61.0,73.0,70.0,73,1193.0,square3,r,0.0859,2,S,2.0
S2,17.0,65.0,58.0,71.0,75.0,75,1268.0,square4,j,0.0664,3,S,2.0
S2,18.0,72.0,64.0,81.0,61.0,81,1349.0,square3,r,0.0475,2,S,2.0
S2,19.0,60.0,63.0,72.0,65.0,65,1414.0,square4,j,0.1306,3,S,2.0
S2,20.0,68.0,56.0,71.0,70.0,71,1485.0,square3,r,0.1397,2,S,2.0
S2,21.0,65.0,65.0,74.0,71.0,74,1559.0,square3,r,0.1223,2,S,2.0
S2,22.0,69.0,62.0,77.0,72.0,77,1636.0,square3,r,0.4517,2,S,2.0
S2,23.0,64.0,71.0,74.0,65.0,74,1710.0,square3,r,0.1502,2,S,2.0
S2,24.0,66.0,62.0,78.0,70.0,78,1788.0,square3,r,0.0932,2,S,2.0
S2,25.0,67.0,69.0,76.0,66.0,76,1864.0,square3,r,0.1887,2,S,2.0
S2,26.0,65.0,63.0,74.0,69.0,74,1938.0,square3,r,0.02,2,S,2.0
S2,27.0,68.0,64.0,67.0,68.0,67,2005.0,square3,r,0.2328,2,S,2.0
S2,28.0,61.0,52.0,71.0,68.0,71,2076.0,square3,r,0.1509,2,S,2.0
S2,29.0,67.0,64.0,73.0,69.0,69,2145.0,square4,j,0.2009,3,S,2.0
S2,30.0,67.0,53.0,77.0,67.0,53,2198.0,square2,i,0.2648,1,S,2.0
S2,31.0,67.0,69.0,69.0,68.0,68,2266.0,square4,j,0.2326,3,S,2.0
S2,32.0,71.0,63.0,73.0,70.0,70,2336.0,square4,j,0.068,3,S,2.0
S2,33.0,61.0,65.0,68.0,71.0,71,2407.0,square4,j,0.177,3,S,2.0
S2,34.0,66.0,55.0,78.0,68.0,68,2475.0,square4,j,0.0568,3,S,2.0
S2,35.0,60.0,57.0,66.0,66.0,66,2541.0,square3,r,0.242,2,S,2.0
S2,36.0,64.0,63.0,73.0,72.0,73,2614.0,square3,r,0.0814,2,S,2.0
S2,37.0,65.0,62.0,75.0,68.0,75,2689.0,square3,r,0.1256,2,S,2.0
S2,38.0,69.0,57.0,71.0,62.0,71,2760.0,square3,r,0.318,2,S,2.0
S2,39.0,72.0,66.0,74.0,74.0,74,2834.0,square3,r,0.166,2,S,2.0
S2,40.0,66.0,63.0,76.0,59.0,76,2910.0,square3,r,0.1568,2,S,2.0
S2,41.0,74.0,64.0,67.0,76.0,67,2977.0,square3,r,0.2322,2,S,2.0
S2,42.0,62.0,67.0,72.0,68.0,72,3049.0,square3,r,0.2342,2,S,2.0
S2,43.0,69.0,63.0,75.0,71.0,75,3124.0,square3,r,0.147,2,S,2.0
S2,44.0,72.0,60.0,74.0,67.0,74,3198.0,square3,r,0.1069,2,S,2.0
S2,45.0,69.0,63.0,76.0,73.0,76,3274.0,square3,r,0.1297,2,S,2.0
S2,46.0,64.0,71.0,75.0,72.0,75,3349.0,square3,r,0.1309,2,S,2.0
S2,47.0,75.0,62.0,75.0,69.0,75,3424.0,square3,r,0.151,2,S,2.0
S2,48.0,66.0,65.0,74.0,68.0,74,3498.0,square3,r,0.135,2,S,2.0
S2,49.0,67.0,64.0,72.0,76.0,72,3570.0,square3,r,0.2482,2,S,2.0
S7,0.0,68.0,73.0,62.0,57.0,73,73.0,square2,r,0.6789,1,S,7.0
S7,1.0,74.0,67.0,66.0,59.0,67,140.0,square2,r,0.5228,1,S,7.0
S7,2.0,68.0,69.0,65.0,60.0,69,209.0,square2,r,0.3211,1,S,7.0
S7,3.0,74.0,68.0,65.0,63.0,63,272.0,square4,i,0.2257,3,S,7.0
S7,4.0,68.0,74.0,67.0,63.0,63,335.0,square4,i,0.083,3,S,7.0
S7,5.0,68.0,67.0,61.0,57.0,68,403.0,square1,j,0.2139,0,S,7.0
S7,6.0,72.0,64.0,65.0,51.0,72,475.0,square1,j,0.1067,0,S,7.0
S7,7.0,69.0,63.0,69.0,63.0,69,544.0,square1,j,0.0166,0,S,7.0
S7,8.0,71.0,68.0,63.0,54.0,63,607.0,square3,f,0.1575,2,S,7.0
S7,9.0,81.0,66.0,68.0,62.0,68,675.0,square3,f,0.2277,2,S,7.0
S7,10.0,72.0,73.0,68.0,61.0,68,743.0,square3,f,0.0543,2,S,7.0
S7,11.0,72.0,72.0,62.0,58.0,72,815.0,square2,r,0.0866,1,S,7.0
S7,12.0,66.0,66.0,62.0,61.0,66,881.0,square1,j,0.1861,0,S,7.0
S7,13.0,73.0,75.0,75.0,68.0,73,954.0,square1,j,0.1927,0,S,7.0
S7,14.0,71.0,73.0,72.0,66.0,71,1025.0,square1,j,0.1696,0,S,7.0
S7,15.0,75.0,68.0,68.0,65.0,75,1100.0,square1,j,0.1225,0,S,7.0
S7,16.0,67.0,65.0,62.0,56.0,67,1167.0,square1,j,0.1973,0,S,7.0
S7,17.0,72.0,67.0,63.0,64.0,67,1234.0,square2,r,0.1486,1,S,7.0
S7,18.0,73.0,69.0,66.0,65.0,69,1303.0,square2,r,0.166,1,S,7.0
S7,19.0,75.0,70.0,62.0,58.0,70,1373.0,square2,r,0.0697,1,S,7.0
S7,20.0,76.0,63.0,67.0,62.0,63,1436.0,square2,r,0.2238,1,S,7.0
S7,21.0,79.0,76.0,63.0,64.0,76,1512.0,square2,r,0.1853,1,S,7.0
S7,22.0,67.0,72.0,63.0,62.0,72,1584.0,square2,r,0.1907,1,S,7.0
S7,23.0,69.0,71.0,70.0,62.0,71,1655.0,square2,r,0.1034,1,S,7.0
S7,24.0,74.0,67.0,70.0,62.0,74,1729.0,square1,j,0.1262,0,S,7.0
S7,25.0,70.0,67.0,72.0,62.0,67,1796.0,square2,r,0.0939,1,S,7.0
S7,26.0,72.0,62.0,74.0,65.0,72,1868.0,square1,j,0.1423,0,S,7.0
S7,27.0,69.0,70.0,68.0,62.0,70,1938.0,square2,r,0.0004,1,S,7.0
S7,28.0,65.0,66.0,60.0,62.0,66,2004.0,square2,r,0.1503,1,S,7.0
S7,29.0,70.0,64.0,60.0,68.0,68,2072.0,square4,i,0.1551,3,S,7.0
S7,30.0,69.0,69.0,64.0,57.0,57,2129.0,square4,i,0.0893,3,S,7.0
S7,31.0,77.0,67.0,65.0,60.0,65,2194.0,square3,f,0.1299,2,S,7.0
S7,32.0,67.0,75.0,65.0,58.0,65,2259.0,square3,f,0.0497,2,S,7.0
S7,33.0,74.0,66.0,66.0,60.0,66,2325.0,square3,f,0.1321,2,S,7.0
S7,34.0,72.0,72.0,66.0,61.0,66,2391.0,square3,f,0.1831,2,S,7.0
S7,35.0,67.0,68.0,64.0,62.0,67,2458.0,square1,j,0.1281,0,S,7.0
S7,36.0,64.0,63.0,70.0,58.0,64,2522.0,square1,j,0.2293,0,S,7.0
S7,37.0,80.0,72.0,64.0,53.0,80,2602.0,square1,j,0.1816,0,S,7.0
S7,38.0,78.0,69.0,76.0,67.0,78,2680.0,square1,j,0.2401,0,S,7.0
S7,39.0,69.0,66.0,60.0,67.0,69,2749.0,square1,j,0.1644,0,S,7.0
S7,40.0,72.0,71.0,63.0,66.0,72,2821.0,square1,j,0.0717,0,S,7.0
S7,41.0,80.0,73.0,65.0,63.0,73,2894.0,square2,r,0.4283,1,S,7.0
S7,42.0,77.0,60.0,65.0,59.0,60,2954.0,square2,r,0.0908,1,S,7.0
S7,43.0,70.0,72.0,70.0,63.0,70,3024.0,square1,j,0.0226,0,S,7.0
S7,44.0,77.0,70.0,66.0,58.0,77,3101.0,square1,j,0.1019,0,S,7.0
S7,45.0,75.0,69.0,73.0,58.0,75,3176.0,square1,j,0.2399,0,S,7.0
S7,46.0,74.0,71.0,63.0,63.0,74,3250.0,square1,j,0.092,0,S,7.0
S7,47.0,73.0,75.0,71.0,64.0,73,3323.0,square1,j,0.0769,0,S,7.0
S7,48.0,78.0,79.0,64.0,58.0,78,3401.0,square1,j,0.0549,0,S,7.0
S7,49.0,75.0,72.0,66.0,72.0,72,3473.0,square2,r,0.1154,1,S,7.0
S4,0.0,18.0,16.0,34.0,20.0,20,20.0,square4,r,0.5775,3,S,4.0
S4,1.0,33.0,26.0,26.0,23.0,26,46.0,square3,i,0.0477,2,S,4.0
S4,2.0,35.0,15.0,33.0,22.0,15,61.0,square2,j,0.1382,1,S,4.0
S4,3.0,28.0,19.0,27.0,27.0,28,89.0,square1,f,0.1884,0,S,4.0
S4,4.0,27.0,16.0,25.0,28.0,25,114.0,square3,i,0.1236,2,S,4.0
S4,5.0,23.0,22.0,31.0,24.0,31,145.0,square3,i,0.0905,2,S,4.0
S4,6.0,25.0,20.0,34.0,23.0,34,179.0,square3,i,0.115,2,S,4.0
S4,7.0,21.0,22.0,30.0,21.0,30,209.0,square3,i,0.2205,2,S,4.0
S4,8.0,33.0,24.0,33.0,17.0,33,242.0,square3,i,0.2133,2,S,4.0
S4,9.0,24.0,18.0,31.0,28.0,31,273.0,square3,i,0.1012,2,S,4.0
S4,10.0,31.0,26.0,35.0,20.0,31,304.0,square1,f,0.0987,0,S,4.0
S4,11.0,25.0,15.0,31.0,25.0,25,329.0,square1,f,0.2498,0,S,4.0
S4,12.0,24.0,16.0,29.0,22.0,24,353.0,square1,f,0.0889,0,S,4.0
S4,13.0,28.0,23.0,25.0,17.0,28,381.0,square1,f,0.1322,0,S,4.0
S4,14.0,22.0,23.0,21.0,23.0,22,403.0,square1,f,0.2423,0,S,4.0
S4,15.0,25.0,19.0,28.0,25.0,25,428.0,square4,r,0.2222,3,S,4.0
S4,16.0,26.0,17.0,30.0,21.0,21,449.0,square4,r,0.3679,3,S,4.0
S4,17.0,22.0,21.0,29.0,22.0,22,471.0,square4,r,0.2407,3,S,4.0
S4,18.0,28.0,22.0,32.0,22.0,22,493.0,square4,r,0.0815,3,S,4.0
S4,19.0,26.0,19.0,31.0,26.0,19,512.0,square2,j,0.2412,1,S,4.0
S4,20.0,28.0,18.0,28.0,25.0,18,530.0,square2,j,0.1493,1,S,4.0
S4,21.0,33.0,26.0,21.0,29.0,21,551.0,square3,i,0.2668,2,S,4.0
S4,22.0,31.0,19.0,29.0,20.0,29,580.0,square3,i,0.2324,2,S,4.0
S4,23.0,27.0,21.0,36.0,26.0,36,616.0,square3,i,0.2625,2,S,4.0
S4,24.0,28.0,15.0,32.0,21.0,32,648.0,square3,i,0.2252,2,S,4.0
S4,25.0,27.0,18.0,28.0,25.0,28,676.0,square3,i,0.0184,2,S,4.0
S4,26.0,26.0,20.0,27.0,14.0,27,703.0,square3,i,0.2032,2,S,4.0
S4,27.0,28.0,19.0,36.0,18.0,36,739.0,square3,i,0.0206,2,S,4.0
S4,28.0,28.0,19.0,28.0,23.0,28,767.0,square3,i,0.1996,2,S,4.0
S4,29.0,25.0,22.0,29.0,23.0,25,792.0,square1,f,0.2422,0,S,4.0
S4,30.0,26.0,16.0,30.0,20.0,26,818.0,square1,f,0.2259,0,S,4.0
S4,31.0,23.0,25.0,26.0,30.0,23,841.0,square1,f,0.2046,0,S,4.0
S4,32.0,21.0,26.0,22.0,23.0,21,862.0,square1,f,0.0502,0,S,4.0
S4,33.0,25.0,22.0,24.0,17.0,17,879.0,square4,r,0.1833,3,S,4.0
S4,34.0,30.0,22.0,33.0,24.0,33,912.0,square3,i,0.208,2,S,4.0
S4,35.0,23.0,21.0,35.0,26.0,35,947.0,square3,i,0.1977,2,S,4.0
S4,36.0,19.0,21.0,33.0,24.0,33,980.0,square3,i,0.0293,2,S,4.0
S4,37.0,20.0,17.0,26.0,26.0,26,1006.0,square3,i,0.1241,2,S,4.0
S4,38.0,28.0,20.0,28.0,26.0,28,1034.0,square3,i,0.0996,2,S,4.0
S4,39.0,28.0,23.0,40.0,27.0,40,1074.0,square3,i,0.1604,2,S,4.0
S4,40.0,25.0,24.0,32.0,22.0,32,1106.0,square3,i,0.1947,2,S,4.0
S4,41.0,23.0,23.0,26.0,17.0,26,1132.0,square3,i,0.0488,2,S,4.0
S4,42.0,26.0,18.0,33.0,22.0,33,1165.0,square3,i,0.1303,2,S,4.0
S4,43.0,22.0,21.0,36.0,25.0,36,1201.0,square3,i,0.1964,2,S,4.0
S4,44.0,21.0,18.0,33.0,14.0,33,1234.0,square3,i,0.1153,2,S,4.0
S4,45.0,29.0,19.0,30.0,29.0,30,1264.0,square3,i,0.2335,2,S,4.0
S4,46.0,21.0,16.0,22.0,23.0,22,1286.0,square3,i,0.2374,2,S,4.0
S4,47.0,22.0,18.0,28.0,22.0,28,1314.0,square3,i,0.0605,2,S,4.0
S4,48.0,33.0,21.0,32.0,26.0,32,1346.0,square3,i,0.2088,2,S,4.0
S4,49.0,23.0,17.0,20.0,21.0,20,1366.0,square3,i,0.2429,2,S,4.0
S8,0.0,58.0,60.0,52.0,45.0,52,52.0,square3,r,0.7138,2,S,8.0
S8,1.0,55.0,57.0,56.0,52.0,57,109.0,square2,i,0.1642,1,S,8.0
S8,2.0,54.0,58.0,58.0,49.0,54,163.0,square1,j,0.1675,0,S,8.0
S8,3.0,55.0,62.0,52.0,53.0,53,216.0,square4,f,0.2007,3,S,8.0
S8,4.0,55.0,60.0,49.0,51.0,49,265.0,square3,r,0.082,2,S,8.0
S8,5.0,48.0,63.0,61.0,49.0,49,314.0,square4,f,0.2069,3,S,8.0
S8,6.0,58.0,63.0,59.0,55.0,63,377.0,square2,i,0.0907,1,S,8.0
S8,7.0,56.0,53.0,49.0,51.0,56,433.0,square1,j,0.1982,0,S,8.0
S8,8.0,61.0,63.0,66.0,49.0,66,499.0,square3,r,0.2573,2,S,8.0
S8,9.0,60.0,59.0,53.0,47.0,53,552.0,square3,r,0.1661,2,S,8.0
S8,10.0,55.0,63.0,52.0,55.0,52,604.0,square3,r,0.1998,2,S,8.0
S8,11.0,62.0,60.0,54.0,50.0,54,658.0,square3,r,0.097,2,S,8.0
S8,12.0,58.0,64.0,51.0,52.0,51,709.0,square3,r,0.0258,2,S,8.0
S8,13.0,62.0,59.0,53.0,53.0,53,762.0,square3,r,0.0648,2,S,8.0
S8,14.0,51.0,62.0,61.0,54.0,62,824.0,square2,i,0.1674,1,S,8.0
S8,15.0,56.0,68.0,56.0,50.0,68,892.0,square2,i,0.2232,1,S,8.0
S8,16.0,58.0,64.0,56.0,50.0,64,956.0,square2,i,0.2137,1,S,8.0
S8,17.0,64.0,63.0,60.0,42.0,63,1019.0,square2,i,0.1435,1,S,8.0
S8,18.0,54.0,64.0,57.0,55.0,54,1073.0,square1,j,0.2183,0,S,8.0
S8,19.0,56.0,53.0,57.0,53.0,56,1129.0,square1,j,0.2211,0,S,8.0
S8,20.0,59.0,64.0,56.0,49.0,49,1178.0,square4,f,0.188,3,S,8.0
S8,21.0,54.0,59.0,55.0,48.0,48,1226.0,square4,f,0.2044,3,S,8.0
S8,22.0,63.0,63.0,59.0,49.0,63,1289.0,square2,i,0.1999,1,S,8.0
S8,23.0,59.0,60.0,48.0,52.0,60,1349.0,square2,i,0.0853,1,S,8.0
S8,24.0,55.0,53.0,60.0,50.0,53,1402.0,square2,i,0.1302,1,S,8.0
S8,25.0,57.0,60.0,55.0,54.0,57,1459.0,square1,j,0.2524,0,S,8.0
S8,26.0,62.0,66.0,57.0,58.0,62,1521.0,square1,j,0.182,0,S,8.0
S8,27.0,58.0,55.0,52.0,48.0,58,1579.0,square1,j,0.0194,0,S,8.0
S8,28.0,53.0,59.0,53.0,55.0,53,1632.0,square1,j,0.0987,0,S,8.0
S8,29.0,60.0,58.0,57.0,53.0,60,1692.0,square1,j,0.2317,0,S,8.0
S8,30.0,57.0,67.0,52.0,56.0,57,1749.0,square1,j,0.0717,0,S,8.0
S8,31.0,60.0,58.0,52.0,50.0,52,1801.0,square3,r,0.3677,2,S,8.0
S8,32.0,54.0,61.0,56.0,57.0,56,1857.0,square3,r,0.0661,2,S,8.0
S8,33.0,66.0,64.0,63.0,52.0,63,1920.0,square3,r,0.1156,2,S,8.0
S8,34.0,54.0,65.0,66.0,56.0,66,1986.0,square3,r,0.2044,2,S,8.0
S8,35.0,54.0,62.0,61.0,48.0,61,2047.0,square3,r,0.0068,2,S,8.0
S8,36.0,53.0,63.0,54.0,55.0,54,2101.0,square3,r,0.0401,2,S,8.0
S8,37.0,64.0,58.0,57.0,51.0,58,2159.0,square2,i,0.2187,1,S,8.0
S8,38.0,68.0,65.0,59.0,57.0,65,2224.0,square2,i,0.073,1,S,8.0
S8,39.0,64.0,65.0,51.0,55.0,65,2289.0,square2,i,0.0758,1,S,8.0
S8,40.0,63.0,61.0,57.0,47.0,61,2350.0,square2,i,0.0335,1,S,8.0
S8,41.0,65.0,58.0,55.0,49.0,58,2408.0,square2,i,0.0923,1,S,8.0
S8,42.0,52.0,60.0,51.0,56.0,60,2468.0,square2,i,0.1479,1,S,8.0
S8,43.0,63.0,57.0,48.0,50.0,57,2525.0,square2,i,0.0496,1,S,8.0
S8,44.0,59.0,63.0,53.0,53.0,63,2588.0,square2,i,0.2863,1,S,8.0
S8,45.0,62.0,62.0,60.0,53.0,62,2650.0,square2,i,0.2026,1,S,8.0
S8,46.0,56.0,62.0,57.0,60.0,62,2712.0,square2,i,0.0006,1,S,8.0
S8,47.0,60.0,63.0,58.0,56.0,63,2775.0,square2,i,0.0687,1,S,8.0
S8,48.0,59.0,63.0,49.0,53.0,63,2838.0,square2,i,0.4845,1,S,8.0
S8,49.0,67.0,67.0,59.0,55.0,59,2897.0,square3,r,0.4163,2,S,8.0
V12,0.0,47.0,30.0,38.0,55.0,30,30.0,square2,r,0.4291,1,V,12.0
V12,1.0,46.0,33.0,39.0,57.0,33,63.0,square2,r,0.1493,1,V,12.0
V12,2.0,51.0,29.0,42.0,52.0,29,92.0,square2,r,0.1908,1,V,12.0
V12,3.0,52.0,30.0,38.0,62.0,62,154.0,square4,i,0.2255,3,V,12.0
V12,4.0,48.0,30.0,39.0,62.0,39,193.0,square3,j,0.1836,2,V,12.0
V12,5.0,55.0,34.0,43.0,61.0,55,248.0,square1,f,0.1935,0,V,12.0
V12,6.0,45.0,35.0,42.0,56.0,56,304.0,square4,i,0.2,3,V,12.0
V12,7.0,48.0,29.0,35.0,57.0,48,352.0,square1,f,0.2672,0,V,12.0
V12,8.0,46.0,33.0,38.0,59.0,59,411.0,square4,i,0.0332,3,V,12.0
V12,9.0,44.0,31.0,42.0,56.0,56,467.0,square4,i,0.1163,3,V,12.0
V12,10.0,48.0,34.0,45.0,55.0,55,522.0,square4,i,0.0833,3,V,12.0
V12,11.0,45.0,32.0,41.0,55.0,55,577.0,square4,i,0.0667,3,V,12.0
V12,12.0,52.0,26.0,42.0,57.0,57,634.0,square4,i,0.1672,3,V,12.0
V12,13.0,56.0,31.0,41.0,54.0,56,690.0,square1,f,0.1552,0,V,12.0
V12,14.0,44.0,34.0,40.0,64.0,44,734.0,square1,f,0.0439,0,V,12.0
V12,15.0,48.0,32.0,39.0,61.0,61,795.0,square4,i,0.1699,3,V,12.0
V12,16.0,49.0,33.0,37.0,58.0,58,853.0,square4,i,0.2166,3,V,12.0
V12,17.0,45.0,33.0,43.0,57.0,57,910.0,square4,i,0.075,3,V,12.0
V12,18.0,45.0,28.0,40.0,58.0,58,968.0,square4,i,0.1164,3,V,12.0
V12,19.0,42.0,33.0,43.0,59.0,59,1027.0,square4,i,0.1706,3,V,12.0
V12,20.0,46.0,30.0,38.0,62.0,30,1057.0,square2,r,0.2001,1,V,12.0
V12,21.0,46.0,35.0,40.0,55.0,55,1112.0,square4,i,0.1169,3,V,12.0
V12,22.0,46.0,34.0,36.0,63.0,63,1175.0,square4,i,0.0699,3,V,12.0
V12,23.0,54.0,34.0,42.0,56.0,56,1231.0,square4,i,0.0743,3,V,12.0
V12,24.0,44.0,30.0,41.0,59.0,59,1290.0,square4,i,0.117,3,V,12.0
V12,25.0,49.0,33.0,37.0,64.0,64,1354.0,square4,i,0.1032,3,V,12.0
V12,26.0,52.0,34.0,39.0,57.0,57,1411.0,square4,i,0.1669,3,V,12.0
V12,27.0,50.0,26.0,37.0,55.0,55,1466.0,square4,i,0.1336,3,V,12.0
V12,28.0,41.0,29.0,46.0,21.0,21,1487.0,square4,i,0.1621,3,V,12.0
V12,29.0,41.0,28.0,51.0,20.0,20,1507.0,square4,i,0.2931,3,V,12.0
V12,30.0,32.0,31.0,46.0,22.0,22,1529.0,square4,i,0.0007,3,V,12.0
V12,31.0,38.0,28.0,45.0,22.0,38,1567.0,square1,f,0.3176,0,V,12.0
V12,32.0,35.0,27.0,44.0,16.0,27,1594.0,square2,r,0.0604,1,V,12.0
V12,33.0,39.0,29.0,49.0,21.0,49,1643.0,square3,j,0.2008,2,V,12.0
V12,34.0,39.0,28.0,49.0,15.0,49,1692.0,square3,j,0.1667,2,V,12.0
V12,35.0,36.0,29.0,50.0,17.0,50,1742.0,square3,j,0.0092,2,V,12.0
V12,36.0,41.0,28.0,48.0,12.0,48,1790.0,square3,j,0.1668,2,V,12.0
V12,37.0,34.0,29.0,46.0,25.0,34,1824.0,square1,f,0.0004,0,V,12.0
V12,38.0,38.0,28.0,51.0,19.0,51,1875.0,square3,j,0.1277,2,V,12.0
V12,39.0,39.0,31.0,45.0,13.0,13,1888.0,square4,i,0.1891,3,V,12.0
V12,40.0,35.0,28.0,46.0,26.0,46,1934.0,square3,j,0.084,2,V,12.0
V12,41.0,38.0,27.0,46.0,20.0,46,1980.0,square3,j,0.1092,2,V,12.0
V12,42.0,40.0,26.0,50.0,23.0,50,2030.0,square3,j,0.1943,2,V,12.0
V12,43.0,33.0,30.0,45.0,18.0,45,2075.0,square3,j,0.0957,2,V,12.0
V12,44.0,39.0,31.0,46.0,22.0,46,2121.0,square3,j,0.1419,2,V,12.0
V12,45.0,32.0,26.0,42.0,20.0,42,2163.0,square3,j,0.0006,2,V,12.0
V12,46.0,36.0,29.0,43.0,24.0,43,2206.0,square3,j,0.2105,2,V,12.0
V12,47.0,37.0,30.0,46.0,21.0,46,2252.0,square3,j,0.0618,2,V,12.0
V12,48.0,37.0,27.0,44.0,19.0,44,2296.0,square3,j,0.117,2,V,12.0
V12,49.0,36.0,33.0,55.0,16.0,55,2351.0,square3,j,0.2046,2,V,12.0
V12,50.0,45.0,28.0,44.0,18.0,45,2396.0,square1,f,0.5399,0,V,12.0
V12,51.0,35.0,32.0,49.0,19.0,35,2431.0,square1,f,0.0007,0,V,12.0
V12,52.0,36.0,56.0,31.0,52.0,31,2462.0,square3,j,0.0839,2,V,12.0
V12,53.0,36.0,57.0,29.0,45.0,36,2498.0,square1,f,0.1667,0,V,12.0
V12,54.0,38.0,61.0,28.0,51.0,61,2559.0,square2,r,0.1591,1,V,12.0
V12,55.0,35.0,60.0,29.0,47.0,60,2619.0,square2,r,0.2609,1,V,12.0
V12,56.0,34.0,62.0,29.0,46.0,62,2681.0,square2,r,0.0771,1,V,12.0
V12,57.0,43.0,57.0,32.0,46.0,57,2738.0,square2,r,0.1421,1,V,12.0
V12,58.0,40.0,59.0,32.0,50.0,59,2797.0,square2,r,0.1843,1,V,12.0
V12,59.0,41.0,62.0,33.0,48.0,62,2859.0,square2,r,0.1836,1,V,12.0
V12,60.0,36.0,61.0,32.0,49.0,61,2920.0,square2,r,0.1339,1,V,12.0
V12,61.0,39.0,56.0,32.0,44.0,56,2976.0,square2,r,0.1338,1,V,12.0
V12,62.0,39.0,57.0,30.0,46.0,57,3033.0,square2,r,0.1415,1,V,12.0
V12,63.0,42.0,53.0,29.0,46.0,53,3086.0,square2,r,0.1503,1,V,12.0
V12,64.0,35.0,57.0,32.0,50.0,57,3143.0,square2,r,0.2667,1,V,12.0
V12,65.0,44.0,58.0,32.0,49.0,58,3201.0,square2,r,0.2506,1,V,12.0
V12,66.0,44.0,56.0,29.0,52.0,56,3257.0,square2,r,0.1672,1,V,12.0
V12,67.0,41.0,60.0,30.0,49.0,60,3317.0,square2,r,0.0836,1,V,12.0
V12,68.0,42.0,58.0,32.0,45.0,58,3375.0,square2,r,0.105,1,V,12.0
V12,69.0,36.0,60.0,33.0,50.0,60,3435.0,square2,r,0.3125,1,V,12.0
V12,70.0,36.0,57.0,27.0,46.0,57,3492.0,square2,r,0.1671,1,V,12.0
V12,71.0,41.0,59.0,32.0,48.0,59,3551.0,square2,r,0.0238,1,V,12.0
V12,72.0,34.0,59.0,31.0,49.0,59,3610.0,square2,r,0.0008,1,V,12.0
V12,73.0,71.0,53.0,65.0,49.0,53,3663.0,square2,r,0.0336,1,V,12.0
V12,74.0,69.0,49.0,63.0,45.0,49,3712.0,square2,r,0.2007,1,V,12.0
V12,75.0,72.0,51.0,56.0,46.0,51,3763.0,square2,r,0.2577,1,V,12.0
V12,76.0,72.0,48.0,58.0,43.0,48,3811.0,square2,r,0.084,1,V,12.0
V12,77.0,74.0,57.0,59.0,44.0,57,3868.0,square2,r,0.2289,1,V,12.0
V12,78.0,69.0,55.0,63.0,50.0,55,3923.0,square2,r,0.0739,1,V,12.0
V12,79.0,73.0,53.0,58.0,43.0,53,3976.0,square2,r,0.154,1,V,12.0
V12,80.0,71.0,47.0,65.0,40.0,47,4023.0,square2,r,0.0005,1,V,12.0
V12,81.0,66.0,49.0,57.0,40.0,49,4072.0,square2,r,0.0081,1,V,12.0
V12,82.0,71.0,53.0,57.0,48.0,53,4125.0,square2,r,0.1115,1,V,12.0
V12,83.0,70.0,50.0,56.0,49.0,49,4174.0,square4,i,0.2546,3,V,12.0
V12,84.0,69.0,45.0,64.0,43.0,43,4217.0,square4,i,0.0601,3,V,12.0
V12,85.0,64.0,48.0,54.0,42.0,42,4259.0,square4,i,0.0007,3,V,12.0
V12,86.0,71.0,49.0,63.0,44.0,49,4308.0,square2,r,0.4504,1,V,12.0
V12,87.0,72.0,52.0,55.0,42.0,52,4360.0,square2,r,0.2455,1,V,12.0
V12,88.0,64.0,48.0,59.0,44.0,48,4408.0,square2,r,0.2427,1,V,12.0
V12,89.0,69.0,48.0,62.0,45.0,48,4456.0,square2,r,0.2672,1,V,12.0
V12,90.0,68.0,56.0,60.0,42.0,56,4512.0,square2,r,0.2837,1,V,12.0
V12,91.0,69.0,52.0,62.0,45.0,52,4564.0,square2,r,0.0099,1,V,12.0
V12,92.0,65.0,50.0,64.0,47.0,50,4614.0,square2,r,0.0509,1,V,12.0
V12,93.0,68.0,51.0,62.0,43.0,51,4665.0,square2,r,0.1336,1,V,12.0
V12,94.0,68.0,52.0,60.0,38.0,52,4717.0,square2,r,0.1835,1,V,12.0
V12,95.0,71.0,52.0,58.0,47.0,52,4769.0,square2,r,0.137,1,V,12.0
V12,96.0,66.0,49.0,59.0,44.0,49,4818.0,square2,r,0.0335,1,V,12.0
V12,97.0,74.0,47.0,54.0,47.0,47,4865.0,square2,r,0.1621,1,V,12.0
V12,98.0,68.0,43.0,64.0,41.0,43,4908.0,square2,r,0.0672,1,V,12.0
V12,99.0,71.0,53.0,62.0,44.0,62,4970.0,square3,j,0.7772,2,V,12.0
V10,0.0,28.0,21.0,37.0,46.0,28,28.0,square1,r,1.2132,0,V,10.0
V10,1.0,26.0,19.0,41.0,49.0,19,47.0,square2,i,0.1632,1,V,10.0
V10,2.0,29.0,20.0,43.0,48.0,48,95.0,square4,j,0.1651,3,V,10.0
V10,3.0,27.0,27.0,37.0,44.0,37,132.0,square3,f,0.0991,2,V,10.0
V10,4.0,28.0,16.0,36.0,47.0,47,179.0,square4,j,0.0752,3,V,10.0
V10,5.0,33.0,25.0,42.0,54.0,54,233.0,square4,j,0.1579,3,V,10.0
V10,6.0,28.0,19.0,35.0,45.0,45,278.0,square4,j,0.073,3,V,10.0
V10,7.0,30.0,24.0,35.0,49.0,35,313.0,square3,f,0.131,2,V,10.0
V10,8.0,37.0,29.0,41.0,47.0,37,350.0,square1,r,0.2486,0,V,10.0
V10,9.0,28.0,21.0,41.0,48.0,28,378.0,square1,r,0.0996,0,V,10.0
V10,10.0,27.0,22.0,39.0,42.0,22,400.0,square2,i,0.1074,1,V,10.0
V10,11.0,32.0,16.0,41.0,48.0,48,448.0,square4,j,0.1495,3,V,10.0
V10,12.0,34.0,15.0,33.0,49.0,49,497.0,square4,j,0.0561,3,V,10.0
V10,13.0,36.0,19.0,41.0,45.0,45,542.0,square4,j,0.1247,3,V,10.0
V10,14.0,28.0,23.0,35.0,53.0,53,595.0,square4,j,0.0554,3,V,10.0
V10,15.0,26.0,28.0,40.0,50.0,50,645.0,square4,j,0.1998,3,V,10.0
V10,16.0,30.0,25.0,42.0,47.0,47,692.0,square4,j,0.6006,3,V,10.0
V10,17.0,31.0,19.0,38.0,50.0,50,742.0,square4,j,0.0555,3,V,10.0
V10,18.0,34.0,21.0,35.0,48.0,48,790.0,square4,j,0.1829,3,V,10.0
V10,19.0,31.0,24.0,39.0,46.0,46,836.0,square4,j,0.1641,3,V,10.0
V10,20.0,28.0,22.0,42.0,47.0,47,883.0,square4,j,0.18,3,V,10.0
V10,21.0,24.0,20.0,41.0,47.0,47,930.0,square4,j,0.0344,3,V,10.0
V10,22.0,32.0,22.0,34.0,44.0,44,974.0,square4,j,0.0313,3,V,10.0
V10,23.0,29.0,23.0,37.0,47.0,47,1021.0,square4,j,0.0344,3,V,10.0
V10,24.0,25.0,25.0,38.0,46.0,46,1067.0,square4,j,0.0056,3,V,10.0
V10,25.0,30.0,24.0,41.0,45.0,45,1112.0,square4,j,0.1212,3,V,10.0
V10,26.0,32.0,17.0,38.0,49.0,49,1161.0,square4,j,0.1583,3,V,10.0
V10,27.0,34.0,21.0,38.0,47.0,47,1208.0,square4,j,0.1648,3,V,10.0
V10,28.0,29.0,21.0,37.0,45.0,45,1253.0,square4,j,0.3165,3,V,10.0
V10,29.0,30.0,20.0,31.0,47.0,47,1300.0,square4,j,0.0469,3,V,10.0
V10,30.0,28.0,21.0,35.0,44.0,44,1344.0,square4,j,0.0416,3,V,10.0
V10,31.0,36.0,25.0,14.0,8.0,8,1352.0,square4,j,0.1863,3,V,10.0
V10,32.0,38.0,27.0,19.0,11.0,38,1390.0,square1,r,0.0426,0,V,10.0
V10,33.0,39.0,21.0,20.0,13.0,21,1411.0,square2,i,0.0091,1,V,10.0
V10,34.0,34.0,24.0,20.0,10.0,20,1431.0,square3,f,0.1589,2,V,10.0
V10,35.0,44.0,29.0,17.0,11.0,44,1475.0,square1,r,0.2483,0,V,10.0
V10,36.0,33.0,30.0,17.0,9.0,33,1508.0,square1,r,0.0006,0,V,10.0
V10,37.0,31.0,27.0,12.0,6.0,31,1539.0,square1,r,0.2016,0,V,10.0
V10,38.0,34.0,29.0,15.0,10.0,15,1554.0,square3,f,0.2211,2,V,10.0
V10,39.0,35.0,21.0,19.0,5.0,21,1575.0,square2,i,0.1226,1,V,10.0
V10,40.0,32.0,26.0,18.0,6.0,26,1601.0,square2,i,0.1576,1,V,10.0
V10,41.0,34.0,32.0,13.0,9.0,9,1610.0,square4,j,0.4381,3,V,10.0
V10,42.0,35.0,30.0,16.0,8.0,35,1645.0,square1,r,0.0007,0,V,10.0
V10,43.0,38.0,32.0,16.0,8.0,38,1683.0,square1,r,0.2053,0,V,10.0
V10,44.0,34.0,20.0,18.0,3.0,34,1717.0,square1,r,0.3382,0,V,10.0
V10,45.0,38.0,22.0,23.0,9.0,38,1755.0,square1,r,0.483,0,V,10.0
V10,46.0,36.0,28.0,16.0,10.0,36,1791.0,square1,r,0.2835,0,V,10.0
V10,47.0,36.0,27.0,13.0,8.0,36,1827.0,square1,r,0.3219,0,V,10.0
V10,48.0,35.0,27.0,14.0,12.0,35,1862.0,square1,r,0.0695,0,V,10.0
V10,49.0,33.0,28.0,16.0,10.0,33,1895.0,square1,r,0.615,0,V,10.0
V10,50.0,31.0,29.0,19.0,8.0,31,1926.0,square1,r,0.12,0,V,10.0
V10,51.0,32.0,21.0,20.0,12.0,32,1958.0,square1,r,0.0217,0,V,10.0
V10,52.0,29.0,25.0,21.0,10.0,29,1987.0,square1,r,0.2481,0,V,10.0
V10,53.0,39.0,29.0,23.0,2.0,39,2026.0,square1,r,0.1262,0,V,10.0
V10,54.0,33.0,28.0,19.0,7.0,33,2059.0,square1,r,0.0965,0,V,10.0
V10,55.0,34.0,24.0,15.0,8.0,34,2093.0,square1,r,0.2318,0,V,10.0
V10,56.0,35.0,20.0,21.0,9.0,35,2128.0,square1,r,0.1148,0,V,10.0
V10,57.0,33.0,27.0,19.0,7.0,33,2161.0,square1,r,0.3331,0,V,10.0
V10,58.0,38.0,24.0,16.0,7.0,38,2199.0,square1,r,0.3884,0,V,10.0
V10,59.0,34.0,29.0,15.0,5.0,34,2233.0,square1,r,0.2419,0,V,10.0
V10,60.0,34.0,22.0,19.0,9.0,34,2267.0,square1,r,0.0008,0,V,10.0
V10,61.0,39.0,31.0,20.0,10.0,39,2306.0,square1,r,0.3693,0,V,10.0
V10,62.0,35.0,24.0,18.0,6.0,35,2341.0,square1,r,0.0813,0,V,10.0
V10,63.0,35.0,26.0,18.0,9.0,35,2376.0,square1,r,0.0467,0,V,10.0
V10,64.0,31.0,55.0,23.0,23.0,31,2407.0,square1,r,0.0995,0,V,10.0
V10,65.0,35.0,50.0,22.0,27.0,35,2442.0,square1,r,0.2009,0,V,10.0
V10,66.0,35.0,53.0,25.0,29.0,35,2477.0,square1,r,0.0516,0,V,10.0
V10,67.0,38.0,44.0,17.0,29.0,17,2494.0,square3,f,0.4303,2,V,10.0
V10,68.0,36.0,48.0,22.0,27.0,48,2542.0,square2,i,0.1642,1,V,10.0
V10,69.0,41.0,53.0,17.0,28.0,53,2595.0,square2,i,0.2684,1,V,10.0
V10,70.0,40.0,48.0,23.0,28.0,48,2643.0,square2,i,0.0535,1,V,10.0
V10,71.0,39.0,43.0,24.0,20.0,43,2686.0,square2,i,0.0008,1,V,10.0
V10,72.0,36.0,49.0,19.0,25.0,49,2735.0,square2,i,0.1068,1,V,10.0
V10,73.0,39.0,49.0,23.0,32.0,49,2784.0,square2,i,0.1995,1,V,10.0
V10,74.0,36.0,44.0,17.0,29.0,29,2813.0,square4,j,0.0841,3,V,10.0
V10,75.0,37.0,46.0,20.0,30.0,37,2850.0,square1,r,0.2656,0,V,10.0
V10,76.0,38.0,47.0,23.0,30.0,47,2897.0,square2,i,0.1486,1,V,10.0
V10,77.0,36.0,49.0,22.0,32.0,49,2946.0,square2,i,0.11,1,V,10.0
V10,78.0,41.0,44.0,19.0,27.0,44,2990.0,square2,i,0.1724,1,V,10.0
V10,79.0,41.0,48.0,22.0,27.0,48,3038.0,square2,i,0.1813,1,V,10.0
V10,80.0,34.0,44.0,26.0,29.0,44,3082.0,square2,i,0.1479,1,V,10.0
V10,81.0,38.0,47.0,18.0,29.0,47,3129.0,square2,i,0.1461,1,V,10.0
V10,82.0,43.0,43.0,23.0,28.0,43,3172.0,square2,i,0.0316,1,V,10.0
V10,83.0,34.0,51.0,23.0,26.0,51,3223.0,square2,i,0.2489,1,V,10.0
V10,84.0,36.0,46.0,18.0,25.0,46,3269.0,square2,i,0.1319,1,V,10.0
V10,85.0,39.0,46.0,25.0,26.0,46,3315.0,square2,i,0.0833,1,V,10.0
V10,86.0,39.0,50.0,27.0,27.0,50,3365.0,square2,i,0.1338,1,V,10.0
V10,87.0,38.0,46.0,20.0,30.0,46,3411.0,square2,i,0.0836,1,V,10.0
V10,88.0,37.0,49.0,22.0,28.0,49,3460.0,square2,i,0.0577,1,V,10.0
V10,89.0,34.0,51.0,25.0,26.0,51,3511.0,square2,i,0.0701,1,V,10.0
V10,90.0,41.0,49.0,22.0,29.0,49,3560.0,square2,i,0.082,1,V,10.0
V10,91.0,37.0,45.0,26.0,32.0,45,3605.0,square2,i,0.1057,1,V,10.0
V10,92.0,42.0,42.0,27.0,28.0,42,3647.0,square2,i,0.1148,1,V,10.0
V10,93.0,41.0,48.0,19.0,36.0,41,3688.0,square1,r,0.2319,0,V,10.0
V10,94.0,43.0,49.0,23.0,31.0,43,3731.0,square1,r,0.167,0,V,10.0
V10,95.0,39.0,46.0,18.0,27.0,39,3770.0,square1,r,0.2205,0,V,10.0
V10,96.0,37.0,48.0,24.0,27.0,48,3818.0,square2,i,0.0371,1,V,10.0
V10,97.0,42.0,50.0,23.0,31.0,50,3868.0,square2,i,0.0574,1,V,10.0
V10,98.0,33.0,47.0,25.0,32.0,47,3915.0,square2,i,0.0483,1,V,10.0
V10,99.0,39.0,48.0,23.0,32.0,48,3963.0,square2,i,0.2333,1,V,10.0
V6,0.0,43.0,59.0,68.0,49.0,68,68.0,square3,r,0.8556,2,V,6.0
V6,1.0,43.0,62.0,71.0,50.0,71,139.0,square3,r,0.0306,2,V,6.0
V6,2.0,48.0,61.0,72.0,51.0,51,190.0,square4,i,0.0875,3,V,6.0
V6,3.0,46.0,55.0,71.0,51.0,46,236.0,square1,j,0.0842,0,V,6.0
V6,4.0,44.0,61.0,74.0,48.0,61,297.0,square2,f,0.0914,1,V,6.0
V6,5.0,45.0,62.0,70.0,51.0,62,359.0,square2,f,0.2397,1,V,6.0
V6,6.0,42.0,67.0,73.0,46.0,67,426.0,square2,f,0.1651,1,V,6.0
V6,7.0,44.0,63.0,71.0,53.0,53,479.0,square4,i,0.089,3,V,6.0
V6,8.0,41.0,62.0,73.0,52.0,73,552.0,square3,r,0.2481,2,V,6.0
V6,9.0,46.0,59.0,72.0,54.0,72,624.0,square3,r,0.1232,2,V,6.0
V6,10.0,45.0,59.0,70.0,53.0,70,694.0,square3,r,0.0917,2,V,6.0
V6,11.0,45.0,60.0,70.0,49.0,70,764.0,square3,r,0.3229,2,V,6.0
V6,12.0,45.0,66.0,64.0,48.0,64,828.0,square3,r,0.2177,2,V,6.0
V6,13.0,45.0,61.0,69.0,47.0,61,889.0,square2,f,0.2495,1,V,6.0
V6,14.0,47.0,60.0,71.0,56.0,60,949.0,square2,f,0.0253,1,V,6.0
V6,15.0,46.0,64.0,67.0,52.0,67,1016.0,square3,r,0.2406,2,V,6.0
V6,16.0,50.0,60.0,69.0,54.0,69,1085.0,square3,r,0.208,2,V,6.0
V6,17.0,43.0,60.0,70.0,53.0,70,1155.0,square3,r,0.2577,2,V,6.0
V6,18.0,46.0,63.0,72.0,55.0,72,1227.0,square3,r,0.1317,2,V,6.0
V6,19.0,46.0,65.0,73.0,51.0,73,1300.0,square3,r,0.2,2,V,6.0
V6,20.0,44.0,63.0,66.0,51.0,66,1366.0,square3,r,0.1984,2,V,6.0
V6,21.0,43.0,63.0,70.0,49.0,70,1436.0,square3,r,0.0795,2,V,6.0
V6,22.0,45.0,63.0,71.0,50.0,71,1507.0,square3,r,0.0486,2,V,6.0
V6,23.0,45.0,38.0,28.0,60.0,28,1535.0,square3,r,0.0143,2,V,6.0
V6,24.0,46.0,33.0,33.0,53.0,53,1588.0,square4,i,0.1489,3,V,6.0
V6,25.0,45.0,36.0,32.0,63.0,45,1633.0,square1,j,0.097,0,V,6.0
V6,26.0,52.0,37.0,28.0,57.0,52,1685.0,square1,j,0.2479,0,V,6.0
V6,27.0,45.0,33.0,30.0,62.0,45,1730.0,square1,j,0.1009,0,V,6.0
V6,28.0,43.0,37.0,24.0,51.0,37,1767.0,square2,f,0.0585,1,V,6.0
V6,29.0,48.0,39.0,34.0,61.0,61,1828.0,square4,i,0.1802,3,V,6.0
V6,30.0,48.0,44.0,35.0,59.0,59,1887.0,square4,i,0.2176,3,V,6.0
V6,31.0,50.0,39.0,34.0,53.0,53,1940.0,square4,i,0.1041,3,V,6.0
V6,32.0,44.0,33.0,33.0,54.0,54,1994.0,square4,i,0.0007,3,V,6.0
V6,33.0,48.0,37.0,30.0,56.0,56,2050.0,square4,i,0.0586,3,V,6.0
V6,34.0,52.0,37.0,27.0,59.0,52,2102.0,square1,j,0.0006,0,V,6.0
V6,35.0,47.0,32.0,29.0,59.0,47,2149.0,square1,j,0.0855,0,V,6.0
V6,36.0,45.0,37.0,27.0,56.0,27,2176.0,square3,r,0.2198,2,V,6.0
V6,37.0,39.0,37.0,31.0,57.0,57,2233.0,square4,i,0.1178,3,V,6.0
V6,38.0,50.0,38.0,29.0,56.0,56,2289.0,square4,i,0.1092,3,V,6.0
V6,39.0,48.0,37.0,27.0,57.0,57,2346.0,square4,i,0.1401,3,V,6.0
V6,40.0,53.0,37.0,29.0,57.0,57,2403.0,square4,i,0.0898,3,V,6.0
V6,41.0,41.0,34.0,33.0,58.0,58,2461.0,square4,i,0.1911,3,V,6.0
V6,42.0,50.0,37.0,31.0,57.0,57,2518.0,square4,i,0.0366,3,V,6.0
V6,43.0,48.0,34.0,30.0,58.0,58,2576.0,square4,i,0.1345,3,V,6.0
V6,44.0,44.0,37.0,33.0,60.0,60,2636.0,square4,i,0.0553,3,V,6.0
V6,45.0,44.0,32.0,33.0,55.0,55,2691.0,square4,i,0.2531,3,V,6.0
V6,46.0,44.0,36.0,33.0,59.0,59,2750.0,square4,i,0.1694,3,V,6.0
V6,47.0,42.0,34.0,29.0,52.0,52,2802.0,square4,i,0.2099,3,V,6.0
V6,48.0,46.0,41.0,28.0,60.0,41,2843.0,square2,f,0.221,1,V,6.0
V6,49.0,46.0,40.0,27.0,55.0,46,2889.0,square1,j,0.0069,0,V,6.0
V6,50.0,46.0,41.0,32.0,55.0,46,2935.0,square1,j,0.1484,0,V,6.0
V6,51.0,41.0,39.0,30.0,55.0,30,2965.0,square3,r,0.2518,2,V,6.0
V6,52.0,47.0,37.0,31.0,55.0,55,3020.0,square4,i,0.1652,3,V,6.0
V6,53.0,57.0,36.0,30.0,58.0,58,3078.0,square4,i,0.1335,3,V,6.0
V6,54.0,42.0,38.0,28.0,50.0,50,3128.0,square4,i,0.0877,3,V,6.0
V6,55.0,56.0,42.0,67.0,46.0,46,3174.0,square4,i,0.1053,3,V,6.0
V6,56.0,54.0,37.0,68.0,46.0,46,3220.0,square4,i,0.0041,3,V,6.0
V6,57.0,57.0,40.0,64.0,52.0,40,3260.0,square2,f,0.0644,1,V,6.0
V6,58.0,53.0,45.0,68.0,45.0,53,3313.0,square1,j,0.0201,0,V,6.0
V6,59.0,59.0,41.0,69.0,49.0,59,3372.0,square1,j,0.0981,0,V,6.0
V6,60.0,62.0,41.0,71.0,51.0,62,3434.0,square1,j,0.0222,0,V,6.0
V6,61.0,58.0,50.0,72.0,51.0,72,3506.0,square3,r,0.0502,2,V,6.0
V6,62.0,61.0,43.0,65.0,47.0,65,3571.0,square3,r,0.0159,2,V,6.0
V6,63.0,55.0,40.0,67.0,51.0,67,3638.0,square3,r,0.1755,2,V,6.0
V6,64.0,56.0,43.0,67.0,47.0,67,3705.0,square3,r,0.1471,2,V,6.0
V6,65.0,62.0,46.0,67.0,48.0,67,3772.0,square3,r,0.1334,2,V,6.0
V6,66.0,55.0,44.0,67.0,48.0,67,3839.0,square3,r,0.1129,2,V,6.0
V6,67.0,61.0,46.0,70.0,49.0,70,3909.0,square3,r,0.1497,2,V,6.0
V6,68.0,63.0,41.0,72.0,46.0,72,3981.0,square3,r,0.0393,2,V,6.0
V6,69.0,59.0,41.0,68.0,48.0,68,4049.0,square3,r,0.1072,2,V,6.0
V6,70.0,59.0,37.0,70.0,45.0,70,4119.0,square3,r,0.1983,2,V,6.0
V6,71.0,83.0,64.0,56.0,70.0,56,4175.0,square3,r,0.0613,2,V,6.0
V6,72.0,82.0,59.0,53.0,75.0,75,4250.0,square4,i,0.0011,3,V,6.0
V6,73.0,85.0,67.0,58.0,73.0,73,4323.0,square4,i,0.0674,3,V,6.0
V6,74.0,79.0,67.0,61.0,73.0,73,4396.0,square4,i,0.0645,3,V,6.0
V6,75.0,84.0,62.0,53.0,69.0,69,4465.0,square4,i,0.0012,3,V,6.0
V6,76.0,81.0,60.0,55.0,76.0,76,4541.0,square4,i,0.0379,3,V,6.0
V6,77.0,84.0,61.0,60.0,72.0,84,4625.0,square1,j,0.1649,0,V,6.0
V6,78.0,90.0,61.0,54.0,74.0,90,4715.0,square1,j,0.1219,0,V,6.0
V6,79.0,80.0,64.0,51.0,75.0,80,4795.0,square1,j,0.022,0,V,6.0
V6,80.0,85.0,62.0,56.0,78.0,62,4857.0,square2,f,0.0031,1,V,6.0
V6,81.0,86.0,65.0,58.0,69.0,86,4943.0,square1,j,0.0245,0,V,6.0
V6,82.0,83.0,62.0,58.0,77.0,83,5026.0,square1,j,0.1988,0,V,6.0
V6,83.0,87.0,61.0,59.0,70.0,87,5113.0,square1,j,0.0555,0,V,6.0
V6,84.0,89.0,65.0,54.0,78.0,89,5202.0,square1,j,0.0467,0,V,6.0
V6,85.0,78.0,63.0,55.0,75.0,78,5280.0,square1,j,0.0344,0,V,6.0
V6,86.0,87.0,67.0,52.0,75.0,87,5367.0,square1,j,0.0487,0,V,6.0
V6,87.0,86.0,62.0,60.0,75.0,86,5453.0,square1,j,0.0693,0,V,6.0
V6,88.0,79.0,67.0,56.0,76.0,79,5532.0,square1,j,0.1017,0,V,6.0
V6,89.0,83.0,61.0,57.0,75.0,83,5615.0,square1,j,0.2905,0,V,6.0
V6,90.0,83.0,67.0,51.0,76.0,83,5698.0,square1,j,0.0762,0,V,6.0
V6,91.0,83.0,63.0,55.0,69.0,55,5753.0,square3,r,0.1448,2,V,6.0
V6,92.0,89.0,56.0,53.0,68.0,68,5821.0,square4,i,0.0804,3,V,6.0
V6,93.0,84.0,61.0,59.0,74.0,84,5905.0,square1,j,0.1407,0,V,6.0
V6,94.0,77.0,58.0,58.0,76.0,77,5982.0,square1,j,0.1029,0,V,6.0
V6,95.0,82.0,60.0,53.0,74.0,82,6064.0,square1,j,0.143,0,V,6.0
V6,96.0,87.0,61.0,56.0,71.0,87,6151.0,square1,j,0.2726,0,V,6.0
V6,97.0,83.0,66.0,55.0,75.0,83,6234.0,square1,j,0.05,0,V,6.0
V6,98.0,81.0,63.0,55.0,76.0,81,6315.0,square1,j,0.1327,0,V,6.0
V6,99.0,92.0,63.0,61.0,78.0,63,6378.0,square2,f,0.1077,1,V,6.0
