block,Trial,square1,square2,square3,square4,currPoints,totalPoints,square,choiceKey.keys,choiceKey.rt,armNum,blockType,blockNum
prac,0.0,100.0,0.0,0.0,0.0,99999,0.0,invalid,,,-1,p,0.0
prac,1.0,100.0,0.0,0.0,0.0,99999,0.0,invalid,,,-1,p,0.0
prac,2.0,100.0,0.0,0.0,0.0,99999,0.0,invalid,,,-1,p,0.0
prac,3.0,100.0,0.0,0.0,0.0,0,0.0,square4,,,3,p,0.0
prac,4.0,100.0,0.0,0.0,0.0,0,0.0,square2,,,1,p,0.0
prac,5.0,100.0,0.0,0.0,0.0,0,0.0,square2,,,1,p,0.0
prac,6.0,100.0,0.0,0.0,0.0,0,0.0,square2,,,1,p,0.0
prac,7.0,100.0,0.0,0.0,0.0,0,0.0,square2,,,1,p,0.0
prac,8.0,100.0,0.0,0.0,0.0,0,0.0,square4,,,3,p,0.0
prac,9.0,100.0,0.0,0.0,0.0,0,0.0,square4,,,3,p,0.0
V9,0.0,20.0,29.0,37.0,45.0,45,45.0,square4,f,1.0424,3,V,9.0
V9,1.0,21.0,32.0,39.0,45.0,21,66.0,square1,j,0.3624,0,V,9.0
V9,2.0,16.0,27.0,41.0,48.0,27,93.0,square2,r,0.4602,1,V,9.0
V9,3.0,20.0,30.0,42.0,50.0,42,135.0,square3,i,0.2915,2,V,9.0
V9,4.0,22.0,34.0,37.0,47.0,37,172.0,square3,i,0.6559,2,V,9.0
V9,5.0,17.0,32.0,38.0,49.0,38,210.0,square3,i,0.2726,2,V,9.0
V9,6.0,17.0,25.0,39.0,47.0,47,257.0,square4,f,0.0815,3,V,9.0
V9,7.0,22.0,28.0,33.0,48.0,48,305.0,square4,f,0.2113,3,V,9.0
V9,8.0,20.0,24.0,34.0,41.0,41,346.0,square4,f,0.0093,3,V,9.0
V9,9.0,20.0,33.0,30.0,51.0,20,366.0,square1,j,0.0554,0,V,9.0
V9,10.0,21.0,35.0,38.0,50.0,35,401.0,square2,r,0.3762,1,V,9.0
V9,11.0,19.0,29.0,44.0,45.0,44,445.0,square3,i,0.1433,2,V,9.0
V9,12.0,27.0,24.0,38.0,54.0,54,499.0,square4,f,0.1619,3,V,9.0
V9,13.0,15.0,26.0,37.0,50.0,50,549.0,square4,f,0.0419,3,V,9.0
V9,14.0,24.0,26.0,39.0,42.0,39,588.0,square3,i,0.1932,2,V,9.0
V9,15.0,26.0,27.0,43.0,49.0,27,615.0,square2,r,0.3087,1,V,9.0
V9,16.0,19.0,30.0,42.0,49.0,49,664.0,square4,f,0.158,3,V,9.0
V9,17.0,21.0,30.0,34.0,49.0,49,713.0,square4,f,0.3882,3,V,9.0
V9,18.0,25.0,33.0,41.0,51.0,51,764.0,square4,f,0.1957,3,V,9.0
V9,19.0,17.0,31.0,41.0,45.0,45,809.0,square4,f,0.1134,3,V,9.0
V9,20.0,19.0,31.0,34.0,49.0,19,828.0,square1,j,0.1273,0,V,9.0
V9,21.0,23.0,29.0,37.0,48.0,37,865.0,square3,i,0.2994,2,V,9.0
V9,22.0,15.0,32.0,36.0,48.0,36,901.0,square3,i,0.3077,2,V,9.0
V9,23.0,25.0,33.0,39.0,47.0,47,948.0,square4,f,0.4128,3,V,9.0
V9,24.0,21.0,30.0,38.0,52.0,30,978.0,square2,r,0.0265,1,V,9.0
V9,25.0,25.0,29.0,42.0,48.0,48,1026.0,square4,f,0.0007,3,V,9.0
V9,26.0,22.0,29.0,39.0,47.0,47,1073.0,square4,f,0.4761,3,V,9.0
V9,27.0,17.0,31.0,45.0,41.0,41,1114.0,square4,f,0.2614,3,V,9.0
V9,28.0,29.0,28.0,43.0,43.0,43,1157.0,square4,f,0.4763,3,V,9.0
V9,29.0,20.0,31.0,43.0,49.0,49,1206.0,square4,f,0.3609,3,V,9.0
V9,30.0,23.0,33.0,39.0,48.0,39,1245.0,square3,i,0.1102,2,V,9.0
V9,31.0,20.0,27.0,38.0,53.0,53,1298.0,square4,f,0.6142,3,V,9.0
V9,32.0,23.0,29.0,37.0,49.0,49,1347.0,square4,f,0.043,3,V,9.0
V9,33.0,24.0,33.0,37.0,49.0,49,1396.0,square4,f,0.126,3,V,9.0
V9,34.0,43.0,58.0,48.0,30.0,30,1426.0,square4,f,0.1092,3,V,9.0
V9,35.0,48.0,59.0,45.0,34.0,45,1471.0,square3,i,0.3265,2,V,9.0
V9,36.0,39.0,56.0,54.0,32.0,54,1525.0,square3,i,0.2635,2,V,9.0
V9,37.0,40.0,57.0,50.0,35.0,50,1575.0,square3,i,0.5729,2,V,9.0
V9,38.0,49.0,62.0,51.0,33.0,51,1626.0,square3,i,0.3105,2,V,9.0
V9,39.0,45.0,61.0,48.0,34.0,48,1674.0,square3,i,0.0603,2,V,9.0
V9,40.0,40.0,65.0,51.0,29.0,51,1725.0,square3,i,0.2158,2,V,9.0
V9,41.0,44.0,57.0,50.0,38.0,38,1763.0,square4,f,0.3722,3,V,9.0
V9,42.0,40.0,57.0,49.0,33.0,33,1796.0,square4,f,0.0006,3,V,9.0
V9,43.0,42.0,64.0,54.0,35.0,54,1850.0,square3,i,0.2615,2,V,9.0
V9,44.0,44.0,55.0,49.0,39.0,55,1905.0,square2,r,0.477,1,V,9.0
V9,45.0,37.0,66.0,51.0,35.0,66,1971.0,square2,r,0.2613,1,V,9.0
V9,46.0,40.0,59.0,51.0,32.0,59,2030.0,square2,r,0.2803,1,V,9.0
V9,47.0,38.0,62.0,57.0,31.0,62,2092.0,square2,r,0.2426,1,V,9.0
V9,48.0,43.0,61.0,54.0,34.0,61,2153.0,square2,r,0.0935,1,V,9.0
V9,49.0,43.0,61.0,49.0,40.0,61,2214.0,square2,r,0.0602,1,V,9.0
V9,50.0,37.0,58.0,51.0,32.0,37,2251.0,square1,j,0.4949,0,V,9.0
V9,51.0,44.0,63.0,48.0,39.0,48,2299.0,square3,i,0.2488,2,V,9.0
V9,52.0,35.0,65.0,48.0,30.0,30,2329.0,square4,f,0.0263,3,V,9.0
V9,53.0,43.0,59.0,48.0,39.0,59,2388.0,square2,r,0.3102,1,V,9.0
V9,54.0,43.0,59.0,52.0,30.0,59,2447.0,square2,r,0.205,1,V,9.0
V9,55.0,41.0,58.0,51.0,34.0,58,2505.0,square2,r,0.5574,1,V,9.0
V9,56.0,44.0,63.0,50.0,33.0,63,2568.0,square2,r,0.3775,1,V,9.0
V9,57.0,42.0,60.0,49.0,32.0,60,2628.0,square2,r,0.3611,1,V,9.0
V9,58.0,44.0,62.0,57.0,30.0,62,2690.0,square2,r,0.1454,1,V,9.0
V9,59.0,45.0,61.0,45.0,31.0,61,2751.0,square2,r,0.0754,1,V,9.0
V9,60.0,43.0,63.0,53.0,33.0,63,2814.0,square2,r,0.4265,1,V,9.0
V9,61.0,39.0,56.0,55.0,31.0,56,2870.0,square2,r,0.1639,1,V,9.0
V9,62.0,39.0,61.0,50.0,34.0,50,2920.0,square3,i,0.0228,2,V,9.0
V9,63.0,44.0,57.0,48.0,36.0,57,2977.0,square2,r,0.4583,1,V,9.0
V9,64.0,40.0,60.0,58.0,35.0,35,3012.0,square4,f,0.0278,3,V,9.0
V9,65.0,42.0,60.0,54.0,38.0,60,3072.0,square2,r,0.1573,1,V,9.0
V9,66.0,41.0,60.0,54.0,37.0,60,3132.0,square2,r,0.0108,1,V,9.0
V9,67.0,43.0,61.0,54.0,40.0,61,3193.0,square2,r,0.0449,1,V,9.0
V9,68.0,45.0,40.0,26.0,18.0,40,3233.0,square2,r,0.0603,1,V,9.0
V9,69.0,50.0,41.0,29.0,20.0,41,3274.0,square2,r,0.0005,1,V,9.0
V9,70.0,43.0,36.0,27.0,15.0,36,3310.0,square2,r,0.3613,1,V,9.0
V9,71.0,44.0,40.0,28.0,18.0,40,3350.0,square2,r,0.1579,1,V,9.0
V9,72.0,42.0,38.0,27.0,18.0,27,3377.0,square3,i,0.4637,2,V,9.0
V9,73.0,46.0,33.0,25.0,19.0,33,3410.0,square2,r,0.0938,1,V,9.0
V9,74.0,47.0,40.0,28.0,20.0,47,3457.0,square1,j,0.1111,0,V,9.0
V9,75.0,39.0,39.0,27.0,25.0,25,3482.0,square4,f,0.3106,3,V,9.0
V9,76.0,50.0,31.0,29.0,23.0,50,3532.0,square1,j,0.0778,0,V,9.0
V9,77.0,44.0,37.0,28.0,13.0,44,3576.0,square1,j,0.0611,0,V,9.0
V9,78.0,43.0,36.0,23.0,17.0,43,3619.0,square1,j,0.9078,0,V,9.0
V9,79.0,42.0,36.0,28.0,24.0,42,3661.0,square1,j,0.3109,0,V,9.0
V9,80.0,47.0,35.0,30.0,14.0,99999,3661.0,invalid,,,-1,V,9.0
V9,81.0,46.0,33.0,29.0,18.0,46,3707.0,square1,j,0.3935,0,V,9.0
V9,82.0,46.0,35.0,28.0,18.0,28,3735.0,square3,i,0.2767,2,V,9.0
V9,83.0,47.0,41.0,32.0,15.0,41,3776.0,square2,r,0.0007,1,V,9.0
V9,84.0,45.0,38.0,31.0,18.0,38,3814.0,square2,r,0.2717,1,V,9.0
V9,85.0,42.0,35.0,30.0,21.0,35,3849.0,square2,r,0.2626,1,V,9.0
V9,86.0,49.0,39.0,23.0,18.0,39,3888.0,square2,r,0.0434,1,V,9.0
V9,87.0,49.0,39.0,27.0,16.0,39,3927.0,square2,r,0.0944,1,V,9.0
V9,88.0,45.0,38.0,25.0,14.0,38,3965.0,square2,r,0.2594,1,V,9.0
V9,89.0,45.0,32.0,28.0,19.0,32,3997.0,square2,r,0.4557,1,V,9.0
V9,90.0,44.0,35.0,29.0,20.0,35,4032.0,square2,r,0.1556,1,V,9.0
V9,91.0,42.0,38.0,32.0,16.0,38,4070.0,square2,r,0.3765,1,V,9.0
V9,92.0,45.0,36.0,23.0,20.0,36,4106.0,square2,r,0.3263,1,V,9.0
V9,93.0,45.0,35.0,26.0,18.0,26,4132.0,square3,i,0.4225,2,V,9.0
V9,94.0,44.0,37.0,27.0,13.0,44,4176.0,square1,j,0.3773,0,V,9.0
V9,95.0,46.0,36.0,25.0,20.0,20,4196.0,square4,f,0.267,3,V,9.0
V9,96.0,43.0,39.0,27.0,16.0,43,4239.0,square1,j,0.5238,0,V,9.0
V9,97.0,48.0,39.0,30.0,16.0,39,4278.0,square2,r,0.0783,1,V,9.0
V9,98.0,49.0,40.0,26.0,20.0,40,4318.0,square2,r,0.3559,1,V,9.0
V9,99.0,49.0,41.0,27.0,18.0,41,4359.0,square2,r,0.4938,1,V,9.0
V6,0.0,43.0,59.0,68.0,49.0,43,43.0,square1,f,0.5529,0,V,6.0
V6,1.0,43.0,62.0,71.0,50.0,71,114.0,square3,j,0.4445,2,V,6.0
V6,2.0,48.0,61.0,72.0,51.0,61,175.0,square2,i,0.3402,1,V,6.0
V6,3.0,46.0,55.0,71.0,51.0,71,246.0,square3,j,0.1108,2,V,6.0
V6,4.0,44.0,61.0,74.0,48.0,74,320.0,square3,j,0.1942,2,V,6.0
V6,5.0,45.0,62.0,70.0,51.0,70,390.0,square3,j,0.0006,2,V,6.0
V6,6.0,42.0,67.0,73.0,46.0,73,463.0,square3,j,0.0445,2,V,6.0
V6,7.0,44.0,63.0,71.0,53.0,71,534.0,square3,j,0.0005,2,V,6.0
V6,8.0,41.0,62.0,73.0,52.0,73,607.0,square3,j,0.061,2,V,6.0
V6,9.0,46.0,59.0,72.0,54.0,72,679.0,square3,j,0.0439,2,V,6.0
V6,10.0,45.0,59.0,70.0,53.0,70,749.0,square3,j,0.4949,2,V,6.0
V6,11.0,45.0,60.0,70.0,49.0,70,819.0,square3,j,0.2765,2,V,6.0
V6,12.0,45.0,66.0,64.0,48.0,64,883.0,square3,j,0.0898,2,V,6.0
V6,13.0,45.0,61.0,69.0,47.0,47,930.0,square4,r,0.0965,3,V,6.0
V6,14.0,47.0,60.0,71.0,56.0,47,977.0,square1,f,0.1106,0,V,6.0
V6,15.0,46.0,64.0,67.0,52.0,52,1029.0,square4,r,0.2425,3,V,6.0
V6,16.0,50.0,60.0,69.0,54.0,69,1098.0,square3,j,0.1659,2,V,6.0
V6,17.0,43.0,60.0,70.0,53.0,70,1168.0,square3,j,0.2587,2,V,6.0
V6,18.0,46.0,63.0,72.0,55.0,72,1240.0,square3,j,0.4807,2,V,6.0
V6,19.0,46.0,65.0,73.0,51.0,73,1313.0,square3,j,0.7597,2,V,6.0
V6,20.0,44.0,63.0,66.0,51.0,66,1379.0,square3,j,0.2595,2,V,6.0
V6,21.0,43.0,63.0,70.0,49.0,70,1449.0,square3,j,0.1885,2,V,6.0
V6,22.0,45.0,63.0,71.0,50.0,71,1520.0,square3,j,0.778,2,V,6.0
V6,23.0,45.0,38.0,28.0,60.0,28,1548.0,square3,j,0.298,2,V,6.0
V6,24.0,46.0,33.0,33.0,53.0,53,1601.0,square4,r,0.01,3,V,6.0
V6,25.0,45.0,36.0,32.0,63.0,36,1637.0,square2,i,0.2144,1,V,6.0
V6,26.0,52.0,37.0,28.0,57.0,52,1689.0,square1,f,0.2734,0,V,6.0
V6,27.0,45.0,33.0,30.0,62.0,45,1734.0,square1,f,0.496,0,V,6.0
V6,28.0,43.0,37.0,24.0,51.0,43,1777.0,square1,f,0.0437,0,V,6.0
V6,29.0,48.0,39.0,34.0,61.0,48,1825.0,square1,f,0.1277,0,V,6.0
V6,30.0,48.0,44.0,35.0,59.0,48,1873.0,square1,f,0.3104,0,V,6.0
V6,31.0,50.0,39.0,34.0,53.0,53,1926.0,square4,r,0.4441,3,V,6.0
V6,32.0,44.0,33.0,33.0,54.0,33,1959.0,square2,i,0.0266,1,V,6.0
V6,33.0,48.0,37.0,30.0,56.0,56,2015.0,square4,r,0.3487,3,V,6.0
V6,34.0,52.0,37.0,27.0,59.0,52,2067.0,square1,f,0.9225,0,V,6.0
V6,35.0,47.0,32.0,29.0,59.0,29,2096.0,square3,j,0.3319,2,V,6.0
V6,36.0,45.0,37.0,27.0,56.0,56,2152.0,square4,r,0.4274,3,V,6.0
V6,37.0,39.0,37.0,31.0,57.0,37,2189.0,square2,i,0.1988,1,V,6.0
V6,38.0,50.0,38.0,29.0,56.0,50,2239.0,square1,f,0.0108,0,V,6.0
V6,39.0,48.0,37.0,27.0,57.0,57,2296.0,square4,r,0.2605,3,V,6.0
V6,40.0,53.0,37.0,29.0,57.0,57,2353.0,square4,r,0.3321,3,V,6.0
V6,41.0,41.0,34.0,33.0,58.0,58,2411.0,square4,r,0.3109,3,V,6.0
V6,42.0,50.0,37.0,31.0,57.0,37,2448.0,square2,i,0.3101,1,V,6.0
V6,43.0,48.0,34.0,30.0,58.0,48,2496.0,square1,f,0.0014,0,V,6.0
V6,44.0,44.0,37.0,33.0,60.0,33,2529.0,square3,j,0.0004,2,V,6.0
V6,45.0,44.0,32.0,33.0,55.0,55,2584.0,square4,r,0.4333,3,V,6.0
V6,46.0,44.0,36.0,33.0,59.0,99999,2584.0,invalid,,,-1,V,6.0
V6,47.0,42.0,34.0,29.0,52.0,99999,2584.0,invalid,,,-1,V,6.0
V6,48.0,46.0,41.0,28.0,60.0,99999,2584.0,invalid,,,-1,V,6.0
V6,49.0,46.0,40.0,27.0,55.0,99999,2584.0,invalid,,,-1,V,6.0
V6,50.0,46.0,41.0,32.0,55.0,99999,2584.0,invalid,,,-1,V,6.0
V6,51.0,41.0,39.0,30.0,55.0,99999,2584.0,invalid,,,-1,V,6.0
V6,52.0,47.0,37.0,31.0,55.0,99999,2584.0,invalid,,,-1,V,6.0
V6,53.0,57.0,36.0,30.0,58.0,99999,2584.0,invalid,,,-1,V,6.0
V6,54.0,42.0,38.0,28.0,50.0,99999,2584.0,invalid,,,-1,V,6.0
V6,55.0,56.0,42.0,67.0,46.0,99999,2584.0,invalid,,,-1,V,6.0
V6,56.0,54.0,37.0,68.0,46.0,68,2652.0,square3,j,0.1913,2,V,6.0
V6,57.0,57.0,40.0,64.0,52.0,40,2692.0,square2,i,0.3058,1,V,6.0
V6,58.0,53.0,45.0,68.0,45.0,53,2745.0,square1,f,1.7274,0,V,6.0
V6,59.0,59.0,41.0,69.0,49.0,49,2794.0,square4,r,0.2279,3,V,6.0
V6,60.0,62.0,41.0,71.0,51.0,71,2865.0,square3,j,0.1988,2,V,6.0
V6,61.0,58.0,50.0,72.0,51.0,72,2937.0,square3,j,0.3421,2,V,6.0
V6,62.0,61.0,43.0,65.0,47.0,65,3002.0,square3,j,0.3088,2,V,6.0
V6,63.0,55.0,40.0,67.0,51.0,67,3069.0,square3,j,0.1109,2,V,6.0
V6,64.0,56.0,43.0,67.0,47.0,56,3125.0,square1,f,0.2106,0,V,6.0
V6,65.0,62.0,46.0,67.0,48.0,46,3171.0,square2,i,0.5596,1,V,6.0
V6,66.0,55.0,44.0,67.0,48.0,55,3226.0,square1,f,0.4604,0,V,6.0
V6,67.0,61.0,46.0,70.0,49.0,46,3272.0,square2,i,0.4601,1,V,6.0
V6,68.0,63.0,41.0,72.0,46.0,72,3344.0,square3,j,0.595,2,V,6.0
V6,69.0,59.0,41.0,68.0,48.0,48,3392.0,square4,r,0.3451,3,V,6.0
V6,70.0,59.0,37.0,70.0,45.0,70,3462.0,square3,j,0.6733,2,V,6.0
V6,71.0,83.0,64.0,56.0,70.0,64,3526.0,square2,i,0.3349,1,V,6.0
V6,72.0,82.0,59.0,53.0,75.0,53,3579.0,square3,j,0.013,2,V,6.0
V6,73.0,85.0,67.0,58.0,73.0,85,3664.0,square1,f,0.4136,0,V,6.0
V6,74.0,79.0,67.0,61.0,73.0,79,3743.0,square1,f,0.2606,0,V,6.0
V6,75.0,84.0,62.0,53.0,69.0,62,3805.0,square2,i,0.1929,1,V,6.0
V6,76.0,81.0,60.0,55.0,76.0,55,3860.0,square3,j,0.0942,2,V,6.0
V6,77.0,84.0,61.0,60.0,72.0,72,3932.0,square4,r,0.2609,3,V,6.0
V6,78.0,90.0,61.0,54.0,74.0,74,4006.0,square4,r,0.2558,3,V,6.0
V6,79.0,80.0,64.0,51.0,75.0,75,4081.0,square4,r,0.2447,3,V,6.0
V6,80.0,85.0,62.0,56.0,78.0,78,4159.0,square4,r,0.2431,3,V,6.0
V6,81.0,86.0,65.0,58.0,69.0,69,4228.0,square4,r,0.1128,3,V,6.0
V6,82.0,83.0,62.0,58.0,77.0,83,4311.0,square1,f,0.2336,0,V,6.0
V6,83.0,87.0,61.0,59.0,70.0,87,4398.0,square1,f,0.1823,0,V,6.0
V6,84.0,89.0,65.0,54.0,78.0,89,4487.0,square1,f,0.2295,0,V,6.0
V6,85.0,78.0,63.0,55.0,75.0,78,4565.0,square1,f,0.1096,0,V,6.0
V6,86.0,87.0,67.0,52.0,75.0,87,4652.0,square1,f,0.0007,0,V,6.0
V6,87.0,86.0,62.0,60.0,75.0,86,4738.0,square1,f,0.2277,0,V,6.0
V6,88.0,79.0,67.0,56.0,76.0,79,4817.0,square1,f,0.0006,0,V,6.0
V6,89.0,83.0,61.0,57.0,75.0,83,4900.0,square1,f,0.1648,0,V,6.0
V6,90.0,83.0,67.0,51.0,76.0,83,4983.0,square1,f,0.1112,0,V,6.0
V6,91.0,83.0,63.0,55.0,69.0,83,5066.0,square1,f,0.1484,0,V,6.0
V6,92.0,89.0,56.0,53.0,68.0,89,5155.0,square1,f,0.0406,0,V,6.0
V6,93.0,84.0,61.0,59.0,74.0,84,5239.0,square1,f,0.6394,0,V,6.0
V6,94.0,77.0,58.0,58.0,76.0,77,5316.0,square1,f,0.0145,0,V,6.0
V6,95.0,82.0,60.0,53.0,74.0,82,5398.0,square1,f,0.0294,0,V,6.0
V6,96.0,87.0,61.0,56.0,71.0,87,5485.0,square1,f,0.0233,0,V,6.0
V6,97.0,83.0,66.0,55.0,75.0,83,5568.0,square1,f,0.0276,0,V,6.0
V6,98.0,81.0,63.0,55.0,76.0,81,5649.0,square1,f,0.093,0,V,6.0
V6,99.0,92.0,63.0,61.0,78.0,92,5741.0,square1,f,0.1949,0,V,6.0
V3,0.0,62.0,45.0,70.0,53.0,62,62.0,square1,r,0.5688,0,V,3.0
V3,1.0,63.0,47.0,76.0,60.0,60,122.0,square4,i,0.4442,3,V,3.0
V3,2.0,65.0,54.0,73.0,57.0,73,195.0,square3,f,0.1774,2,V,3.0
V3,3.0,68.0,51.0,71.0,51.0,71,266.0,square3,f,0.1607,2,V,3.0
V3,4.0,61.0,49.0,75.0,53.0,49,315.0,square2,j,0.0142,1,V,3.0
V3,5.0,65.0,47.0,74.0,50.0,50,365.0,square4,i,0.1605,3,V,3.0
V3,6.0,61.0,51.0,72.0,57.0,61,426.0,square1,r,0.0561,0,V,3.0
V3,7.0,67.0,49.0,75.0,55.0,67,493.0,square1,r,0.376,0,V,3.0
V3,8.0,64.0,48.0,76.0,56.0,64,557.0,square1,r,0.5984,0,V,3.0
V3,9.0,67.0,49.0,71.0,56.0,56,613.0,square4,i,0.2463,3,V,3.0
V3,10.0,65.0,50.0,71.0,56.0,65,678.0,square1,r,0.8563,0,V,3.0
V3,11.0,63.0,43.0,78.0,58.0,78,756.0,square3,f,0.1193,2,V,3.0
V3,12.0,66.0,53.0,73.0,54.0,73,829.0,square3,f,0.0152,2,V,3.0
V3,13.0,64.0,46.0,78.0,51.0,46,875.0,square2,j,0.6938,1,V,3.0
V3,14.0,67.0,51.0,71.0,58.0,71,946.0,square3,f,0.2564,2,V,3.0
V3,15.0,61.0,50.0,73.0,54.0,61,1007.0,square1,r,0.127,0,V,3.0
V3,16.0,64.0,52.0,74.0,54.0,54,1061.0,square4,i,0.4264,3,V,3.0
V3,17.0,61.0,48.0,74.0,55.0,74,1135.0,square3,f,0.2594,2,V,3.0
V3,18.0,65.0,50.0,70.0,59.0,70,1205.0,square3,f,0.1759,2,V,3.0
V3,19.0,64.0,52.0,76.0,56.0,76,1281.0,square3,f,0.077,2,V,3.0
V3,20.0,64.0,50.0,69.0,58.0,69,1350.0,square3,f,0.3941,2,V,3.0
V3,21.0,66.0,50.0,72.0,56.0,72,1422.0,square3,f,0.004,2,V,3.0
V3,22.0,43.0,48.0,40.0,62.0,40,1462.0,square3,f,0.0005,2,V,3.0
V3,23.0,41.0,51.0,35.0,59.0,35,1497.0,square3,f,0.0005,2,V,3.0
V3,24.0,51.0,51.0,37.0,60.0,51,1548.0,square1,r,0.6315,0,V,3.0
V3,25.0,45.0,53.0,36.0,57.0,53,1601.0,square2,j,0.0421,1,V,3.0
V3,26.0,44.0,51.0,38.0,59.0,38,1639.0,square3,f,0.2491,2,V,3.0
V3,27.0,43.0,51.0,34.0,66.0,34,1673.0,square3,f,0.1236,2,V,3.0
V3,28.0,47.0,51.0,40.0,67.0,67,1740.0,square4,i,0.3803,3,V,3.0
V3,29.0,42.0,55.0,35.0,65.0,65,1805.0,square4,i,0.2437,3,V,3.0
V3,30.0,49.0,54.0,36.0,62.0,49,1854.0,square1,r,0.1901,0,V,3.0
V3,31.0,50.0,53.0,42.0,66.0,53,1907.0,square2,j,0.163,1,V,3.0
V3,32.0,47.0,53.0,34.0,58.0,53,1960.0,square2,j,0.0771,1,V,3.0
V3,33.0,45.0,56.0,34.0,62.0,62,2022.0,square4,i,0.2451,3,V,3.0
V3,34.0,48.0,54.0,38.0,64.0,64,2086.0,square4,i,0.0113,3,V,3.0
V3,35.0,39.0,55.0,42.0,65.0,65,2151.0,square4,i,0.1127,3,V,3.0
V3,36.0,46.0,57.0,41.0,63.0,63,2214.0,square4,i,0.1384,3,V,3.0
V3,37.0,43.0,54.0,41.0,65.0,43,2257.0,square1,r,0.1439,0,V,3.0
V3,38.0,47.0,52.0,37.0,63.0,63,2320.0,square4,i,0.3235,3,V,3.0
V3,39.0,47.0,53.0,38.0,55.0,55,2375.0,square4,i,0.311,3,V,3.0
V3,40.0,41.0,54.0,39.0,64.0,64,2439.0,square4,i,0.4954,3,V,3.0
V3,41.0,48.0,52.0,38.0,64.0,64,2503.0,square4,i,0.6128,3,V,3.0
V3,42.0,45.0,50.0,34.0,63.0,63,2566.0,square4,i,0.3608,3,V,3.0
V3,43.0,44.0,50.0,34.0,62.0,50,2616.0,square2,j,0.2831,1,V,3.0
V3,44.0,47.0,55.0,39.0,65.0,39,2655.0,square3,f,0.0117,2,V,3.0
V3,45.0,45.0,55.0,31.0,63.0,45,2700.0,square1,r,0.3161,0,V,3.0
V3,46.0,42.0,52.0,38.0,64.0,64,2764.0,square4,i,0.0268,3,V,3.0
V3,47.0,44.0,53.0,37.0,55.0,55,2819.0,square4,i,0.3597,3,V,3.0
V3,48.0,44.0,49.0,37.0,58.0,49,2868.0,square2,j,0.1275,1,V,3.0
V3,49.0,48.0,58.0,35.0,54.0,48,2916.0,square1,r,0.0602,0,V,3.0
V3,50.0,42.0,28.0,30.0,52.0,42,2958.0,square1,r,0.1433,0,V,3.0
V3,51.0,46.0,29.0,32.0,51.0,51,3009.0,square4,i,0.5608,3,V,3.0
V3,52.0,37.0,20.0,36.0,50.0,20,3029.0,square2,j,0.0563,1,V,3.0
V3,53.0,44.0,22.0,34.0,55.0,44,3073.0,square1,r,0.0451,0,V,3.0
V3,54.0,37.0,27.0,26.0,50.0,27,3100.0,square2,j,0.0436,1,V,3.0
V3,55.0,41.0,21.0,39.0,53.0,53,3153.0,square4,i,0.2097,3,V,3.0
V3,56.0,40.0,20.0,38.0,51.0,38,3191.0,square3,f,0.0009,2,V,3.0
V3,57.0,44.0,28.0,31.0,57.0,57,3248.0,square4,i,0.4634,3,V,3.0
V3,58.0,46.0,20.0,28.0,49.0,49,3297.0,square4,i,0.1571,3,V,3.0
V3,59.0,44.0,24.0,30.0,55.0,55,3352.0,square4,i,0.2108,3,V,3.0
V3,60.0,42.0,29.0,29.0,51.0,42,3394.0,square1,r,0.8269,0,V,3.0
V3,61.0,41.0,21.0,30.0,46.0,21,3415.0,square2,j,0.0302,1,V,3.0
V3,62.0,41.0,27.0,31.0,49.0,41,3456.0,square1,r,0.1244,0,V,3.0
V3,63.0,42.0,27.0,34.0,51.0,42,3498.0,square1,r,0.1942,0,V,3.0
V3,64.0,41.0,24.0,30.0,47.0,41,3539.0,square1,r,0.4438,0,V,3.0
V3,65.0,36.0,18.0,34.0,48.0,36,3575.0,square1,r,0.0634,0,V,3.0
V3,66.0,39.0,28.0,35.0,45.0,45,3620.0,square4,i,0.2667,3,V,3.0
V3,67.0,42.0,21.0,32.0,46.0,46,3666.0,square4,i,0.4222,3,V,3.0
V3,68.0,40.0,24.0,35.0,53.0,53,3719.0,square4,i,1.0928,3,V,3.0
V3,69.0,48.0,23.0,34.0,50.0,50,3769.0,square4,i,0.1735,3,V,3.0
V3,70.0,40.0,27.0,31.0,49.0,27,3796.0,square2,j,0.2472,1,V,3.0
V3,71.0,41.0,23.0,28.0,51.0,51,3847.0,square4,i,0.075,3,V,3.0
V3,72.0,42.0,25.0,33.0,55.0,33,3880.0,square3,f,0.444,2,V,3.0
V3,73.0,41.0,24.0,35.0,55.0,55,3935.0,square4,i,0.5114,3,V,3.0
V3,74.0,38.0,26.0,28.0,53.0,38,3973.0,square1,r,0.4938,0,V,3.0
V3,75.0,54.0,39.0,69.0,50.0,50,4023.0,square4,i,0.2262,3,V,3.0
V3,76.0,55.0,42.0,64.0,53.0,53,4076.0,square4,i,0.0006,3,V,3.0
V3,77.0,59.0,37.0,66.0,44.0,44,4120.0,square4,i,1.1661,3,V,3.0
V3,78.0,58.0,38.0,60.0,46.0,38,4158.0,square2,j,0.1436,1,V,3.0
V3,79.0,54.0,35.0,66.0,49.0,54,4212.0,square1,r,0.0147,0,V,3.0
V3,80.0,60.0,36.0,68.0,44.0,60,4272.0,square1,r,0.049,0,V,3.0
V3,81.0,55.0,38.0,66.0,51.0,55,4327.0,square1,r,0.194,0,V,3.0
V3,82.0,57.0,47.0,64.0,50.0,64,4391.0,square3,f,0.0006,2,V,3.0
V3,83.0,57.0,37.0,63.0,45.0,63,4454.0,square3,f,0.1432,2,V,3.0
V3,84.0,54.0,40.0,65.0,53.0,65,4519.0,square3,f,0.2935,2,V,3.0
V3,85.0,58.0,41.0,63.0,48.0,41,4560.0,square2,j,0.4137,1,V,3.0
V3,86.0,53.0,38.0,57.0,49.0,49,4609.0,square4,i,0.2594,3,V,3.0
V3,87.0,49.0,42.0,60.0,43.0,60,4669.0,square3,f,0.1088,2,V,3.0
V3,88.0,56.0,35.0,70.0,46.0,70,4739.0,square3,f,0.0611,2,V,3.0
V3,89.0,58.0,39.0,63.0,52.0,63,4802.0,square3,f,0.1644,2,V,3.0
V3,90.0,59.0,43.0,63.0,45.0,63,4865.0,square3,f,0.0046,2,V,3.0
V3,91.0,54.0,37.0,69.0,49.0,54,4919.0,square1,r,0.4398,0,V,3.0
V3,92.0,56.0,41.0,61.0,47.0,61,4980.0,square3,f,0.1762,2,V,3.0
V3,93.0,58.0,35.0,68.0,47.0,68,5048.0,square3,f,0.3601,2,V,3.0
V3,94.0,61.0,37.0,67.0,51.0,67,5115.0,square3,f,0.2324,2,V,3.0
V3,95.0,57.0,32.0,64.0,47.0,64,5179.0,square3,f,0.427,2,V,3.0
V3,96.0,53.0,38.0,63.0,48.0,38,5217.0,square2,j,0.4549,1,V,3.0
V3,97.0,57.0,44.0,71.0,50.0,71,5288.0,square3,f,0.112,2,V,3.0
V3,98.0,56.0,39.0,70.0,47.0,70,5358.0,square3,f,0.0451,2,V,3.0
V3,99.0,62.0,40.0,67.0,49.0,67,5425.0,square3,f,0.3781,2,V,3.0
S5,0.0,90.0,70.0,79.0,84.0,79,79.0,square3,r,0.4197,2,S,5.0
S5,1.0,92.0,77.0,83.0,81.0,83,162.0,square3,r,0.0056,2,S,5.0
S5,2.0,83.0,72.0,81.0,76.0,81,243.0,square3,r,0.1484,2,S,5.0
S5,3.0,87.0,72.0,79.0,81.0,79,322.0,square3,r,0.0766,2,S,5.0
S5,4.0,86.0,81.0,78.0,72.0,78,400.0,square3,r,0.0782,2,S,5.0
S5,5.0,89.0,70.0,79.0,83.0,79,479.0,square3,r,0.4773,2,S,5.0
S5,6.0,86.0,69.0,81.0,81.0,86,565.0,square1,i,0.0268,0,S,5.0
S5,7.0,82.0,72.0,86.0,80.0,80,645.0,square4,j,0.0225,3,S,5.0
S5,8.0,84.0,67.0,80.0,77.0,67,712.0,square2,f,0.0393,1,S,5.0
S5,9.0,92.0,80.0,86.0,84.0,92,804.0,square1,i,0.3152,0,S,5.0
S5,10.0,82.0,71.0,80.0,80.0,82,886.0,square1,i,0.0492,0,S,5.0
S5,11.0,80.0,75.0,79.0,75.0,80,966.0,square1,i,0.5106,0,S,5.0
S5,12.0,84.0,75.0,80.0,82.0,84,1050.0,square1,i,0.3783,0,S,5.0
S5,13.0,85.0,74.0,74.0,81.0,85,1135.0,square1,i,0.1574,0,S,5.0
S5,14.0,81.0,79.0,85.0,81.0,81,1216.0,square1,i,0.0439,0,S,5.0
S5,15.0,81.0,75.0,76.0,77.0,81,1297.0,square1,i,0.0007,0,S,5.0
S5,16.0,86.0,74.0,78.0,74.0,86,1383.0,square1,i,0.1766,0,S,5.0
S5,17.0,81.0,77.0,81.0,77.0,81,1464.0,square1,i,0.1105,0,S,5.0
S5,18.0,87.0,70.0,84.0,82.0,87,1551.0,square1,i,0.4133,0,S,5.0
S5,19.0,84.0,76.0,83.0,76.0,84,1635.0,square1,i,0.0006,0,S,5.0
S5,20.0,79.0,78.0,82.0,76.0,79,1714.0,square1,i,0.2736,0,S,5.0
S5,21.0,86.0,68.0,80.0,72.0,86,1800.0,square1,i,0.5472,0,S,5.0
S5,22.0,93.0,80.0,85.0,84.0,93,1893.0,square1,i,0.1609,0,S,5.0
S5,23.0,87.0,73.0,76.0,70.0,87,1980.0,square1,i,0.2129,0,S,5.0
S5,24.0,85.0,69.0,81.0,78.0,85,2065.0,square1,i,0.1933,0,S,5.0
S5,25.0,89.0,77.0,77.0,76.0,89,2154.0,square1,i,0.2735,0,S,5.0
S5,26.0,84.0,71.0,81.0,75.0,84,2238.0,square1,i,0.0939,0,S,5.0
S5,27.0,84.0,75.0,82.0,71.0,84,2322.0,square1,i,0.0934,0,S,5.0
S5,28.0,83.0,72.0,82.0,78.0,83,2405.0,square1,i,0.0007,0,S,5.0
S5,29.0,91.0,67.0,79.0,74.0,79,2484.0,square3,r,0.0455,2,S,5.0
S5,30.0,82.0,69.0,81.0,77.0,82,2566.0,square1,i,0.4137,0,S,5.0
S5,31.0,82.0,72.0,80.0,78.0,82,2648.0,square1,i,0.5293,0,S,5.0
S5,32.0,83.0,73.0,91.0,80.0,83,2731.0,square1,i,0.3786,0,S,5.0
S5,33.0,83.0,68.0,85.0,78.0,83,2814.0,square1,i,0.2314,0,S,5.0
S5,34.0,89.0,79.0,83.0,77.0,89,2903.0,square1,i,0.0472,0,S,5.0
S5,35.0,88.0,72.0,79.0,80.0,88,2991.0,square1,i,0.0602,0,S,5.0
S5,36.0,90.0,74.0,84.0,76.0,90,3081.0,square1,i,0.2599,0,S,5.0
S5,37.0,85.0,75.0,80.0,82.0,85,3166.0,square1,i,0.2104,0,S,5.0
S5,38.0,78.0,74.0,85.0,79.0,78,3244.0,square1,i,0.3995,0,S,5.0
S5,39.0,87.0,73.0,87.0,85.0,87,3331.0,square1,i,0.3053,0,S,5.0
S5,40.0,83.0,67.0,81.0,80.0,83,3414.0,square1,i,0.6709,0,S,5.0
S5,41.0,82.0,69.0,88.0,80.0,82,3496.0,square1,i,0.3285,0,S,5.0
S5,42.0,85.0,78.0,91.0,80.0,85,3581.0,square1,i,0.1281,0,S,5.0
S5,43.0,89.0,74.0,78.0,74.0,89,3670.0,square1,i,0.2414,0,S,5.0
S5,44.0,90.0,74.0,77.0,85.0,90,3760.0,square1,i,0.0773,0,S,5.0
S5,45.0,89.0,68.0,81.0,78.0,89,3849.0,square1,i,0.5324,0,S,5.0
S5,46.0,86.0,70.0,86.0,68.0,86,3935.0,square1,i,0.229,0,S,5.0
S5,47.0,90.0,77.0,85.0,84.0,90,4025.0,square1,i,0.5155,0,S,5.0
S5,48.0,76.0,66.0,82.0,79.0,76,4101.0,square1,i,0.0006,0,S,5.0
S5,49.0,84.0,73.0,82.0,75.0,84,4185.0,square1,i,0.5665,0,S,5.0
S9,0.0,36.0,36.0,32.0,32.0,32,32.0,square3,j,1.2566,2,S,9.0
S9,1.0,40.0,29.0,36.0,24.0,24,56.0,square4,f,1.3607,3,S,9.0
S9,2.0,31.0,43.0,22.0,29.0,31,87.0,square1,r,0.1738,0,S,9.0
S9,3.0,41.0,33.0,28.0,27.0,33,120.0,square2,i,0.0258,1,S,9.0
S9,4.0,34.0,29.0,32.0,31.0,34,154.0,square1,r,0.0831,0,S,9.0
S9,5.0,41.0,32.0,22.0,29.0,41,195.0,square1,r,0.0424,0,S,9.0
S9,6.0,44.0,30.0,21.0,28.0,44,239.0,square1,r,0.3978,0,S,9.0
S9,7.0,39.0,37.0,26.0,24.0,39,278.0,square1,r,0.0692,0,S,9.0
S9,8.0,41.0,33.0,23.0,20.0,20,298.0,square4,f,0.1624,3,S,9.0
S9,9.0,30.0,35.0,24.0,27.0,24,322.0,square3,j,0.4068,2,S,9.0
S9,10.0,41.0,29.0,23.0,28.0,29,351.0,square2,i,0.1103,1,S,9.0
S9,11.0,37.0,38.0,22.0,33.0,37,388.0,square1,r,0.4247,0,S,9.0
S9,12.0,35.0,31.0,27.0,32.0,35,423.0,square1,r,0.2912,0,S,9.0
S9,13.0,38.0,37.0,30.0,29.0,38,461.0,square1,r,0.1104,0,S,9.0
S9,14.0,36.0,38.0,30.0,37.0,36,497.0,square1,r,0.1615,0,S,9.0
S9,15.0,40.0,29.0,27.0,24.0,40,537.0,square1,r,0.2108,0,S,9.0
S9,16.0,33.0,37.0,29.0,28.0,33,570.0,square1,r,0.1011,0,S,9.0
S9,17.0,41.0,32.0,36.0,31.0,41,611.0,square1,r,0.5149,0,S,9.0
S9,18.0,39.0,26.0,16.0,35.0,39,650.0,square1,r,0.2469,0,S,9.0
S9,19.0,35.0,30.0,23.0,27.0,35,685.0,square1,r,0.2498,0,S,9.0
S9,20.0,39.0,34.0,23.0,29.0,39,724.0,square1,r,0.094,0,S,9.0
S9,21.0,35.0,37.0,28.0,31.0,35,759.0,square1,r,0.0106,0,S,9.0
S9,22.0,37.0,30.0,23.0,38.0,37,796.0,square1,r,0.1575,0,S,9.0
S9,23.0,37.0,34.0,27.0,34.0,37,833.0,square1,r,0.2772,0,S,9.0
S9,24.0,31.0,34.0,26.0,27.0,31,864.0,square1,r,0.0771,0,S,9.0
S9,25.0,38.0,40.0,29.0,24.0,38,902.0,square1,r,0.1288,0,S,9.0
S9,26.0,43.0,31.0,21.0,24.0,43,945.0,square1,r,0.1102,0,S,9.0
S9,27.0,30.0,31.0,23.0,28.0,30,975.0,square1,r,0.1331,0,S,9.0
S9,28.0,44.0,32.0,31.0,32.0,44,1019.0,square1,r,0.5566,0,S,9.0
S9,29.0,36.0,38.0,22.0,22.0,36,1055.0,square1,r,0.1939,0,S,9.0
S9,30.0,41.0,30.0,26.0,29.0,41,1096.0,square1,r,0.2081,0,S,9.0
S9,31.0,39.0,37.0,30.0,32.0,39,1135.0,square1,r,1.775,0,S,9.0
S9,32.0,35.0,39.0,28.0,31.0,35,1170.0,square1,r,0.1047,0,S,9.0
S9,33.0,37.0,39.0,29.0,32.0,37,1207.0,square1,r,0.3276,0,S,9.0
S9,34.0,46.0,33.0,21.0,25.0,46,1253.0,square1,r,0.5424,0,S,9.0
S9,35.0,38.0,33.0,28.0,28.0,38,1291.0,square1,r,0.3599,0,S,9.0
S9,36.0,40.0,37.0,21.0,32.0,40,1331.0,square1,r,0.3811,0,S,9.0
S9,37.0,38.0,43.0,23.0,37.0,38,1369.0,square1,r,0.293,0,S,9.0
S9,38.0,36.0,31.0,29.0,29.0,36,1405.0,square1,r,0.6463,0,S,9.0
S9,39.0,41.0,29.0,26.0,28.0,41,1446.0,square1,r,0.6458,0,S,9.0
S9,40.0,32.0,36.0,26.0,28.0,32,1478.0,square1,r,0.3271,0,S,9.0
S9,41.0,40.0,37.0,35.0,28.0,40,1518.0,square1,r,0.2784,0,S,9.0
S9,42.0,43.0,32.0,26.0,37.0,43,1561.0,square1,r,0.182,0,S,9.0
S9,43.0,40.0,31.0,23.0,31.0,40,1601.0,square1,r,0.3938,0,S,9.0
S9,44.0,42.0,38.0,24.0,40.0,42,1643.0,square1,r,0.2481,0,S,9.0
S9,45.0,36.0,35.0,30.0,33.0,36,1679.0,square1,r,0.2928,0,S,9.0
S9,46.0,38.0,30.0,33.0,26.0,38,1717.0,square1,r,0.3124,0,S,9.0
S9,47.0,39.0,37.0,25.0,26.0,39,1756.0,square1,r,0.3958,0,S,9.0
S9,48.0,36.0,35.0,26.0,27.0,36,1792.0,square1,r,0.2424,0,S,9.0
S9,49.0,40.0,32.0,24.0,28.0,40,1832.0,square1,r,0.8107,0,S,9.0
S3,0.0,38.0,48.0,42.0,57.0,57,57.0,square4,j,0.6074,3,S,3.0
S3,1.0,29.0,43.0,51.0,57.0,57,114.0,square4,j,0.1288,3,S,3.0
S3,2.0,41.0,49.0,46.0,49.0,46,160.0,square3,r,0.2101,2,S,3.0
S3,3.0,44.0,50.0,45.0,52.0,44,204.0,square1,i,0.096,0,S,3.0
S3,4.0,37.0,51.0,45.0,58.0,51,255.0,square2,f,0.0549,1,S,3.0
S3,5.0,47.0,43.0,42.0,49.0,43,298.0,square2,f,0.2749,1,S,3.0
S3,6.0,44.0,53.0,51.0,58.0,58,356.0,square4,j,0.2454,3,S,3.0
S3,7.0,39.0,47.0,46.0,54.0,54,410.0,square4,j,0.1232,3,S,3.0
S3,8.0,43.0,53.0,41.0,52.0,52,462.0,square4,j,0.0007,3,S,3.0
S3,9.0,42.0,46.0,41.0,53.0,53,515.0,square4,j,0.111,3,S,3.0
S3,10.0,37.0,49.0,49.0,55.0,55,570.0,square4,j,0.14,3,S,3.0
S3,11.0,40.0,47.0,36.0,59.0,59,629.0,square4,j,0.0259,3,S,3.0
S3,12.0,46.0,51.0,39.0,56.0,56,685.0,square4,j,0.3818,3,S,3.0
S3,13.0,39.0,48.0,45.0,57.0,57,742.0,square4,j,0.5936,3,S,3.0
S3,14.0,39.0,55.0,43.0,47.0,47,789.0,square4,j,0.3094,3,S,3.0
S3,15.0,46.0,46.0,47.0,52.0,52,841.0,square4,j,0.2069,3,S,3.0
S3,16.0,42.0,49.0,50.0,55.0,55,896.0,square4,j,0.8588,3,S,3.0
S3,17.0,45.0,45.0,56.0,47.0,47,943.0,square4,j,0.4435,3,S,3.0
S3,18.0,46.0,43.0,45.0,50.0,50,993.0,square4,j,0.193,3,S,3.0
S3,19.0,41.0,47.0,50.0,55.0,55,1048.0,square4,j,0.0318,3,S,3.0
S3,20.0,45.0,52.0,49.0,52.0,52,1100.0,square4,j,0.6762,3,S,3.0
S3,21.0,40.0,43.0,47.0,46.0,46,1146.0,square4,j,0.5222,3,S,3.0
S3,22.0,45.0,46.0,44.0,47.0,47,1193.0,square4,j,0.227,3,S,3.0
S3,23.0,36.0,50.0,42.0,46.0,46,1239.0,square4,j,0.928,3,S,3.0
S3,24.0,42.0,54.0,49.0,55.0,55,1294.0,square4,j,0.0793,3,S,3.0
S3,25.0,43.0,51.0,44.0,54.0,54,1348.0,square4,j,0.0138,3,S,3.0
S3,26.0,49.0,50.0,52.0,52.0,52,1400.0,square4,j,0.2098,3,S,3.0
S3,27.0,47.0,52.0,44.0,50.0,50,1450.0,square4,j,1.01,3,S,3.0
S3,28.0,37.0,48.0,40.0,47.0,47,1497.0,square4,j,0.7125,3,S,3.0
S3,29.0,50.0,43.0,50.0,57.0,57,1554.0,square4,j,0.1432,3,S,3.0
S3,30.0,50.0,50.0,46.0,47.0,47,1601.0,square4,j,1.8986,3,S,3.0
S3,31.0,37.0,53.0,49.0,56.0,56,1657.0,square4,j,0.1603,3,S,3.0
S3,32.0,42.0,50.0,43.0,58.0,58,1715.0,square4,j,0.3265,3,S,3.0
S3,33.0,44.0,49.0,46.0,59.0,59,1774.0,square4,j,0.2173,3,S,3.0
S3,34.0,42.0,50.0,50.0,58.0,58,1832.0,square4,j,0.0954,3,S,3.0
S3,35.0,43.0,46.0,45.0,50.0,50,1882.0,square4,j,0.4265,3,S,3.0
S3,36.0,46.0,52.0,50.0,48.0,48,1930.0,square4,j,0.2606,3,S,3.0
S3,37.0,48.0,50.0,49.0,52.0,52,1982.0,square4,j,0.4776,3,S,3.0
S3,38.0,39.0,43.0,50.0,55.0,55,2037.0,square4,j,1.6392,3,S,3.0
S3,39.0,50.0,53.0,46.0,57.0,57,2094.0,square4,j,0.2751,3,S,3.0
S3,40.0,41.0,46.0,48.0,55.0,55,2149.0,square4,j,0.673,3,S,3.0
S3,41.0,49.0,49.0,40.0,56.0,56,2205.0,square4,j,1.1107,3,S,3.0
S3,42.0,47.0,49.0,43.0,48.0,48,2253.0,square4,j,0.3108,3,S,3.0
S3,43.0,46.0,43.0,41.0,58.0,58,2311.0,square4,j,0.1278,3,S,3.0
S3,44.0,46.0,52.0,51.0,55.0,55,2366.0,square4,j,0.284,3,S,3.0
S3,45.0,46.0,41.0,46.0,49.0,49,2415.0,square4,j,0.0147,3,S,3.0
S3,46.0,32.0,56.0,40.0,50.0,50,2465.0,square4,j,0.0624,3,S,3.0
S3,47.0,42.0,49.0,44.0,51.0,51,2516.0,square4,j,1.0617,3,S,3.0
S3,48.0,36.0,45.0,38.0,50.0,50,2566.0,square4,j,1.2911,3,S,3.0
S3,49.0,45.0,48.0,47.0,52.0,52,2618.0,square4,j,0.0301,3,S,3.0
S6,0.0,40.0,29.0,39.0,26.0,29,29.0,square2,j,0.418,1,S,6.0
S6,1.0,34.0,40.0,31.0,25.0,31,60.0,square3,i,0.289,2,S,6.0
S6,2.0,37.0,31.0,25.0,30.0,37,97.0,square1,f,0.0598,0,S,6.0
S6,3.0,39.0,37.0,30.0,27.0,27,124.0,square4,r,0.059,3,S,6.0
S6,4.0,42.0,40.0,28.0,32.0,42,166.0,square1,f,0.5438,0,S,6.0
S6,5.0,35.0,35.0,39.0,29.0,39,205.0,square3,i,0.1819,2,S,6.0
S6,6.0,48.0,30.0,37.0,33.0,30,235.0,square2,j,0.1271,1,S,6.0
S6,7.0,47.0,34.0,31.0,29.0,47,282.0,square1,f,0.0425,0,S,6.0
S6,8.0,43.0,35.0,30.0,25.0,43,325.0,square1,f,0.1812,0,S,6.0
S6,9.0,36.0,38.0,35.0,35.0,35,360.0,square4,r,0.3604,3,S,6.0
S6,10.0,38.0,35.0,31.0,21.0,38,398.0,square1,f,0.168,0,S,6.0
S6,11.0,30.0,36.0,31.0,20.0,30,428.0,square1,f,0.3637,0,S,6.0
S6,12.0,37.0,40.0,33.0,22.0,37,465.0,square1,f,0.2101,0,S,6.0
S6,13.0,32.0,41.0,35.0,29.0,32,497.0,square1,f,1.0606,0,S,6.0
S6,14.0,41.0,29.0,30.0,32.0,41,538.0,square1,f,0.0006,0,S,6.0
S6,15.0,43.0,37.0,31.0,27.0,43,581.0,square1,f,0.0774,0,S,6.0
S6,16.0,34.0,34.0,35.0,31.0,34,615.0,square1,f,0.4494,0,S,6.0
S6,17.0,47.0,40.0,29.0,28.0,47,662.0,square1,f,0.1438,0,S,6.0
S6,18.0,37.0,38.0,34.0,35.0,37,699.0,square1,f,0.5069,0,S,6.0
S6,19.0,36.0,39.0,31.0,26.0,36,735.0,square1,f,0.1772,0,S,6.0
S6,20.0,44.0,40.0,31.0,25.0,44,779.0,square1,f,0.0567,0,S,6.0
S6,21.0,39.0,41.0,35.0,24.0,39,818.0,square1,f,0.0786,0,S,6.0
S6,22.0,41.0,38.0,41.0,31.0,41,859.0,square1,f,0.7311,0,S,6.0
S6,23.0,37.0,31.0,30.0,32.0,37,896.0,square1,f,0.6942,0,S,6.0
S6,24.0,48.0,34.0,34.0,21.0,48,944.0,square1,f,1.1944,0,S,6.0
S6,25.0,42.0,45.0,26.0,29.0,42,986.0,square1,f,0.1618,0,S,6.0
S6,26.0,40.0,39.0,36.0,28.0,40,1026.0,square1,f,0.0008,0,S,6.0
S6,27.0,42.0,33.0,29.0,29.0,42,1068.0,square1,f,0.1439,0,S,6.0
S6,28.0,41.0,30.0,29.0,29.0,41,1109.0,square1,f,0.4769,0,S,6.0
S6,29.0,42.0,40.0,32.0,27.0,42,1151.0,square1,f,0.0652,0,S,6.0
S6,30.0,42.0,36.0,30.0,26.0,42,1193.0,square1,f,0.3947,0,S,6.0
S6,31.0,42.0,34.0,35.0,29.0,42,1235.0,square1,f,1.0799,0,S,6.0
S6,32.0,35.0,36.0,31.0,23.0,35,1270.0,square1,f,0.1932,0,S,6.0
S6,33.0,35.0,31.0,35.0,30.0,35,1305.0,square1,f,0.2101,0,S,6.0
S6,34.0,40.0,38.0,31.0,27.0,40,1345.0,square1,f,0.2947,0,S,6.0
S6,35.0,42.0,37.0,34.0,34.0,42,1387.0,square1,f,0.5019,0,S,6.0
S6,36.0,37.0,46.0,31.0,34.0,37,1424.0,square1,f,0.3417,0,S,6.0
S6,37.0,38.0,40.0,30.0,26.0,38,1462.0,square1,f,0.6322,0,S,6.0
S6,38.0,36.0,34.0,31.0,33.0,36,1498.0,square1,f,0.7556,0,S,6.0
S6,39.0,44.0,37.0,33.0,31.0,44,1542.0,square1,f,0.1095,0,S,6.0
S6,40.0,40.0,38.0,31.0,25.0,40,1582.0,square1,f,0.4942,0,S,6.0
S6,41.0,49.0,35.0,35.0,28.0,49,1631.0,square1,f,0.1106,0,S,6.0
S6,42.0,44.0,40.0,32.0,28.0,44,1675.0,square1,f,0.5717,0,S,6.0
S6,43.0,43.0,36.0,33.0,26.0,43,1718.0,square1,f,0.5611,0,S,6.0
S6,44.0,38.0,33.0,34.0,26.0,38,1756.0,square1,f,0.5638,0,S,6.0
S6,45.0,32.0,35.0,30.0,28.0,32,1788.0,square1,f,0.4281,0,S,6.0
S6,46.0,38.0,36.0,34.0,30.0,38,1826.0,square1,f,0.2435,0,S,6.0
S6,47.0,44.0,35.0,32.0,31.0,44,1870.0,square1,f,0.2611,0,S,6.0
S6,48.0,40.0,40.0,31.0,33.0,40,1910.0,square1,f,0.84,0,S,6.0
S6,49.0,41.0,29.0,29.0,29.0,41,1951.0,square1,f,1.3272,0,S,6.0
S12,0.0,38.0,42.0,30.0,42.0,42,42.0,square4,f,0.7161,3,S,12.0
S12,1.0,30.0,42.0,28.0,37.0,30,72.0,square1,j,0.0302,0,S,12.0
S12,2.0,34.0,41.0,38.0,43.0,41,113.0,square2,i,0.3592,1,S,12.0
S12,3.0,38.0,51.0,38.0,38.0,38,151.0,square3,r,0.2944,2,S,12.0
S12,4.0,32.0,37.0,33.0,45.0,45,196.0,square4,f,0.1436,3,S,12.0
S12,5.0,38.0,52.0,36.0,35.0,35,231.0,square4,f,0.5986,3,S,12.0
S12,6.0,30.0,43.0,30.0,38.0,43,274.0,square2,i,0.0746,1,S,12.0
S12,7.0,38.0,39.0,30.0,39.0,39,313.0,square2,i,0.0938,1,S,12.0
S12,8.0,37.0,49.0,35.0,38.0,35,348.0,square3,r,0.1902,2,S,12.0
S12,9.0,37.0,44.0,29.0,38.0,37,385.0,square1,j,0.126,0,S,12.0
S12,10.0,35.0,42.0,30.0,45.0,45,430.0,square4,f,0.1,3,S,12.0
S12,11.0,34.0,45.0,36.0,32.0,32,462.0,square4,f,0.1778,3,S,12.0
S12,12.0,33.0,45.0,35.0,42.0,45,507.0,square2,i,0.3453,1,S,12.0
S12,13.0,36.0,36.0,29.0,40.0,36,543.0,square1,j,0.3256,0,S,12.0
S12,14.0,36.0,49.0,32.0,42.0,32,575.0,square3,r,0.2647,2,S,12.0
S12,15.0,35.0,43.0,35.0,46.0,46,621.0,square4,f,0.2466,3,S,12.0
S12,16.0,39.0,48.0,41.0,43.0,43,664.0,square4,f,0.3097,3,S,12.0
S12,17.0,35.0,47.0,27.0,38.0,47,711.0,square2,i,0.3426,1,S,12.0
S12,18.0,37.0,51.0,33.0,33.0,37,748.0,square1,j,0.844,0,S,12.0
S12,19.0,41.0,42.0,33.0,36.0,36,784.0,square4,f,0.1448,3,S,12.0
S12,20.0,34.0,44.0,26.0,41.0,44,828.0,square2,i,0.3251,1,S,12.0
S12,21.0,35.0,37.0,29.0,35.0,29,857.0,square3,r,0.1613,2,S,12.0
S12,22.0,37.0,48.0,31.0,41.0,41,898.0,square4,f,0.2222,3,S,12.0
S12,23.0,36.0,43.0,27.0,45.0,36,934.0,square1,j,0.1265,0,S,12.0
S12,24.0,39.0,48.0,38.0,38.0,38,972.0,square4,f,0.2436,3,S,12.0
S12,25.0,31.0,43.0,30.0,40.0,40,1012.0,square4,f,0.0889,3,S,12.0
S12,26.0,35.0,48.0,34.0,33.0,33,1045.0,square4,f,0.1437,3,S,12.0
S12,27.0,46.0,46.0,28.0,38.0,46,1091.0,square2,i,0.009,1,S,12.0
S12,28.0,32.0,37.0,32.0,40.0,37,1128.0,square2,i,0.3736,1,S,12.0
S12,29.0,38.0,41.0,32.0,44.0,41,1169.0,square2,i,0.4932,1,S,12.0
S12,30.0,32.0,48.0,29.0,42.0,48,1217.0,square2,i,0.2432,1,S,12.0
S12,31.0,34.0,46.0,30.0,42.0,46,1263.0,square2,i,0.2925,1,S,12.0
S12,32.0,39.0,43.0,41.0,40.0,39,1302.0,square1,j,0.1229,0,S,12.0
S12,33.0,36.0,47.0,33.0,46.0,47,1349.0,square2,i,0.5417,1,S,12.0
S12,34.0,36.0,41.0,34.0,41.0,36,1385.0,square1,j,0.7048,0,S,12.0
S12,35.0,34.0,42.0,31.0,43.0,42,1427.0,square2,i,0.0261,1,S,12.0
S12,36.0,39.0,43.0,26.0,33.0,43,1470.0,square2,i,0.3246,1,S,12.0
S12,37.0,39.0,49.0,30.0,42.0,39,1509.0,square1,j,0.0924,0,S,12.0
S12,38.0,33.0,47.0,36.0,41.0,33,1542.0,square1,j,0.6265,0,S,12.0
S12,39.0,29.0,46.0,35.0,36.0,46,1588.0,square2,i,0.1766,1,S,12.0
S12,40.0,39.0,39.0,29.0,36.0,36,1624.0,square4,f,0.3498,3,S,12.0
S12,41.0,33.0,44.0,31.0,40.0,33,1657.0,square1,j,0.9327,0,S,12.0
S12,42.0,34.0,46.0,25.0,37.0,46,1703.0,square2,i,0.3645,1,S,12.0
S12,43.0,37.0,42.0,30.0,42.0,30,1733.0,square3,r,0.2433,2,S,12.0
S12,44.0,33.0,49.0,36.0,39.0,39,1772.0,square4,f,0.3439,3,S,12.0
S12,45.0,35.0,40.0,30.0,47.0,47,1819.0,square4,f,0.3928,3,S,12.0
S12,46.0,40.0,41.0,29.0,35.0,35,1854.0,square4,f,0.3098,3,S,12.0
S12,47.0,32.0,42.0,28.0,43.0,42,1896.0,square2,i,0.0922,1,S,12.0
S12,48.0,43.0,47.0,31.0,38.0,47,1943.0,square2,i,0.6275,1,S,12.0
S12,49.0,37.0,41.0,35.0,40.0,41,1984.0,square2,i,0.7267,1,S,12.0
S8,0.0,58.0,60.0,52.0,45.0,52,52.0,square3,j,0.6083,2,S,8.0
S8,1.0,55.0,57.0,56.0,52.0,56,108.0,square3,j,0.1806,2,S,8.0
S8,2.0,54.0,58.0,58.0,49.0,58,166.0,square3,j,0.111,2,S,8.0
S8,3.0,55.0,62.0,52.0,53.0,52,218.0,square3,j,0.5099,2,S,8.0
S8,4.0,55.0,60.0,49.0,51.0,55,273.0,square1,f,0.3453,0,S,8.0
S8,5.0,48.0,63.0,61.0,49.0,63,336.0,square2,r,0.0801,1,S,8.0
S8,6.0,58.0,63.0,59.0,55.0,55,391.0,square4,i,1.3739,3,S,8.0
S8,7.0,56.0,53.0,49.0,51.0,53,444.0,square2,r,0.0441,1,S,8.0
S8,8.0,61.0,63.0,66.0,49.0,61,505.0,square1,f,0.1621,0,S,8.0
S8,9.0,60.0,59.0,53.0,47.0,60,565.0,square1,f,0.0915,0,S,8.0
S8,10.0,55.0,63.0,52.0,55.0,52,617.0,square3,j,0.0258,2,S,8.0
S8,11.0,62.0,60.0,54.0,50.0,62,679.0,square1,f,0.106,0,S,8.0
S8,12.0,58.0,64.0,51.0,52.0,58,737.0,square1,f,0.4431,0,S,8.0
S8,13.0,62.0,59.0,53.0,53.0,59,796.0,square2,r,0.3285,1,S,8.0
S8,14.0,51.0,62.0,61.0,54.0,54,850.0,square4,i,0.0782,3,S,8.0
S8,15.0,56.0,68.0,56.0,50.0,68,918.0,square2,r,0.6122,1,S,8.0
S8,16.0,58.0,64.0,56.0,50.0,64,982.0,square2,r,0.3895,1,S,8.0
S8,17.0,64.0,63.0,60.0,42.0,64,1046.0,square1,f,0.8322,0,S,8.0
S8,18.0,54.0,64.0,57.0,55.0,54,1100.0,square1,f,0.4175,0,S,8.0
S8,19.0,56.0,53.0,57.0,53.0,53,1153.0,square2,r,0.461,1,S,8.0
S8,20.0,59.0,64.0,56.0,49.0,64,1217.0,square2,r,0.6441,1,S,8.0
S8,21.0,54.0,59.0,55.0,48.0,59,1276.0,square2,r,0.562,1,S,8.0
S8,22.0,63.0,63.0,59.0,49.0,63,1339.0,square2,r,0.0278,1,S,8.0
S8,23.0,59.0,60.0,48.0,52.0,52,1391.0,square4,i,0.244,3,S,8.0
S8,24.0,55.0,53.0,60.0,50.0,53,1444.0,square2,r,0.4611,1,S,8.0
S8,25.0,57.0,60.0,55.0,54.0,57,1501.0,square1,f,0.2157,0,S,8.0
S8,26.0,62.0,66.0,57.0,58.0,57,1558.0,square3,j,0.16,2,S,8.0
S8,27.0,58.0,55.0,52.0,48.0,58,1616.0,square1,f,0.1899,0,S,8.0
S8,28.0,53.0,59.0,53.0,55.0,53,1669.0,square1,f,0.1165,0,S,8.0
S8,29.0,60.0,58.0,57.0,53.0,58,1727.0,square2,r,0.1274,1,S,8.0
S8,30.0,57.0,67.0,52.0,56.0,67,1794.0,square2,r,0.3447,1,S,8.0
S8,31.0,60.0,58.0,52.0,50.0,58,1852.0,square2,r,0.1111,1,S,8.0
S8,32.0,54.0,61.0,56.0,57.0,61,1913.0,square2,r,0.4103,1,S,8.0
S8,33.0,66.0,64.0,63.0,52.0,64,1977.0,square2,r,0.4277,1,S,8.0
S8,34.0,54.0,65.0,66.0,56.0,65,2042.0,square2,r,0.2594,1,S,8.0
S8,35.0,54.0,62.0,61.0,48.0,62,2104.0,square2,r,0.4595,1,S,8.0
S8,36.0,53.0,63.0,54.0,55.0,63,2167.0,square2,r,0.4096,1,S,8.0
S8,37.0,64.0,58.0,57.0,51.0,51,2218.0,square4,i,0.2641,3,S,8.0
S8,38.0,68.0,65.0,59.0,57.0,59,2277.0,square3,j,0.3657,2,S,8.0
S8,39.0,64.0,65.0,51.0,55.0,51,2328.0,square3,j,0.5761,2,S,8.0
S8,40.0,63.0,61.0,57.0,47.0,47,2375.0,square4,i,0.0099,3,S,8.0
S8,41.0,65.0,58.0,55.0,49.0,58,2433.0,square2,r,0.0044,1,S,8.0
S8,42.0,52.0,60.0,51.0,56.0,52,2485.0,square1,f,0.2951,0,S,8.0
S8,43.0,63.0,57.0,48.0,50.0,57,2542.0,square2,r,0.5615,1,S,8.0
S8,44.0,59.0,63.0,53.0,53.0,63,2605.0,square2,r,0.1935,1,S,8.0
S8,45.0,62.0,62.0,60.0,53.0,62,2667.0,square2,r,0.1605,1,S,8.0
S8,46.0,56.0,62.0,57.0,60.0,62,2729.0,square2,r,0.2964,1,S,8.0
S8,47.0,60.0,63.0,58.0,56.0,63,2792.0,square2,r,0.4786,1,S,8.0
S8,48.0,59.0,63.0,49.0,53.0,63,2855.0,square2,r,0.4781,1,S,8.0
S8,49.0,67.0,67.0,59.0,55.0,67,2922.0,square1,f,0.4949,0,S,8.0
