block,Trial,square1,square2,square3,square4,currPoints,totalPoints,square,choiceKey.keys,choiceKey.rt,armNum,blockType,blockNum
prac,0.0,100.0,0.0,0.0,0.0,99999,0.0,invalid,,,-1,p,0.0
prac,1.0,100.0,0.0,0.0,0.0,99999,0.0,invalid,,,-1,p,0.0
prac,2.0,100.0,0.0,0.0,0.0,99999,0.0,invalid,,,-1,p,0.0
prac,3.0,100.0,0.0,0.0,0.0,99999,0.0,invalid,,,-1,p,0.0
prac,4.0,100.0,0.0,0.0,0.0,99999,0.0,invalid,,,-1,p,0.0
prac,5.0,100.0,0.0,0.0,0.0,99999,0.0,invalid,,,-1,p,0.0
prac,6.0,100.0,0.0,0.0,0.0,99999,0.0,invalid,,,-1,p,0.0
prac,7.0,100.0,0.0,0.0,0.0,99999,0.0,invalid,,,-1,p,0.0
prac,8.0,100.0,0.0,0.0,0.0,99999,0.0,invalid,,,-1,p,0.0
prac,9.0,100.0,0.0,0.0,0.0,99999,0.0,invalid,,,-1,p,0.0
V7,0.0,86.0,61.0,78.0,68.0,99999,0.0,invalid,,,-1,V,7.0
V7,1.0,95.0,62.0,79.0,70.0,95,95.0,square1,i,0.054,0,V,7.0
V7,2.0,89.0,67.0,81.0,77.0,81,176.0,square3,r,1.857,2,V,7.0
V7,3.0,90.0,56.0,85.0,72.0,72,248.0,square4,f,0.932,3,V,7.0
V7,4.0,91.0,65.0,77.0,71.0,65,313.0,square2,j,1.116,1,V,7.0
V7,5.0,91.0,58.0,84.0,72.0,58,371.0,square2,j,1.278,1,V,7.0
V7,6.0,94.0,65.0,87.0,72.0,94,465.0,square1,i,1.141,0,V,7.0
V7,7.0,89.0,67.0,79.0,67.0,89,554.0,square1,i,1.132,0,V,7.0
V7,8.0,91.0,65.0,84.0,68.0,84,638.0,square3,r,1.462,2,V,7.0
V7,9.0,92.0,60.0,87.0,69.0,69,707.0,square4,f,1.683,3,V,7.0
V7,10.0,90.0,67.0,81.0,76.0,67,774.0,square2,j,0.652,1,V,7.0
V7,11.0,86.0,67.0,83.0,73.0,86,860.0,square1,i,0.583,0,V,7.0
V7,12.0,90.0,62.0,80.0,72.0,90,950.0,square1,i,1.575,0,V,7.0
V7,13.0,84.0,60.0,88.0,71.0,84,1034.0,square1,i,1.312,0,V,7.0
V7,14.0,95.0,64.0,80.0,70.0,70,1104.0,square4,f,1.544,3,V,7.0
V7,15.0,86.0,60.0,81.0,70.0,86,1190.0,square1,i,1.161,0,V,7.0
V7,16.0,85.0,65.0,77.0,69.0,77,1267.0,square3,r,0.357,2,V,7.0
V7,17.0,91.0,65.0,81.0,70.0,65,1332.0,square2,j,0.598,1,V,7.0
V7,18.0,95.0,61.0,81.0,76.0,95,1427.0,square1,i,0.369,0,V,7.0
V7,19.0,90.0,58.0,79.0,72.0,90,1517.0,square1,i,0.2,0,V,7.0
V7,20.0,94.0,68.0,80.0,79.0,94,1611.0,square1,i,0.213,0,V,7.0
V7,21.0,92.0,66.0,82.0,70.0,92,1703.0,square1,i,0.108,0,V,7.0
V7,22.0,92.0,64.0,83.0,72.0,92,1795.0,square1,i,0.067,0,V,7.0
V7,23.0,91.0,68.0,82.0,73.0,91,1886.0,square1,i,0.259,0,V,7.0
V7,24.0,87.0,71.0,82.0,72.0,87,1973.0,square1,i,0.032,0,V,7.0
V7,25.0,91.0,68.0,90.0,74.0,91,2064.0,square1,i,0.064,0,V,7.0
V7,26.0,89.0,65.0,83.0,72.0,89,2153.0,square1,i,0.228,0,V,7.0
V7,27.0,91.0,61.0,81.0,73.0,91,2244.0,square1,i,0.227,0,V,7.0
V7,28.0,90.0,66.0,81.0,72.0,90,2334.0,square1,i,0.195,0,V,7.0
V7,29.0,89.0,67.0,77.0,71.0,89,2423.0,square1,i,0.087,0,V,7.0
V7,30.0,95.0,68.0,84.0,71.0,95,2518.0,square1,i,0.2,0,V,7.0
V7,31.0,95.0,61.0,81.0,70.0,95,2613.0,square1,i,0.219,0,V,7.0
V7,32.0,89.0,65.0,82.0,75.0,89,2702.0,square1,i,0.052,0,V,7.0
V7,33.0,77.0,50.0,80.0,61.0,80,2782.0,square3,r,0.345,2,V,7.0
V7,34.0,76.0,54.0,78.0,61.0,61,2843.0,square4,f,0.216,3,V,7.0
V7,35.0,71.0,51.0,80.0,64.0,51,2894.0,square2,j,0.062,1,V,7.0
V7,36.0,75.0,51.0,80.0,62.0,75,2969.0,square1,i,0.252,0,V,7.0
V7,37.0,73.0,58.0,86.0,63.0,73,3042.0,square1,i,0.147,0,V,7.0
V7,38.0,73.0,50.0,86.0,61.0,86,3128.0,square3,r,0.128,2,V,7.0
V7,39.0,67.0,53.0,78.0,61.0,78,3206.0,square3,r,0.069,2,V,7.0
V7,40.0,71.0,53.0,84.0,58.0,84,3290.0,square3,r,0.184,2,V,7.0
V7,41.0,75.0,51.0,83.0,63.0,83,3373.0,square3,r,0.179,2,V,7.0
V7,42.0,69.0,48.0,87.0,63.0,87,3460.0,square3,r,0.109,2,V,7.0
V7,43.0,70.0,58.0,81.0,60.0,81,3541.0,square3,r,0.076,2,V,7.0
V7,44.0,68.0,56.0,76.0,63.0,68,3609.0,square1,i,0.186,0,V,7.0
V7,45.0,74.0,59.0,76.0,56.0,59,3668.0,square2,j,0.319,1,V,7.0
V7,46.0,72.0,54.0,77.0,61.0,61,3729.0,square4,f,0.078,3,V,7.0
V7,47.0,69.0,47.0,81.0,62.0,81,3810.0,square3,r,0.08,2,V,7.0
V7,48.0,75.0,52.0,81.0,57.0,81,3891.0,square3,r,0.105,2,V,7.0
V7,49.0,74.0,55.0,78.0,60.0,78,3969.0,square3,r,0.001,2,V,7.0
V7,50.0,71.0,51.0,80.0,61.0,80,4049.0,square3,r,0.211,2,V,7.0
V7,51.0,75.0,55.0,85.0,62.0,85,4134.0,square3,r,0.218,2,V,7.0
V7,52.0,75.0,59.0,76.0,59.0,76,4210.0,square3,r,0.064,2,V,7.0
V7,53.0,72.0,53.0,84.0,66.0,84,4294.0,square3,r,0.201,2,V,7.0
V7,54.0,69.0,51.0,81.0,60.0,81,4375.0,square3,r,0.196,2,V,7.0
V7,55.0,74.0,56.0,75.0,54.0,75,4450.0,square3,r,0.088,2,V,7.0
V7,56.0,76.0,51.0,83.0,58.0,83,4533.0,square3,r,0.163,2,V,7.0
V7,57.0,71.0,53.0,80.0,64.0,80,4613.0,square3,r,0.112,2,V,7.0
V7,58.0,81.0,56.0,79.0,61.0,79,4692.0,square3,r,0.166,2,V,7.0
V7,59.0,71.0,55.0,83.0,59.0,83,4775.0,square3,r,0.152,2,V,7.0
V7,60.0,73.0,53.0,83.0,64.0,83,4858.0,square3,r,0.165,2,V,7.0
V7,61.0,70.0,53.0,77.0,63.0,77,4935.0,square3,r,0.084,2,V,7.0
V7,62.0,71.0,54.0,76.0,61.0,76,5011.0,square3,r,0.06,2,V,7.0
V7,63.0,68.0,45.0,79.0,65.0,79,5090.0,square3,r,0.23,2,V,7.0
V7,64.0,65.0,55.0,79.0,59.0,79,5169.0,square3,r,0.131,2,V,7.0
V7,65.0,74.0,54.0,81.0,61.0,81,5250.0,square3,r,0.013,2,V,7.0
V7,66.0,70.0,56.0,81.0,63.0,81,5331.0,square3,r,0.083,2,V,7.0
V7,67.0,70.0,85.0,64.0,92.0,64,5395.0,square3,r,0.145,2,V,7.0
V7,68.0,73.0,85.0,68.0,92.0,92,5487.0,square4,f,0.363,3,V,7.0
V7,69.0,75.0,83.0,70.0,91.0,91,5578.0,square4,f,0.113,3,V,7.0
V7,70.0,75.0,85.0,69.0,91.0,91,5669.0,square4,f,0.079,3,V,7.0
V7,71.0,71.0,86.0,65.0,94.0,94,5763.0,square4,f,0.076,3,V,7.0
V7,72.0,77.0,86.0,65.0,98.0,98,5861.0,square4,f,0.056,3,V,7.0
V7,73.0,77.0,84.0,63.0,94.0,94,5955.0,square4,f,0.088,3,V,7.0
V7,74.0,71.0,86.0,64.0,91.0,91,6046.0,square4,f,0.182,3,V,7.0
V7,75.0,73.0,90.0,60.0,90.0,90,6136.0,square4,f,0.13,3,V,7.0
V7,76.0,79.0,84.0,68.0,95.0,95,6231.0,square4,f,0.116,3,V,7.0
V7,77.0,73.0,85.0,66.0,89.0,89,6320.0,square4,f,0.029,3,V,7.0
V7,78.0,75.0,82.0,67.0,91.0,91,6411.0,square4,f,0.003,3,V,7.0
V7,79.0,72.0,85.0,60.0,90.0,90,6501.0,square4,f,0.262,3,V,7.0
V7,80.0,73.0,83.0,66.0,97.0,97,6598.0,square4,f,0.201,3,V,7.0
V7,81.0,73.0,84.0,67.0,92.0,92,6690.0,square4,f,0.145,3,V,7.0
V7,82.0,69.0,84.0,65.0,91.0,91,6781.0,square4,f,0.13,3,V,7.0
V7,83.0,76.0,83.0,72.0,99.0,99,6880.0,square4,f,0.014,3,V,7.0
V7,84.0,72.0,84.0,70.0,94.0,94,6974.0,square4,f,0.001,3,V,7.0
V7,85.0,77.0,83.0,67.0,88.0,88,7062.0,square4,f,0.147,3,V,7.0
V7,86.0,76.0,80.0,67.0,90.0,90,7152.0,square4,f,0.134,3,V,7.0
V7,87.0,70.0,86.0,67.0,95.0,95,7247.0,square4,f,0.128,3,V,7.0
V7,88.0,76.0,84.0,67.0,100.0,100,7347.0,square4,f,0.116,3,V,7.0
V7,89.0,71.0,88.0,60.0,97.0,97,7444.0,square4,f,0.079,3,V,7.0
V7,90.0,69.0,82.0,71.0,95.0,95,7539.0,square4,f,0.071,3,V,7.0
V7,91.0,80.0,84.0,65.0,92.0,92,7631.0,square4,f,0.049,3,V,7.0
V7,92.0,77.0,85.0,68.0,85.0,85,7716.0,square4,f,0.013,3,V,7.0
V7,93.0,72.0,84.0,66.0,91.0,91,7807.0,square4,f,0.077,3,V,7.0
V7,94.0,69.0,83.0,66.0,95.0,95,7902.0,square4,f,0.063,3,V,7.0
V7,95.0,70.0,86.0,75.0,91.0,91,7993.0,square4,f,0.037,3,V,7.0
V7,96.0,74.0,85.0,66.0,88.0,88,8081.0,square4,f,0.069,3,V,7.0
V7,97.0,77.0,82.0,73.0,91.0,91,8172.0,square4,f,0.097,3,V,7.0
V7,98.0,76.0,91.0,62.0,94.0,94,8266.0,square4,f,0.199,3,V,7.0
V7,99.0,74.0,84.0,67.0,88.0,88,8354.0,square4,f,0.664,3,V,7.0
V3,0.0,62.0,45.0,70.0,53.0,70,70.0,square3,i,1.34,2,V,3.0
V3,1.0,63.0,47.0,76.0,60.0,60,130.0,square4,r,0.183,3,V,3.0
V3,2.0,65.0,54.0,73.0,57.0,54,184.0,square2,f,0.304,1,V,3.0
V3,3.0,68.0,51.0,71.0,51.0,68,252.0,square1,j,0.164,0,V,3.0
V3,4.0,61.0,49.0,75.0,53.0,75,327.0,square3,i,0.003,2,V,3.0
V3,5.0,65.0,47.0,74.0,50.0,74,401.0,square3,i,0.347,2,V,3.0
V3,6.0,61.0,51.0,72.0,57.0,72,473.0,square3,i,0.049,2,V,3.0
V3,7.0,67.0,49.0,75.0,55.0,75,548.0,square3,i,0.014,2,V,3.0
V3,8.0,64.0,48.0,76.0,56.0,76,624.0,square3,i,0.137,2,V,3.0
V3,9.0,67.0,49.0,71.0,56.0,71,695.0,square3,i,0.054,2,V,3.0
V3,10.0,65.0,50.0,71.0,56.0,71,766.0,square3,i,0.014,2,V,3.0
V3,11.0,63.0,43.0,78.0,58.0,78,844.0,square3,i,0.099,2,V,3.0
V3,12.0,66.0,53.0,73.0,54.0,73,917.0,square3,i,0.079,2,V,3.0
V3,13.0,64.0,46.0,78.0,51.0,78,995.0,square3,i,0.076,2,V,3.0
V3,14.0,67.0,51.0,71.0,58.0,51,1046.0,square2,f,0.128,1,V,3.0
V3,15.0,61.0,50.0,73.0,54.0,61,1107.0,square1,j,0.298,0,V,3.0
V3,16.0,64.0,52.0,74.0,54.0,54,1161.0,square4,r,0.082,3,V,3.0
V3,17.0,61.0,48.0,74.0,55.0,74,1235.0,square3,i,0.003,2,V,3.0
V3,18.0,65.0,50.0,70.0,59.0,70,1305.0,square3,i,0.13,2,V,3.0
V3,19.0,64.0,52.0,76.0,56.0,76,1381.0,square3,i,0.064,2,V,3.0
V3,20.0,64.0,50.0,69.0,58.0,69,1450.0,square3,i,0.046,2,V,3.0
V3,21.0,66.0,50.0,72.0,56.0,72,1522.0,square3,i,0.119,2,V,3.0
V3,22.0,43.0,48.0,40.0,62.0,40,1562.0,square3,i,0.065,2,V,3.0
V3,23.0,41.0,51.0,35.0,59.0,41,1603.0,square1,j,0.366,0,V,3.0
V3,24.0,51.0,51.0,37.0,60.0,60,1663.0,square4,r,0.046,3,V,3.0
V3,25.0,45.0,53.0,36.0,57.0,53,1716.0,square2,f,0.179,1,V,3.0
V3,26.0,44.0,51.0,38.0,59.0,59,1775.0,square4,r,0.119,3,V,3.0
V3,27.0,43.0,51.0,34.0,66.0,66,1841.0,square4,r,0.015,3,V,3.0
V3,28.0,47.0,51.0,40.0,67.0,67,1908.0,square4,r,0.022,3,V,3.0
V3,29.0,42.0,55.0,35.0,65.0,65,1973.0,square4,r,0.23,3,V,3.0
V3,30.0,49.0,54.0,36.0,62.0,62,2035.0,square4,r,0.112,3,V,3.0
V3,31.0,50.0,53.0,42.0,66.0,42,2077.0,square3,i,0.086,2,V,3.0
V3,32.0,47.0,53.0,34.0,58.0,58,2135.0,square4,r,0.114,3,V,3.0
V3,33.0,45.0,56.0,34.0,62.0,62,2197.0,square4,r,0.124,3,V,3.0
V3,34.0,48.0,54.0,38.0,64.0,64,2261.0,square4,r,0.195,3,V,3.0
V3,35.0,39.0,55.0,42.0,65.0,65,2326.0,square4,r,0.047,3,V,3.0
V3,36.0,46.0,57.0,41.0,63.0,63,2389.0,square4,r,0.12,3,V,3.0
V3,37.0,43.0,54.0,41.0,65.0,65,2454.0,square4,r,0.179,3,V,3.0
V3,38.0,47.0,52.0,37.0,63.0,63,2517.0,square4,r,0.044,3,V,3.0
V3,39.0,47.0,53.0,38.0,55.0,55,2572.0,square4,r,0.093,3,V,3.0
V3,40.0,41.0,54.0,39.0,64.0,39,2611.0,square3,i,0.148,2,V,3.0
V3,41.0,48.0,52.0,38.0,64.0,52,2663.0,square2,f,0.048,1,V,3.0
V3,42.0,45.0,50.0,34.0,63.0,45,2708.0,square1,j,0.149,0,V,3.0
V3,43.0,44.0,50.0,34.0,62.0,62,2770.0,square4,r,0.113,3,V,3.0
V3,44.0,47.0,55.0,39.0,65.0,65,2835.0,square4,r,0.152,3,V,3.0
V3,45.0,45.0,55.0,31.0,63.0,63,2898.0,square4,r,0.018,3,V,3.0
V3,46.0,42.0,52.0,38.0,64.0,64,2962.0,square4,r,0.229,3,V,3.0
V3,47.0,44.0,53.0,37.0,55.0,37,2999.0,square3,i,0.208,2,V,3.0
V3,48.0,44.0,49.0,37.0,58.0,49,3048.0,square2,f,0.196,1,V,3.0
V3,49.0,48.0,58.0,35.0,54.0,48,3096.0,square1,j,0.05,0,V,3.0
V3,50.0,42.0,28.0,30.0,52.0,52,3148.0,square4,r,0.156,3,V,3.0
V3,51.0,46.0,29.0,32.0,51.0,51,3199.0,square4,r,0.032,3,V,3.0
V3,52.0,37.0,20.0,36.0,50.0,50,3249.0,square4,r,0.001,3,V,3.0
V3,53.0,44.0,22.0,34.0,55.0,55,3304.0,square4,r,0.012,3,V,3.0
V3,54.0,37.0,27.0,26.0,50.0,50,3354.0,square4,r,0.163,3,V,3.0
V3,55.0,41.0,21.0,39.0,53.0,53,3407.0,square4,r,0.096,3,V,3.0
V3,56.0,40.0,20.0,38.0,51.0,51,3458.0,square4,r,0.03,3,V,3.0
V3,57.0,44.0,28.0,31.0,57.0,57,3515.0,square4,r,0.014,3,V,3.0
V3,58.0,46.0,20.0,28.0,49.0,49,3564.0,square4,r,0.064,3,V,3.0
V3,59.0,44.0,24.0,30.0,55.0,24,3588.0,square2,f,0.327,1,V,3.0
V3,60.0,42.0,29.0,29.0,51.0,29,3617.0,square3,i,0.256,2,V,3.0
V3,61.0,41.0,21.0,30.0,46.0,41,3658.0,square1,j,0.001,0,V,3.0
V3,62.0,41.0,27.0,31.0,49.0,49,3707.0,square4,r,0.001,3,V,3.0
V3,63.0,42.0,27.0,34.0,51.0,51,3758.0,square4,r,0.0,3,V,3.0
V3,64.0,41.0,24.0,30.0,47.0,47,3805.0,square4,r,0.032,3,V,3.0
V3,65.0,36.0,18.0,34.0,48.0,48,3853.0,square4,r,0.119,3,V,3.0
V3,66.0,39.0,28.0,35.0,45.0,45,3898.0,square4,r,0.054,3,V,3.0
V3,67.0,42.0,21.0,32.0,46.0,46,3944.0,square4,r,0.093,3,V,3.0
V3,68.0,40.0,24.0,35.0,53.0,53,3997.0,square4,r,0.166,3,V,3.0
V3,69.0,48.0,23.0,34.0,50.0,50,4047.0,square4,r,0.003,3,V,3.0
V3,70.0,40.0,27.0,31.0,49.0,49,4096.0,square4,r,0.146,3,V,3.0
V3,71.0,41.0,23.0,28.0,51.0,51,4147.0,square4,r,0.131,3,V,3.0
V3,72.0,42.0,25.0,33.0,55.0,55,4202.0,square4,r,0.019,3,V,3.0
V3,73.0,41.0,24.0,35.0,55.0,35,4237.0,square3,i,0.116,2,V,3.0
V3,74.0,38.0,26.0,28.0,53.0,26,4263.0,square2,f,0.099,1,V,3.0
V3,75.0,54.0,39.0,69.0,50.0,54,4317.0,square1,j,0.05,0,V,3.0
V3,76.0,55.0,42.0,64.0,53.0,53,4370.0,square4,r,0.166,3,V,3.0
V3,77.0,59.0,37.0,66.0,44.0,59,4429.0,square1,j,0.131,0,V,3.0
V3,78.0,58.0,38.0,60.0,46.0,58,4487.0,square1,j,0.133,0,V,3.0
V3,79.0,54.0,35.0,66.0,49.0,54,4541.0,square1,j,0.035,0,V,3.0
V3,80.0,60.0,36.0,68.0,44.0,44,4585.0,square4,r,0.101,3,V,3.0
V3,81.0,55.0,38.0,66.0,51.0,55,4640.0,square1,j,0.012,0,V,3.0
V3,82.0,57.0,47.0,64.0,50.0,57,4697.0,square1,j,0.128,0,V,3.0
V3,83.0,57.0,37.0,63.0,45.0,57,4754.0,square1,j,0.015,0,V,3.0
V3,84.0,54.0,40.0,65.0,53.0,65,4819.0,square3,i,0.099,2,V,3.0
V3,85.0,58.0,41.0,63.0,48.0,63,4882.0,square3,i,0.132,2,V,3.0
V3,86.0,53.0,38.0,57.0,49.0,57,4939.0,square3,i,0.099,2,V,3.0
V3,87.0,49.0,42.0,60.0,43.0,60,4999.0,square3,i,0.012,2,V,3.0
V3,88.0,56.0,35.0,70.0,46.0,70,5069.0,square3,i,0.149,2,V,3.0
V3,89.0,58.0,39.0,63.0,52.0,63,5132.0,square3,i,0.0,2,V,3.0
V3,90.0,59.0,43.0,63.0,45.0,43,5175.0,square2,f,0.086,1,V,3.0
V3,91.0,54.0,37.0,69.0,49.0,54,5229.0,square1,j,0.17,0,V,3.0
V3,92.0,56.0,41.0,61.0,47.0,47,5276.0,square4,r,0.082,3,V,3.0
V3,93.0,58.0,35.0,68.0,47.0,68,5344.0,square3,i,0.113,2,V,3.0
V3,94.0,61.0,37.0,67.0,51.0,67,5411.0,square3,i,0.136,2,V,3.0
V3,95.0,57.0,32.0,64.0,47.0,64,5475.0,square3,i,0.038,2,V,3.0
V3,96.0,53.0,38.0,63.0,48.0,63,5538.0,square3,i,0.013,2,V,3.0
V3,97.0,57.0,44.0,71.0,50.0,71,5609.0,square3,i,0.198,2,V,3.0
V3,98.0,56.0,39.0,70.0,47.0,70,5679.0,square3,i,0.037,2,V,3.0
V3,99.0,62.0,40.0,67.0,49.0,67,5746.0,square3,i,0.018,2,V,3.0
V12,0.0,47.0,30.0,38.0,55.0,30,30.0,square2,i,0.259,1,V,12.0
V12,1.0,46.0,33.0,39.0,57.0,46,76.0,square1,r,0.102,0,V,12.0
V12,2.0,51.0,29.0,42.0,52.0,52,128.0,square4,f,0.225,3,V,12.0
V12,3.0,52.0,30.0,38.0,62.0,38,166.0,square3,j,0.028,2,V,12.0
V12,4.0,48.0,30.0,39.0,62.0,62,228.0,square4,f,0.048,3,V,12.0
V12,5.0,55.0,34.0,43.0,61.0,61,289.0,square4,f,0.032,3,V,12.0
V12,6.0,45.0,35.0,42.0,56.0,56,345.0,square4,f,0.171,3,V,12.0
V12,7.0,48.0,29.0,35.0,57.0,48,393.0,square1,r,0.013,0,V,12.0
V12,8.0,46.0,33.0,38.0,59.0,59,452.0,square4,f,0.028,3,V,12.0
V12,9.0,44.0,31.0,42.0,56.0,56,508.0,square4,f,0.081,3,V,12.0
V12,10.0,48.0,34.0,45.0,55.0,55,563.0,square4,f,0.025,3,V,12.0
V12,11.0,45.0,32.0,41.0,55.0,55,618.0,square4,f,0.067,3,V,12.0
V12,12.0,52.0,26.0,42.0,57.0,57,675.0,square4,f,0.019,3,V,12.0
V12,13.0,56.0,31.0,41.0,54.0,54,729.0,square4,f,0.082,3,V,12.0
V12,14.0,44.0,34.0,40.0,64.0,64,793.0,square4,f,0.0,3,V,12.0
V12,15.0,48.0,32.0,39.0,61.0,61,854.0,square4,f,0.145,3,V,12.0
V12,16.0,49.0,33.0,37.0,58.0,58,912.0,square4,f,0.164,3,V,12.0
V12,17.0,45.0,33.0,43.0,57.0,57,969.0,square4,f,0.014,3,V,12.0
V12,18.0,45.0,28.0,40.0,58.0,58,1027.0,square4,f,0.047,3,V,12.0
V12,19.0,42.0,33.0,43.0,59.0,59,1086.0,square4,f,0.179,3,V,12.0
V12,20.0,46.0,30.0,38.0,62.0,62,1148.0,square4,f,0.017,3,V,12.0
V12,21.0,46.0,35.0,40.0,55.0,55,1203.0,square4,f,0.099,3,V,12.0
V12,22.0,46.0,34.0,36.0,63.0,63,1266.0,square4,f,0.099,3,V,12.0
V12,23.0,54.0,34.0,42.0,56.0,56,1322.0,square4,f,0.165,3,V,12.0
V12,24.0,44.0,30.0,41.0,59.0,59,1381.0,square4,f,0.08,3,V,12.0
V12,25.0,49.0,33.0,37.0,64.0,64,1445.0,square4,f,0.031,3,V,12.0
V12,26.0,52.0,34.0,39.0,57.0,57,1502.0,square4,f,0.001,3,V,12.0
V12,27.0,50.0,26.0,37.0,55.0,55,1557.0,square4,f,0.13,3,V,12.0
V12,28.0,41.0,29.0,46.0,21.0,29,1586.0,square2,i,0.031,1,V,12.0
V12,29.0,41.0,28.0,51.0,20.0,41,1627.0,square1,r,0.03,0,V,12.0
V12,30.0,32.0,31.0,46.0,22.0,46,1673.0,square3,j,0.284,2,V,12.0
V12,31.0,38.0,28.0,45.0,22.0,22,1695.0,square4,f,0.18,3,V,12.0
V12,32.0,35.0,27.0,44.0,16.0,44,1739.0,square3,j,0.082,2,V,12.0
V12,33.0,39.0,29.0,49.0,21.0,49,1788.0,square3,j,0.119,2,V,12.0
V12,34.0,39.0,28.0,49.0,15.0,49,1837.0,square3,j,0.114,2,V,12.0
V12,35.0,36.0,29.0,50.0,17.0,50,1887.0,square3,j,0.001,2,V,12.0
V12,36.0,41.0,28.0,48.0,12.0,48,1935.0,square3,j,0.189,2,V,12.0
V12,37.0,34.0,29.0,46.0,25.0,46,1981.0,square3,j,0.111,2,V,12.0
V12,38.0,38.0,28.0,51.0,19.0,51,2032.0,square3,j,0.115,2,V,12.0
V12,39.0,39.0,31.0,45.0,13.0,39,2071.0,square1,r,0.149,0,V,12.0
V12,40.0,35.0,28.0,46.0,26.0,28,2099.0,square2,i,0.166,1,V,12.0
V12,41.0,38.0,27.0,46.0,20.0,20,2119.0,square4,f,0.133,3,V,12.0
V12,42.0,40.0,26.0,50.0,23.0,50,2169.0,square3,j,0.047,2,V,12.0
V12,43.0,33.0,30.0,45.0,18.0,45,2214.0,square3,j,0.146,2,V,12.0
V12,44.0,39.0,31.0,46.0,22.0,46,2260.0,square3,j,0.097,2,V,12.0
V12,45.0,32.0,26.0,42.0,20.0,42,2302.0,square3,j,0.098,2,V,12.0
V12,46.0,36.0,29.0,43.0,24.0,43,2345.0,square3,j,0.113,2,V,12.0
V12,47.0,37.0,30.0,46.0,21.0,46,2391.0,square3,j,0.0,2,V,12.0
V12,48.0,37.0,27.0,44.0,19.0,44,2435.0,square3,j,0.179,2,V,12.0
V12,49.0,36.0,33.0,55.0,16.0,55,2490.0,square3,j,0.001,2,V,12.0
V12,50.0,45.0,28.0,44.0,18.0,44,2534.0,square3,j,0.066,2,V,12.0
V12,51.0,35.0,32.0,49.0,19.0,49,2583.0,square3,j,0.131,2,V,12.0
V12,52.0,36.0,56.0,31.0,52.0,31,2614.0,square3,j,0.129,2,V,12.0
V12,53.0,36.0,57.0,29.0,45.0,36,2650.0,square1,r,0.086,0,V,12.0
V12,54.0,38.0,61.0,28.0,51.0,61,2711.0,square2,i,0.15,1,V,12.0
V12,55.0,35.0,60.0,29.0,47.0,47,2758.0,square4,f,0.181,3,V,12.0
V12,56.0,34.0,62.0,29.0,46.0,62,2820.0,square2,i,0.166,1,V,12.0
V12,57.0,43.0,57.0,32.0,46.0,57,2877.0,square2,i,0.185,1,V,12.0
V12,58.0,40.0,59.0,32.0,50.0,59,2936.0,square2,i,0.156,1,V,12.0
V12,59.0,41.0,62.0,33.0,48.0,62,2998.0,square2,i,0.134,1,V,12.0
V12,60.0,36.0,61.0,32.0,49.0,61,3059.0,square2,i,0.014,1,V,12.0
V12,61.0,39.0,56.0,32.0,44.0,56,3115.0,square2,i,0.063,1,V,12.0
V12,62.0,39.0,57.0,30.0,46.0,57,3172.0,square2,i,0.001,1,V,12.0
V12,63.0,42.0,53.0,29.0,46.0,53,3225.0,square2,i,0.062,1,V,12.0
V12,64.0,35.0,57.0,32.0,50.0,57,3282.0,square2,i,0.151,1,V,12.0
V12,65.0,44.0,58.0,32.0,49.0,58,3340.0,square2,i,0.152,1,V,12.0
V12,66.0,44.0,56.0,29.0,52.0,56,3396.0,square2,i,0.001,1,V,12.0
V12,67.0,41.0,60.0,30.0,49.0,60,3456.0,square2,i,0.162,1,V,12.0
V12,68.0,42.0,58.0,32.0,45.0,58,3514.0,square2,i,0.079,1,V,12.0
V12,69.0,36.0,60.0,33.0,50.0,60,3574.0,square2,i,0.095,1,V,12.0
V12,70.0,36.0,57.0,27.0,46.0,57,3631.0,square2,i,0.122,1,V,12.0
V12,71.0,41.0,59.0,32.0,48.0,59,3690.0,square2,i,0.078,1,V,12.0
V12,72.0,34.0,59.0,31.0,49.0,59,3749.0,square2,i,0.045,1,V,12.0
V12,73.0,71.0,53.0,65.0,49.0,53,3802.0,square2,i,0.161,1,V,12.0
V12,74.0,69.0,49.0,63.0,45.0,49,3851.0,square2,i,0.0,1,V,12.0
V12,75.0,72.0,51.0,56.0,46.0,51,3902.0,square2,i,0.029,1,V,12.0
V12,76.0,72.0,48.0,58.0,43.0,48,3950.0,square2,i,0.101,1,V,12.0
V12,77.0,74.0,57.0,59.0,44.0,57,4007.0,square2,i,0.113,1,V,12.0
V12,78.0,69.0,55.0,63.0,50.0,55,4062.0,square2,i,0.148,1,V,12.0
V12,79.0,73.0,53.0,58.0,43.0,53,4115.0,square2,i,0.059,1,V,12.0
V12,80.0,71.0,47.0,65.0,40.0,47,4162.0,square2,i,0.046,1,V,12.0
V12,81.0,66.0,49.0,57.0,40.0,40,4202.0,square4,f,0.108,3,V,12.0
V12,82.0,71.0,53.0,57.0,48.0,71,4273.0,square1,r,0.08,0,V,12.0
V12,83.0,70.0,50.0,56.0,49.0,56,4329.0,square3,j,0.069,2,V,12.0
V12,84.0,69.0,45.0,64.0,43.0,69,4398.0,square1,r,0.191,0,V,12.0
V12,85.0,64.0,48.0,54.0,42.0,64,4462.0,square1,r,0.077,0,V,12.0
V12,86.0,71.0,49.0,63.0,44.0,71,4533.0,square1,r,0.145,0,V,12.0
V12,87.0,72.0,52.0,55.0,42.0,72,4605.0,square1,r,0.01,0,V,12.0
V12,88.0,64.0,48.0,59.0,44.0,64,4669.0,square1,r,0.129,0,V,12.0
V12,89.0,69.0,48.0,62.0,45.0,69,4738.0,square1,r,0.316,0,V,12.0
V12,90.0,68.0,56.0,60.0,42.0,68,4806.0,square1,r,0.049,0,V,12.0
V12,91.0,69.0,52.0,62.0,45.0,69,4875.0,square1,r,0.156,0,V,12.0
V12,92.0,65.0,50.0,64.0,47.0,65,4940.0,square1,r,0.001,0,V,12.0
V12,93.0,68.0,51.0,62.0,43.0,68,5008.0,square1,r,0.013,0,V,12.0
V12,94.0,68.0,52.0,60.0,38.0,68,5076.0,square1,r,0.169,0,V,12.0
V12,95.0,71.0,52.0,58.0,47.0,52,5128.0,square2,i,0.798,1,V,12.0
V12,96.0,66.0,49.0,59.0,44.0,59,5187.0,square3,j,0.051,2,V,12.0
V12,97.0,74.0,47.0,54.0,47.0,47,5234.0,square4,f,0.196,3,V,12.0
V12,98.0,68.0,43.0,64.0,41.0,68,5302.0,square1,r,0.099,0,V,12.0
V12,99.0,71.0,53.0,62.0,44.0,71,5373.0,square1,r,0.038,0,V,12.0
S6,0.0,40.0,29.0,39.0,26.0,29,29.0,square2,r,0.569,1,S,6.0
S6,1.0,34.0,40.0,31.0,25.0,31,60.0,square3,f,0.301,2,S,6.0
S6,2.0,37.0,31.0,25.0,30.0,37,97.0,square1,j,0.18,0,S,6.0
S6,3.0,39.0,37.0,30.0,27.0,27,124.0,square4,i,0.082,3,S,6.0
S6,4.0,42.0,40.0,28.0,32.0,42,166.0,square1,j,0.138,0,S,6.0
S6,5.0,35.0,35.0,39.0,29.0,35,201.0,square1,j,0.03,0,S,6.0
S6,6.0,48.0,30.0,37.0,33.0,48,249.0,square1,j,0.028,0,S,6.0
S6,7.0,47.0,34.0,31.0,29.0,47,296.0,square1,j,0.181,0,S,6.0
S6,8.0,43.0,35.0,30.0,25.0,43,339.0,square1,j,0.068,0,S,6.0
S6,9.0,36.0,38.0,35.0,35.0,36,375.0,square1,j,0.153,0,S,6.0
S6,10.0,38.0,35.0,31.0,21.0,38,413.0,square1,j,0.084,0,S,6.0
S6,11.0,30.0,36.0,31.0,20.0,30,443.0,square1,j,0.128,0,S,6.0
S6,12.0,37.0,40.0,33.0,22.0,37,480.0,square1,j,0.018,0,S,6.0
S6,13.0,32.0,41.0,35.0,29.0,32,512.0,square1,j,0.062,0,S,6.0
S6,14.0,41.0,29.0,30.0,32.0,41,553.0,square1,j,0.144,0,S,6.0
S6,15.0,43.0,37.0,31.0,27.0,43,596.0,square1,j,0.072,0,S,6.0
S6,16.0,34.0,34.0,35.0,31.0,34,630.0,square1,j,0.04,0,S,6.0
S6,17.0,47.0,40.0,29.0,28.0,47,677.0,square1,j,0.116,0,S,6.0
S6,18.0,37.0,38.0,34.0,35.0,37,714.0,square1,j,0.014,0,S,6.0
S6,19.0,36.0,39.0,31.0,26.0,36,750.0,square1,j,0.014,0,S,6.0
S6,20.0,44.0,40.0,31.0,25.0,40,790.0,square2,r,0.185,1,S,6.0
S6,21.0,39.0,41.0,35.0,24.0,41,831.0,square2,r,0.046,1,S,6.0
S6,22.0,41.0,38.0,41.0,31.0,38,869.0,square2,r,0.163,1,S,6.0
S6,23.0,37.0,31.0,30.0,32.0,32,901.0,square4,i,0.271,3,S,6.0
S6,24.0,48.0,34.0,34.0,21.0,34,935.0,square3,f,0.065,2,S,6.0
S6,25.0,42.0,45.0,26.0,29.0,45,980.0,square2,r,0.09,1,S,6.0
S6,26.0,40.0,39.0,36.0,28.0,39,1019.0,square2,r,0.068,1,S,6.0
S6,27.0,42.0,33.0,29.0,29.0,33,1052.0,square2,r,0.048,1,S,6.0
S6,28.0,41.0,30.0,29.0,29.0,41,1093.0,square1,j,0.049,0,S,6.0
S6,29.0,42.0,40.0,32.0,27.0,42,1135.0,square1,j,0.012,0,S,6.0
S6,30.0,42.0,36.0,30.0,26.0,42,1177.0,square1,j,0.051,0,S,6.0
S6,31.0,42.0,34.0,35.0,29.0,42,1219.0,square1,j,0.158,0,S,6.0
S6,32.0,35.0,36.0,31.0,23.0,35,1254.0,square1,j,0.079,0,S,6.0
S6,33.0,35.0,31.0,35.0,30.0,31,1285.0,square2,r,0.105,1,S,6.0
S6,34.0,40.0,38.0,31.0,27.0,27,1312.0,square4,i,0.047,3,S,6.0
S6,35.0,42.0,37.0,34.0,34.0,34,1346.0,square3,f,0.082,2,S,6.0
S6,36.0,37.0,46.0,31.0,34.0,37,1383.0,square1,j,0.088,0,S,6.0
S6,37.0,38.0,40.0,30.0,26.0,38,1421.0,square1,j,0.039,0,S,6.0
S6,38.0,36.0,34.0,31.0,33.0,36,1457.0,square1,j,0.134,0,S,6.0
S6,39.0,44.0,37.0,33.0,31.0,44,1501.0,square1,j,0.085,0,S,6.0
S6,40.0,40.0,38.0,31.0,25.0,40,1541.0,square1,j,0.148,0,S,6.0
S6,41.0,49.0,35.0,35.0,28.0,49,1590.0,square1,j,0.129,0,S,6.0
S6,42.0,44.0,40.0,32.0,28.0,44,1634.0,square1,j,0.101,0,S,6.0
S6,43.0,43.0,36.0,33.0,26.0,43,1677.0,square1,j,0.066,0,S,6.0
S6,44.0,38.0,33.0,34.0,26.0,38,1715.0,square1,j,0.083,0,S,6.0
S6,45.0,32.0,35.0,30.0,28.0,32,1747.0,square1,j,0.127,0,S,6.0
S6,46.0,38.0,36.0,34.0,30.0,36,1783.0,square2,r,0.035,1,S,6.0
S6,47.0,44.0,35.0,32.0,31.0,35,1818.0,square2,r,0.155,1,S,6.0
S6,48.0,40.0,40.0,31.0,33.0,40,1858.0,square2,r,0.201,1,S,6.0
S6,49.0,41.0,29.0,29.0,29.0,29,1887.0,square2,r,0.056,1,S,6.0
S2,0.0,62.0,57.0,71.0,74.0,74,74.0,square4,j,0.38,3,S,2.0
S2,1.0,64.0,59.0,72.0,67.0,72,146.0,square3,r,0.062,2,S,2.0
S2,2.0,68.0,57.0,75.0,68.0,68,214.0,square1,f,0.099,0,S,2.0
S2,3.0,69.0,57.0,80.0,70.0,57,271.0,square2,i,0.014,1,S,2.0
S2,4.0,66.0,60.0,74.0,68.0,68,339.0,square4,j,0.019,3,S,2.0
S2,5.0,63.0,62.0,77.0,72.0,77,416.0,square3,r,0.17,2,S,2.0
S2,6.0,69.0,61.0,75.0,74.0,75,491.0,square3,r,0.194,2,S,2.0
S2,7.0,74.0,66.0,79.0,72.0,79,570.0,square3,r,0.081,2,S,2.0
S2,8.0,81.0,65.0,76.0,72.0,76,646.0,square3,r,0.149,2,S,2.0
S2,9.0,70.0,66.0,78.0,70.0,78,724.0,square3,r,0.034,2,S,2.0
S2,10.0,70.0,72.0,70.0,74.0,70,794.0,square3,r,0.037,2,S,2.0
S2,11.0,64.0,66.0,72.0,67.0,72,866.0,square3,r,0.33,2,S,2.0
S2,12.0,66.0,57.0,70.0,67.0,70,936.0,square3,r,0.044,2,S,2.0
S2,13.0,68.0,68.0,71.0,73.0,73,1009.0,square4,j,0.066,3,S,2.0
S2,14.0,70.0,63.0,77.0,71.0,71,1080.0,square4,j,0.402,3,S,2.0
S2,15.0,64.0,66.0,75.0,66.0,66,1146.0,square4,j,0.184,3,S,2.0
S2,16.0,67.0,61.0,73.0,70.0,73,1219.0,square3,r,0.13,2,S,2.0
S2,17.0,65.0,58.0,71.0,75.0,71,1290.0,square3,r,0.076,2,S,2.0
S2,18.0,72.0,64.0,81.0,61.0,81,1371.0,square3,r,0.011,2,S,2.0
S2,19.0,60.0,63.0,72.0,65.0,72,1443.0,square3,r,0.047,2,S,2.0
S2,20.0,68.0,56.0,71.0,70.0,70,1513.0,square4,j,0.012,3,S,2.0
S2,21.0,65.0,65.0,74.0,71.0,65,1578.0,square1,f,0.35,0,S,2.0
S2,22.0,69.0,62.0,77.0,72.0,62,1640.0,square2,i,0.318,1,S,2.0
S2,23.0,64.0,71.0,74.0,65.0,74,1714.0,square3,r,0.029,2,S,2.0
S2,24.0,66.0,62.0,78.0,70.0,78,1792.0,square3,r,0.271,2,S,2.0
S2,25.0,67.0,69.0,76.0,66.0,76,1868.0,square3,r,0.203,2,S,2.0
S2,26.0,65.0,63.0,74.0,69.0,74,1942.0,square3,r,0.01,2,S,2.0
S2,27.0,68.0,64.0,67.0,68.0,67,2009.0,square3,r,0.331,2,S,2.0
S2,28.0,61.0,52.0,71.0,68.0,68,2077.0,square4,j,0.456,3,S,2.0
S2,29.0,67.0,64.0,73.0,69.0,69,2146.0,square4,j,0.097,3,S,2.0
S2,30.0,67.0,53.0,77.0,67.0,67,2213.0,square4,j,0.022,3,S,2.0
S2,31.0,67.0,69.0,69.0,68.0,69,2282.0,square3,r,0.162,2,S,2.0
S2,32.0,71.0,63.0,73.0,70.0,73,2355.0,square3,r,0.167,2,S,2.0
S2,33.0,61.0,65.0,68.0,71.0,68,2423.0,square3,r,0.118,2,S,2.0
S2,34.0,66.0,55.0,78.0,68.0,68,2491.0,square4,j,0.066,3,S,2.0
S2,35.0,60.0,57.0,66.0,66.0,66,2557.0,square3,r,0.112,2,S,2.0
S2,36.0,64.0,63.0,73.0,72.0,72,2629.0,square4,j,0.147,3,S,2.0
S2,37.0,65.0,62.0,75.0,68.0,68,2697.0,square4,j,0.182,3,S,2.0
S2,38.0,69.0,57.0,71.0,62.0,71,2768.0,square3,r,0.313,2,S,2.0
S2,39.0,72.0,66.0,74.0,74.0,74,2842.0,square3,r,0.115,2,S,2.0
S2,40.0,66.0,63.0,76.0,59.0,76,2918.0,square3,r,0.151,2,S,2.0
S2,41.0,74.0,64.0,67.0,76.0,67,2985.0,square3,r,0.132,2,S,2.0
S2,42.0,62.0,67.0,72.0,68.0,68,3053.0,square4,j,0.142,3,S,2.0
S2,43.0,69.0,63.0,75.0,71.0,71,3124.0,square4,j,0.154,3,S,2.0
S2,44.0,72.0,60.0,74.0,67.0,67,3191.0,square4,j,0.105,3,S,2.0
S2,45.0,69.0,63.0,76.0,73.0,76,3267.0,square3,r,0.126,2,S,2.0
S2,46.0,64.0,71.0,75.0,72.0,75,3342.0,square3,r,0.058,2,S,2.0
S2,47.0,75.0,62.0,75.0,69.0,75,3417.0,square3,r,0.152,2,S,2.0
S2,48.0,66.0,65.0,74.0,68.0,74,3491.0,square3,r,0.077,2,S,2.0
S2,49.0,67.0,64.0,72.0,76.0,72,3563.0,square3,r,0.121,2,S,2.0
S3,0.0,38.0,48.0,42.0,57.0,48,48.0,square2,j,0.645,1,S,3.0
S3,1.0,29.0,43.0,51.0,57.0,29,77.0,square1,r,0.001,0,S,3.0
S3,2.0,41.0,49.0,46.0,49.0,46,123.0,square3,i,0.049,2,S,3.0
S3,3.0,44.0,50.0,45.0,52.0,52,175.0,square4,f,0.031,3,S,3.0
S3,4.0,37.0,51.0,45.0,58.0,58,233.0,square4,f,0.003,3,S,3.0
S3,5.0,47.0,43.0,42.0,49.0,49,282.0,square4,f,0.216,3,S,3.0
S3,6.0,44.0,53.0,51.0,58.0,58,340.0,square4,f,0.001,3,S,3.0
S3,7.0,39.0,47.0,46.0,54.0,47,387.0,square2,j,0.179,1,S,3.0
S3,8.0,43.0,53.0,41.0,52.0,41,428.0,square3,i,0.001,2,S,3.0
S3,9.0,42.0,46.0,41.0,53.0,46,474.0,square2,j,0.065,1,S,3.0
S3,10.0,37.0,49.0,49.0,55.0,55,529.0,square4,f,0.171,3,S,3.0
S3,11.0,40.0,47.0,36.0,59.0,59,588.0,square4,f,0.012,3,S,3.0
S3,12.0,46.0,51.0,39.0,56.0,56,644.0,square4,f,0.066,3,S,3.0
S3,13.0,39.0,48.0,45.0,57.0,57,701.0,square4,f,0.166,3,S,3.0
S3,14.0,39.0,55.0,43.0,47.0,47,748.0,square4,f,0.015,3,S,3.0
S3,15.0,46.0,46.0,47.0,52.0,52,800.0,square4,f,0.001,3,S,3.0
S3,16.0,42.0,49.0,50.0,55.0,55,855.0,square4,f,0.229,3,S,3.0
S3,17.0,45.0,45.0,56.0,47.0,47,902.0,square4,f,0.098,3,S,3.0
S3,18.0,46.0,43.0,45.0,50.0,50,952.0,square4,f,0.144,3,S,3.0
S3,19.0,41.0,47.0,50.0,55.0,55,1007.0,square4,f,0.077,3,S,3.0
S3,20.0,45.0,52.0,49.0,52.0,52,1059.0,square4,f,0.113,3,S,3.0
S3,21.0,40.0,43.0,47.0,46.0,46,1105.0,square4,f,0.141,3,S,3.0
S3,22.0,45.0,46.0,44.0,47.0,47,1152.0,square4,f,0.162,3,S,3.0
S3,23.0,36.0,50.0,42.0,46.0,46,1198.0,square4,f,0.026,3,S,3.0
S3,24.0,42.0,54.0,49.0,55.0,55,1253.0,square4,f,0.263,3,S,3.0
S3,25.0,43.0,51.0,44.0,54.0,54,1307.0,square4,f,0.103,3,S,3.0
S3,26.0,49.0,50.0,52.0,52.0,52,1359.0,square4,f,0.098,3,S,3.0
S3,27.0,47.0,52.0,44.0,50.0,50,1409.0,square4,f,0.031,3,S,3.0
S3,28.0,37.0,48.0,40.0,47.0,48,1457.0,square2,j,0.064,1,S,3.0
S3,29.0,50.0,43.0,50.0,57.0,50,1507.0,square3,i,0.3,2,S,3.0
S3,30.0,50.0,50.0,46.0,47.0,50,1557.0,square1,r,0.003,0,S,3.0
S3,31.0,37.0,53.0,49.0,56.0,56,1613.0,square4,f,0.315,3,S,3.0
S3,32.0,42.0,50.0,43.0,58.0,58,1671.0,square4,f,0.112,3,S,3.0
S3,33.0,44.0,49.0,46.0,59.0,59,1730.0,square4,f,0.082,3,S,3.0
S3,34.0,42.0,50.0,50.0,58.0,58,1788.0,square4,f,0.047,3,S,3.0
S3,35.0,43.0,46.0,45.0,50.0,50,1838.0,square4,f,0.081,3,S,3.0
S3,36.0,46.0,52.0,50.0,48.0,48,1886.0,square4,f,0.062,3,S,3.0
S3,37.0,48.0,50.0,49.0,52.0,49,1935.0,square3,i,0.133,2,S,3.0
S3,38.0,39.0,43.0,50.0,55.0,39,1974.0,square1,r,0.029,0,S,3.0
S3,39.0,50.0,53.0,46.0,57.0,53,2027.0,square2,j,0.085,1,S,3.0
S3,40.0,41.0,46.0,48.0,55.0,55,2082.0,square4,f,0.032,3,S,3.0
S3,41.0,49.0,49.0,40.0,56.0,56,2138.0,square4,f,0.049,3,S,3.0
S3,42.0,47.0,49.0,43.0,48.0,48,2186.0,square4,f,0.015,3,S,3.0
S3,43.0,46.0,43.0,41.0,58.0,58,2244.0,square4,f,0.146,3,S,3.0
S3,44.0,46.0,52.0,51.0,55.0,55,2299.0,square4,f,0.049,3,S,3.0
S3,45.0,46.0,41.0,46.0,49.0,49,2348.0,square4,f,0.063,3,S,3.0
S3,46.0,32.0,56.0,40.0,50.0,50,2398.0,square4,f,0.047,3,S,3.0
S3,47.0,42.0,49.0,44.0,51.0,51,2449.0,square4,f,0.08,3,S,3.0
S3,48.0,36.0,45.0,38.0,50.0,50,2499.0,square4,f,0.02,3,S,3.0
S3,49.0,45.0,48.0,47.0,52.0,52,2551.0,square4,f,0.129,3,S,3.0
S11,0.0,49.0,53.0,49.0,45.0,49,49.0,square1,f,0.574,0,S,11.0
S11,1.0,54.0,56.0,42.0,50.0,42,91.0,square3,r,0.032,2,S,11.0
S11,2.0,39.0,51.0,39.0,43.0,51,142.0,square2,i,0.032,1,S,11.0
S11,3.0,53.0,50.0,38.0,43.0,43,185.0,square4,j,0.077,3,S,11.0
S11,4.0,47.0,54.0,39.0,48.0,54,239.0,square2,i,0.299,1,S,11.0
S11,5.0,47.0,52.0,40.0,46.0,52,291.0,square2,i,0.111,1,S,11.0
S11,6.0,47.0,46.0,44.0,54.0,46,337.0,square2,i,0.027,1,S,11.0
S11,7.0,48.0,51.0,35.0,51.0,51,388.0,square2,i,0.001,1,S,11.0
S11,8.0,52.0,49.0,36.0,43.0,49,437.0,square2,i,0.146,1,S,11.0
S11,9.0,47.0,53.0,41.0,55.0,53,490.0,square2,i,0.032,1,S,11.0
S11,10.0,44.0,48.0,41.0,43.0,44,534.0,square1,f,0.247,0,S,11.0
S11,11.0,41.0,54.0,38.0,43.0,43,577.0,square4,j,0.298,3,S,11.0
S11,12.0,45.0,54.0,44.0,45.0,44,621.0,square3,r,0.032,2,S,11.0
S11,13.0,54.0,52.0,44.0,50.0,52,673.0,square2,i,0.015,1,S,11.0
S11,14.0,57.0,58.0,36.0,45.0,58,731.0,square2,i,0.119,1,S,11.0
S11,15.0,48.0,54.0,43.0,49.0,54,785.0,square2,i,0.071,1,S,11.0
S11,16.0,58.0,47.0,42.0,46.0,47,832.0,square2,i,0.014,1,S,11.0
S11,17.0,41.0,61.0,42.0,53.0,61,893.0,square2,i,0.213,1,S,11.0
S11,18.0,51.0,58.0,33.0,39.0,58,951.0,square2,i,0.06,1,S,11.0
S11,19.0,48.0,49.0,37.0,42.0,49,1000.0,square2,i,0.012,1,S,11.0
S11,20.0,52.0,52.0,45.0,46.0,52,1052.0,square2,i,0.122,1,S,11.0
S11,21.0,47.0,53.0,44.0,51.0,53,1105.0,square2,i,0.135,1,S,11.0
S11,22.0,49.0,54.0,37.0,41.0,54,1159.0,square2,i,0.078,1,S,11.0
S11,23.0,52.0,54.0,41.0,45.0,54,1213.0,square2,i,0.028,1,S,11.0
S11,24.0,42.0,56.0,41.0,45.0,56,1269.0,square2,i,0.05,1,S,11.0
S11,25.0,52.0,56.0,42.0,44.0,56,1325.0,square2,i,0.104,1,S,11.0
S11,26.0,43.0,56.0,41.0,45.0,56,1381.0,square2,i,0.113,1,S,11.0
S11,27.0,48.0,50.0,40.0,43.0,50,1431.0,square2,i,0.054,1,S,11.0
S11,28.0,46.0,49.0,38.0,48.0,49,1480.0,square2,i,0.001,1,S,11.0
S11,29.0,46.0,55.0,40.0,42.0,55,1535.0,square2,i,0.095,1,S,11.0
S11,30.0,46.0,56.0,43.0,37.0,43,1578.0,square3,r,0.253,2,S,11.0
S11,31.0,42.0,49.0,44.0,42.0,42,1620.0,square1,f,0.056,0,S,11.0
S11,32.0,51.0,52.0,36.0,40.0,40,1660.0,square4,j,0.062,3,S,11.0
S11,33.0,44.0,53.0,39.0,43.0,53,1713.0,square2,i,0.087,1,S,11.0
S11,34.0,52.0,52.0,43.0,49.0,52,1765.0,square2,i,0.012,1,S,11.0
S11,35.0,53.0,51.0,38.0,45.0,51,1816.0,square2,i,0.237,1,S,11.0
S11,36.0,50.0,44.0,42.0,48.0,44,1860.0,square2,i,0.001,1,S,11.0
S11,37.0,49.0,51.0,40.0,48.0,51,1911.0,square2,i,0.064,1,S,11.0
S11,38.0,47.0,47.0,39.0,38.0,47,1958.0,square2,i,0.013,1,S,11.0
S11,39.0,51.0,55.0,40.0,42.0,55,2013.0,square2,i,0.065,1,S,11.0
S11,40.0,50.0,52.0,41.0,44.0,52,2065.0,square2,i,0.155,1,S,11.0
S11,41.0,47.0,50.0,46.0,50.0,50,2115.0,square2,i,0.06,1,S,11.0
S11,42.0,52.0,48.0,41.0,47.0,48,2163.0,square2,i,0.011,1,S,11.0
S11,43.0,50.0,56.0,34.0,42.0,56,2219.0,square2,i,0.162,1,S,11.0
S11,44.0,42.0,48.0,37.0,49.0,48,2267.0,square2,i,0.053,1,S,11.0
S11,45.0,47.0,47.0,41.0,40.0,47,2314.0,square2,i,0.012,1,S,11.0
S11,46.0,50.0,56.0,40.0,44.0,56,2370.0,square2,i,0.027,1,S,11.0
S11,47.0,46.0,48.0,38.0,47.0,48,2418.0,square2,i,0.095,1,S,11.0
S11,48.0,45.0,54.0,44.0,41.0,54,2472.0,square2,i,0.421,1,S,11.0
S11,49.0,44.0,53.0,41.0,41.0,53,2525.0,square2,i,0.112,1,S,11.0
S4,0.0,18.0,16.0,34.0,20.0,34,34.0,square3,i,0.365,2,S,4.0
S4,1.0,33.0,26.0,26.0,23.0,23,57.0,square4,f,0.369,3,S,4.0
S4,2.0,35.0,15.0,33.0,22.0,15,72.0,square2,j,0.004,1,S,4.0
S4,3.0,28.0,19.0,27.0,27.0,28,100.0,square1,r,0.001,0,S,4.0
S4,4.0,27.0,16.0,25.0,28.0,25,125.0,square3,i,0.066,2,S,4.0
S4,5.0,23.0,22.0,31.0,24.0,23,148.0,square1,r,0.361,0,S,4.0
S4,6.0,25.0,20.0,34.0,23.0,34,182.0,square3,i,0.062,2,S,4.0
S4,7.0,21.0,22.0,30.0,21.0,30,212.0,square3,i,0.114,2,S,4.0
S4,8.0,33.0,24.0,33.0,17.0,33,245.0,square3,i,0.012,2,S,4.0
S4,9.0,24.0,18.0,31.0,28.0,31,276.0,square3,i,0.012,2,S,4.0
S4,10.0,31.0,26.0,35.0,20.0,35,311.0,square3,i,0.082,2,S,4.0
S4,11.0,25.0,15.0,31.0,25.0,31,342.0,square3,i,0.107,2,S,4.0
S4,12.0,24.0,16.0,29.0,22.0,29,371.0,square3,i,0.145,2,S,4.0
S4,13.0,28.0,23.0,25.0,17.0,25,396.0,square3,i,0.033,2,S,4.0
S4,14.0,22.0,23.0,21.0,23.0,21,417.0,square3,i,0.084,2,S,4.0
S4,15.0,25.0,19.0,28.0,25.0,25,442.0,square4,f,0.168,3,S,4.0
S4,16.0,26.0,17.0,30.0,21.0,17,459.0,square2,j,0.032,1,S,4.0
S4,17.0,22.0,21.0,29.0,22.0,22,481.0,square1,r,0.099,0,S,4.0
S4,18.0,28.0,22.0,32.0,22.0,22,503.0,square4,f,0.1,3,S,4.0
S4,19.0,26.0,19.0,31.0,26.0,26,529.0,square4,f,0.105,3,S,4.0
S4,20.0,28.0,18.0,28.0,25.0,25,554.0,square4,f,0.132,3,S,4.0
S4,21.0,33.0,26.0,21.0,29.0,29,583.0,square4,f,0.049,3,S,4.0
S4,22.0,31.0,19.0,29.0,20.0,20,603.0,square4,f,0.143,3,S,4.0
S4,23.0,27.0,21.0,36.0,26.0,36,639.0,square3,i,0.078,2,S,4.0
S4,24.0,28.0,15.0,32.0,21.0,32,671.0,square3,i,0.045,2,S,4.0
S4,25.0,27.0,18.0,28.0,25.0,28,699.0,square3,i,0.014,2,S,4.0
S4,26.0,26.0,20.0,27.0,14.0,27,726.0,square3,i,0.001,2,S,4.0
S4,27.0,28.0,19.0,36.0,18.0,36,762.0,square3,i,0.132,2,S,4.0
S4,28.0,28.0,19.0,28.0,23.0,28,790.0,square3,i,0.098,2,S,4.0
S4,29.0,25.0,22.0,29.0,23.0,29,819.0,square3,i,0.05,2,S,4.0
S4,30.0,26.0,16.0,30.0,20.0,30,849.0,square3,i,0.012,2,S,4.0
S4,31.0,23.0,25.0,26.0,30.0,26,875.0,square3,i,0.135,2,S,4.0
S4,32.0,21.0,26.0,22.0,23.0,23,898.0,square4,f,0.15,3,S,4.0
S4,33.0,25.0,22.0,24.0,17.0,25,923.0,square1,r,0.079,0,S,4.0
S4,34.0,30.0,22.0,33.0,24.0,22,945.0,square2,j,0.214,1,S,4.0
S4,35.0,23.0,21.0,35.0,26.0,35,980.0,square3,i,0.116,2,S,4.0
S4,36.0,19.0,21.0,33.0,24.0,33,1013.0,square3,i,0.049,2,S,4.0
S4,37.0,20.0,17.0,26.0,26.0,26,1039.0,square3,i,0.001,2,S,4.0
S4,38.0,28.0,20.0,28.0,26.0,26,1065.0,square4,f,0.061,3,S,4.0
S4,39.0,28.0,23.0,40.0,27.0,40,1105.0,square3,i,0.001,2,S,4.0
S4,40.0,25.0,24.0,32.0,22.0,32,1137.0,square3,i,0.034,2,S,4.0
S4,41.0,23.0,23.0,26.0,17.0,26,1163.0,square3,i,0.347,2,S,4.0
S4,42.0,26.0,18.0,33.0,22.0,22,1185.0,square4,f,0.227,3,S,4.0
S4,43.0,22.0,21.0,36.0,25.0,36,1221.0,square3,i,0.055,2,S,4.0
S4,44.0,21.0,18.0,33.0,14.0,33,1254.0,square3,i,0.011,2,S,4.0
S4,45.0,29.0,19.0,30.0,29.0,29,1283.0,square4,f,0.036,3,S,4.0
S4,46.0,21.0,16.0,22.0,23.0,22,1305.0,square3,i,0.005,2,S,4.0
S4,47.0,22.0,18.0,28.0,22.0,22,1327.0,square4,f,0.065,3,S,4.0
S4,48.0,33.0,21.0,32.0,26.0,26,1353.0,square4,f,0.064,3,S,4.0
S4,49.0,23.0,17.0,20.0,21.0,20,1373.0,square3,i,0.001,2,S,4.0
S1,0.0,72.0,58.0,70.0,66.0,58,58.0,square2,r,0.424,1,S,1.0
S1,1.0,75.0,64.0,66.0,69.0,69,127.0,square4,j,0.094,3,S,1.0
S1,2.0,75.0,62.0,62.0,79.0,62,189.0,square3,f,0.076,2,S,1.0
S1,3.0,68.0,62.0,63.0,69.0,68,257.0,square1,i,0.075,0,S,1.0
S1,4.0,82.0,63.0,64.0,73.0,73,330.0,square4,j,0.068,3,S,1.0
S1,5.0,66.0,70.0,65.0,73.0,73,403.0,square4,j,0.034,3,S,1.0
S1,6.0,73.0,65.0,62.0,65.0,65,468.0,square4,j,0.003,3,S,1.0
S1,7.0,70.0,61.0,65.0,66.0,70,538.0,square1,i,0.0,0,S,1.0
S1,8.0,78.0,63.0,67.0,68.0,78,616.0,square1,i,0.18,0,S,1.0
S1,9.0,74.0,67.0,66.0,68.0,74,690.0,square1,i,0.085,0,S,1.0
S1,10.0,73.0,59.0,68.0,68.0,73,763.0,square1,i,0.154,0,S,1.0
S1,11.0,76.0,65.0,62.0,81.0,76,839.0,square1,i,0.133,0,S,1.0
S1,12.0,77.0,66.0,69.0,63.0,77,916.0,square1,i,0.115,0,S,1.0
S1,13.0,75.0,63.0,68.0,73.0,75,991.0,square1,i,0.099,0,S,1.0
S1,14.0,67.0,60.0,67.0,69.0,67,1058.0,square1,i,0.0,0,S,1.0
S1,15.0,70.0,63.0,69.0,73.0,70,1128.0,square1,i,0.011,0,S,1.0
S1,16.0,69.0,61.0,69.0,69.0,69,1197.0,square1,i,0.062,0,S,1.0
S1,17.0,73.0,68.0,67.0,73.0,73,1270.0,square1,i,0.095,0,S,1.0
S1,18.0,70.0,58.0,73.0,66.0,70,1340.0,square1,i,0.065,0,S,1.0
S1,19.0,75.0,58.0,62.0,68.0,75,1415.0,square1,i,0.046,0,S,1.0
S1,20.0,76.0,58.0,72.0,67.0,76,1491.0,square1,i,0.094,0,S,1.0
S1,21.0,69.0,66.0,66.0,67.0,69,1560.0,square1,i,0.079,0,S,1.0
S1,22.0,70.0,68.0,65.0,65.0,70,1630.0,square1,i,0.13,0,S,1.0
S1,23.0,71.0,60.0,64.0,64.0,71,1701.0,square1,i,0.0,0,S,1.0
S1,24.0,70.0,72.0,62.0,67.0,70,1771.0,square1,i,0.163,0,S,1.0
S1,25.0,68.0,60.0,70.0,65.0,68,1839.0,square1,i,0.099,0,S,1.0
S1,26.0,76.0,64.0,72.0,69.0,72,1911.0,square3,f,0.062,2,S,1.0
S1,27.0,71.0,56.0,70.0,65.0,70,1981.0,square3,f,0.018,2,S,1.0
S1,28.0,67.0,67.0,71.0,76.0,71,2052.0,square3,f,0.026,2,S,1.0
S1,29.0,78.0,64.0,64.0,74.0,64,2116.0,square3,f,0.044,2,S,1.0
S1,30.0,74.0,63.0,65.0,71.0,74,2190.0,square1,i,0.065,0,S,1.0
S1,31.0,78.0,58.0,69.0,69.0,78,2268.0,square1,i,0.121,0,S,1.0
S1,32.0,71.0,67.0,68.0,60.0,60,2328.0,square4,j,0.068,3,S,1.0
S1,33.0,68.0,63.0,65.0,73.0,63,2391.0,square2,r,0.008,1,S,1.0
S1,34.0,71.0,62.0,74.0,73.0,71,2462.0,square1,i,0.0,0,S,1.0
S1,35.0,75.0,59.0,67.0,77.0,75,2537.0,square1,i,0.092,0,S,1.0
S1,36.0,77.0,60.0,66.0,67.0,77,2614.0,square1,i,0.121,0,S,1.0
S1,37.0,69.0,60.0,69.0,75.0,69,2683.0,square1,i,0.001,0,S,1.0
S1,38.0,77.0,64.0,62.0,70.0,77,2760.0,square1,i,0.141,0,S,1.0
S1,39.0,72.0,66.0,69.0,65.0,72,2832.0,square1,i,0.014,0,S,1.0
S1,40.0,69.0,63.0,66.0,69.0,69,2901.0,square1,i,0.005,0,S,1.0
S1,41.0,72.0,62.0,70.0,70.0,72,2973.0,square1,i,0.079,0,S,1.0
S1,42.0,78.0,60.0,63.0,62.0,78,3051.0,square1,i,0.035,0,S,1.0
S1,43.0,71.0,62.0,67.0,73.0,71,3122.0,square1,i,0.129,0,S,1.0
S1,44.0,75.0,63.0,69.0,73.0,75,3197.0,square1,i,0.001,0,S,1.0
S1,45.0,66.0,60.0,68.0,73.0,66,3263.0,square1,i,0.055,0,S,1.0
S1,46.0,74.0,67.0,69.0,71.0,69,3332.0,square3,f,0.195,2,S,1.0
S1,47.0,71.0,66.0,68.0,70.0,71,3403.0,square1,i,0.128,0,S,1.0
S1,48.0,72.0,75.0,71.0,77.0,72,3475.0,square1,i,0.145,0,S,1.0
S1,49.0,65.0,57.0,66.0,75.0,65,3540.0,square1,i,0.171,0,S,1.0
