block,Trial,square1,square2,square3,square4,currPoints,totalPoints,square,choiceKey.keys,choiceKey.rt,armNum,blockType,blockNum
prac,0.0,100.0,0.0,0.0,0.0,0.0,0.0,square2,,,1,p,0.0
prac,1.0,100.0,0.0,0.0,0.0,100.0,100.0,square1,,,0,p,0.0
prac,2.0,100.0,0.0,0.0,0.0,0.0,100.0,square4,,,3,p,0.0
prac,3.0,100.0,0.0,0.0,0.0,0.0,100.0,square3,,,2,p,0.0
prac,4.0,100.0,0.0,0.0,0.0,100.0,200.0,square1,,,0,p,0.0
prac,5.0,100.0,0.0,0.0,0.0,100.0,300.0,square1,,,0,p,0.0
prac,6.0,100.0,0.0,0.0,0.0,100.0,400.0,square1,,,0,p,0.0
prac,7.0,100.0,0.0,0.0,0.0,100.0,500.0,square1,,,0,p,0.0
prac,8.0,100.0,0.0,0.0,0.0,100.0,600.0,square1,,,0,p,0.0
prac,9.0,100.0,0.0,0.0,0.0,100.0,700.0,square1,,,0,p,0.0
V12,0.0,47.0,30.0,38.0,55.0,30.0,30.0,square2,r,0.519,1,V,12.0
V12,1.0,46.0,33.0,39.0,57.0,39.0,69.0,square3,i,0.291,2,V,12.0
V12,2.0,51.0,29.0,42.0,52.0,51.0,120.0,square1,j,0.405,0,V,12.0
V12,3.0,52.0,30.0,38.0,62.0,62.0,182.0,square4,f,0.307,3,V,12.0
V12,4.0,48.0,30.0,39.0,62.0,62.0,244.0,square4,f,0.312,3,V,12.0
V12,5.0,55.0,34.0,43.0,61.0,61.0,305.0,square4,f,0.274,3,V,12.0
V12,6.0,45.0,35.0,42.0,56.0,56.0,361.0,square4,f,0.318,3,V,12.0
V12,7.0,48.0,29.0,35.0,57.0,48.0,409.0,square1,j,0.269,0,V,12.0
V12,8.0,46.0,33.0,38.0,59.0,33.0,442.0,square2,r,0.228,1,V,12.0
V12,9.0,44.0,31.0,42.0,56.0,42.0,484.0,square3,i,0.184,2,V,12.0
V12,10.0,48.0,34.0,45.0,55.0,55.0,539.0,square4,f,0.1,3,V,12.0
V12,11.0,45.0,32.0,41.0,55.0,55.0,594.0,square4,f,0.254,3,V,12.0
V12,12.0,52.0,26.0,42.0,57.0,57.0,651.0,square4,f,0.298,3,V,12.0
V12,13.0,56.0,31.0,41.0,54.0,54.0,705.0,square4,f,0.334,3,V,12.0
V12,14.0,44.0,34.0,40.0,64.0,64.0,769.0,square4,f,0.378,3,V,12.0
V12,15.0,48.0,32.0,39.0,61.0,61.0,830.0,square4,f,0.369,3,V,12.0
V12,16.0,49.0,33.0,37.0,58.0,58.0,888.0,square4,f,0.299,3,V,12.0
V12,17.0,45.0,33.0,43.0,57.0,57.0,945.0,square4,f,0.302,3,V,12.0
V12,18.0,45.0,28.0,40.0,58.0,58.0,1003.0,square4,f,0.266,3,V,12.0
V12,19.0,42.0,33.0,43.0,59.0,59.0,1062.0,square4,f,0.235,3,V,12.0
V12,20.0,46.0,30.0,38.0,62.0,62.0,1124.0,square4,f,0.275,3,V,12.0
V12,21.0,46.0,35.0,40.0,55.0,55.0,1179.0,square4,f,0.296,3,V,12.0
V12,22.0,46.0,34.0,36.0,63.0,63.0,1242.0,square4,f,0.239,3,V,12.0
V12,23.0,54.0,34.0,42.0,56.0,56.0,1298.0,square4,f,0.197,3,V,12.0
V12,24.0,44.0,30.0,41.0,59.0,59.0,1357.0,square4,f,0.175,3,V,12.0
V12,25.0,49.0,33.0,37.0,64.0,64.0,1421.0,square4,f,0.302,3,V,12.0
V12,26.0,52.0,34.0,39.0,57.0,57.0,1478.0,square4,f,0.255,3,V,12.0
V12,27.0,50.0,26.0,37.0,55.0,55.0,1533.0,square4,f,0.312,3,V,12.0
V12,28.0,41.0,29.0,46.0,21.0,21.0,1554.0,square4,f,0.266,3,V,12.0
V12,29.0,41.0,28.0,51.0,20.0,41.0,1595.0,square1,j,0.152,0,V,12.0
V12,30.0,32.0,31.0,46.0,22.0,46.0,1641.0,square3,i,0.215,2,V,12.0
V12,31.0,38.0,28.0,45.0,22.0,28.0,1669.0,square2,r,0.217,1,V,12.0
V12,32.0,35.0,27.0,44.0,16.0,16.0,1685.0,square4,f,0.116,3,V,12.0
V12,33.0,39.0,29.0,49.0,21.0,39.0,1724.0,square1,j,0.168,0,V,12.0
V12,34.0,39.0,28.0,49.0,15.0,49.0,1773.0,square3,i,0.215,2,V,12.0
V12,35.0,36.0,29.0,50.0,17.0,50.0,1823.0,square3,i,0.182,2,V,12.0
V12,36.0,41.0,28.0,48.0,12.0,48.0,1871.0,square3,i,0.261,2,V,12.0
V12,37.0,34.0,29.0,46.0,25.0,29.0,1900.0,square2,r,0.229,1,V,12.0
V12,38.0,38.0,28.0,51.0,19.0,51.0,1951.0,square3,i,0.135,2,V,12.0
V12,39.0,39.0,31.0,45.0,13.0,45.0,1996.0,square3,i,0.286,2,V,12.0
V12,40.0,35.0,28.0,46.0,26.0,46.0,2042.0,square3,i,0.207,2,V,12.0
V12,41.0,38.0,27.0,46.0,20.0,38.0,2080.0,square1,j,0.156,0,V,12.0
V12,42.0,40.0,26.0,50.0,23.0,23.0,2103.0,square4,f,0.165,3,V,12.0
V12,43.0,33.0,30.0,45.0,18.0,30.0,2133.0,square2,r,0.092,1,V,12.0
V12,44.0,39.0,31.0,46.0,22.0,46.0,2179.0,square3,i,0.205,2,V,12.0
V12,45.0,32.0,26.0,42.0,20.0,42.0,2221.0,square3,i,0.275,2,V,12.0
V12,46.0,36.0,29.0,43.0,24.0,43.0,2264.0,square3,i,0.218,2,V,12.0
V12,47.0,37.0,30.0,46.0,21.0,46.0,2310.0,square3,i,0.282,2,V,12.0
V12,48.0,37.0,27.0,44.0,19.0,44.0,2354.0,square3,i,0.223,2,V,12.0
V12,49.0,36.0,33.0,55.0,16.0,55.0,2409.0,square3,i,0.26,2,V,12.0
V12,50.0,45.0,28.0,44.0,18.0,44.0,2453.0,square3,i,0.223,2,V,12.0
V12,51.0,35.0,32.0,49.0,19.0,49.0,2502.0,square3,i,0.19,2,V,12.0
V12,52.0,36.0,56.0,31.0,52.0,31.0,2533.0,square3,i,0.172,2,V,12.0
V12,53.0,36.0,57.0,29.0,45.0,36.0,2569.0,square1,j,0.184,0,V,12.0
V12,54.0,38.0,61.0,28.0,51.0,51.0,2620.0,square4,f,0.234,3,V,12.0
V12,55.0,35.0,60.0,29.0,47.0,60.0,2680.0,square2,r,0.199,1,V,12.0
V12,56.0,34.0,62.0,29.0,46.0,62.0,2742.0,square2,r,0.251,1,V,12.0
V12,57.0,43.0,57.0,32.0,46.0,57.0,2799.0,square2,r,0.257,1,V,12.0
V12,58.0,40.0,59.0,32.0,50.0,59.0,2858.0,square2,r,0.238,1,V,12.0
V12,59.0,41.0,62.0,33.0,48.0,62.0,2920.0,square2,r,0.251,1,V,12.0
V12,60.0,36.0,61.0,32.0,49.0,61.0,2981.0,square2,r,0.221,1,V,12.0
V12,61.0,39.0,56.0,32.0,44.0,56.0,3037.0,square2,r,0.257,1,V,12.0
V12,62.0,39.0,57.0,30.0,46.0,57.0,3094.0,square2,r,0.228,1,V,12.0
V12,63.0,42.0,53.0,29.0,46.0,53.0,3147.0,square2,r,0.268,1,V,12.0
V12,64.0,35.0,57.0,32.0,50.0,57.0,3204.0,square2,r,0.203,1,V,12.0
V12,65.0,44.0,58.0,32.0,49.0,58.0,3262.0,square2,r,0.205,1,V,12.0
V12,66.0,44.0,56.0,29.0,52.0,56.0,3318.0,square2,r,0.264,1,V,12.0
V12,67.0,41.0,60.0,30.0,49.0,60.0,3378.0,square2,r,0.186,1,V,12.0
V12,68.0,42.0,58.0,32.0,45.0,58.0,3436.0,square2,r,0.283,1,V,12.0
V12,69.0,36.0,60.0,33.0,50.0,60.0,3496.0,square2,r,0.18,1,V,12.0
V12,70.0,36.0,57.0,27.0,46.0,57.0,3553.0,square2,r,0.184,1,V,12.0
V12,71.0,41.0,59.0,32.0,48.0,59.0,3612.0,square2,r,0.216,1,V,12.0
V12,72.0,34.0,59.0,31.0,49.0,59.0,3671.0,square2,r,0.249,1,V,12.0
V12,73.0,71.0,53.0,65.0,49.0,53.0,3724.0,square2,r,0.202,1,V,12.0
V12,74.0,69.0,49.0,63.0,45.0,49.0,3773.0,square2,r,0.101,1,V,12.0
V12,75.0,72.0,51.0,56.0,46.0,51.0,3824.0,square2,r,0.231,1,V,12.0
V12,76.0,72.0,48.0,58.0,43.0,48.0,3872.0,square2,r,0.24,1,V,12.0
V12,77.0,74.0,57.0,59.0,44.0,59.0,3931.0,square3,i,0.172,2,V,12.0
V12,78.0,69.0,55.0,63.0,50.0,63.0,3994.0,square3,i,0.252,2,V,12.0
V12,79.0,73.0,53.0,58.0,43.0,58.0,4052.0,square3,i,0.333,2,V,12.0
V12,80.0,71.0,47.0,65.0,40.0,65.0,4117.0,square3,i,0.314,2,V,12.0
V12,81.0,66.0,49.0,57.0,40.0,57.0,4174.0,square3,i,0.284,2,V,12.0
V12,82.0,71.0,53.0,57.0,48.0,57.0,4231.0,square3,i,0.283,2,V,12.0
V12,83.0,70.0,50.0,56.0,49.0,56.0,4287.0,square3,i,0.248,2,V,12.0
V12,84.0,69.0,45.0,64.0,43.0,64.0,4351.0,square3,i,0.2,2,V,12.0
V12,85.0,64.0,48.0,54.0,42.0,54.0,4405.0,square3,i,0.239,2,V,12.0
V12,86.0,71.0,49.0,63.0,44.0,63.0,4468.0,square3,i,0.224,2,V,12.0
V12,87.0,72.0,52.0,55.0,42.0,55.0,4523.0,square3,i,0.199,2,V,12.0
V12,88.0,64.0,48.0,59.0,44.0,59.0,4582.0,square3,i,0.16,2,V,12.0
V12,89.0,69.0,48.0,62.0,45.0,62.0,4644.0,square3,i,0.14,2,V,12.0
V12,90.0,68.0,56.0,60.0,42.0,60.0,4704.0,square3,i,0.232,2,V,12.0
V12,91.0,69.0,52.0,62.0,45.0,62.0,4766.0,square3,i,0.29,2,V,12.0
V12,92.0,65.0,50.0,64.0,47.0,64.0,4830.0,square3,i,0.183,2,V,12.0
V12,93.0,68.0,51.0,62.0,43.0,62.0,4892.0,square3,i,0.226,2,V,12.0
V12,94.0,68.0,52.0,60.0,38.0,60.0,4952.0,square3,i,0.236,2,V,12.0
V12,95.0,71.0,52.0,58.0,47.0,58.0,5010.0,square3,i,0.165,2,V,12.0
V12,96.0,66.0,49.0,59.0,44.0,59.0,5069.0,square3,i,0.221,2,V,12.0
V12,97.0,74.0,47.0,54.0,47.0,54.0,5123.0,square3,i,0.196,2,V,12.0
V12,98.0,68.0,43.0,64.0,41.0,64.0,5187.0,square3,i,0.245,2,V,12.0
V12,99.0,71.0,53.0,62.0,44.0,62.0,5249.0,square3,i,0.836,2,V,12.0
V8,0.0,49.0,55.0,64.0,74.0,64.0,64.0,square3,f,0.519,2,V,8.0
V8,1.0,51.0,54.0,70.0,81.0,81.0,145.0,square4,j,0.223,3,V,8.0
V8,2.0,46.0,62.0,70.0,77.0,62.0,207.0,square2,i,0.163,1,V,8.0
V8,3.0,46.0,56.0,67.0,75.0,46.0,253.0,square1,r,0.103,0,V,8.0
V8,4.0,50.0,59.0,67.0,83.0,83.0,336.0,square4,j,0.065,3,V,8.0
V8,5.0,51.0,54.0,65.0,78.0,78.0,414.0,square4,j,0.215,3,V,8.0
V8,6.0,45.0,57.0,66.0,80.0,80.0,494.0,square4,j,0.266,3,V,8.0
V8,7.0,46.0,64.0,68.0,77.0,77.0,571.0,square4,j,0.271,3,V,8.0
V8,8.0,50.0,57.0,66.0,73.0,73.0,644.0,square4,j,0.24,3,V,8.0
V8,9.0,46.0,56.0,71.0,72.0,72.0,716.0,square4,j,0.237,3,V,8.0
V8,10.0,56.0,58.0,67.0,75.0,75.0,791.0,square4,j,0.187,3,V,8.0
V8,11.0,50.0,61.0,69.0,74.0,74.0,865.0,square4,j,0.208,3,V,8.0
V8,12.0,59.0,59.0,69.0,77.0,77.0,942.0,square4,j,0.23,3,V,8.0
V8,13.0,50.0,56.0,72.0,77.0,77.0,1019.0,square4,j,0.198,3,V,8.0
V8,14.0,48.0,55.0,65.0,80.0,80.0,1099.0,square4,j,0.281,3,V,8.0
V8,15.0,48.0,58.0,65.0,76.0,76.0,1175.0,square4,j,0.187,3,V,8.0
V8,16.0,49.0,58.0,67.0,75.0,75.0,1250.0,square4,j,0.255,3,V,8.0
V8,17.0,51.0,56.0,68.0,76.0,76.0,1326.0,square4,j,0.286,3,V,8.0
V8,18.0,52.0,63.0,69.0,80.0,80.0,1406.0,square4,j,0.219,3,V,8.0
V8,19.0,54.0,54.0,71.0,79.0,79.0,1485.0,square4,j,0.103,3,V,8.0
V8,20.0,48.0,53.0,62.0,77.0,77.0,1562.0,square4,j,0.15,3,V,8.0
V8,21.0,44.0,61.0,66.0,77.0,77.0,1639.0,square4,j,0.22,3,V,8.0
V8,22.0,52.0,58.0,64.0,78.0,78.0,1717.0,square4,j,0.19,3,V,8.0
V8,23.0,50.0,49.0,67.0,79.0,79.0,1796.0,square4,j,0.185,3,V,8.0
V8,24.0,49.0,59.0,69.0,74.0,74.0,1870.0,square4,j,0.169,3,V,8.0
V8,25.0,46.0,61.0,65.0,81.0,81.0,1951.0,square4,j,0.181,3,V,8.0
V8,26.0,49.0,58.0,63.0,35.0,35.0,1986.0,square4,j,0.125,3,V,8.0
V8,27.0,48.0,51.0,66.0,41.0,66.0,2052.0,square3,f,0.485,2,V,8.0
V8,28.0,46.0,55.0,65.0,38.0,55.0,2107.0,square2,i,0.207,1,V,8.0
V8,29.0,47.0,58.0,69.0,40.0,47.0,2154.0,square1,r,0.072,0,V,8.0
V8,30.0,42.0,55.0,67.0,43.0,67.0,2221.0,square3,f,0.021,2,V,8.0
V8,31.0,49.0,56.0,64.0,36.0,64.0,2285.0,square3,f,0.082,2,V,8.0
V8,32.0,49.0,55.0,69.0,38.0,69.0,2354.0,square3,f,0.156,2,V,8.0
V8,33.0,44.0,52.0,65.0,48.0,65.0,2419.0,square3,f,0.082,2,V,8.0
V8,34.0,44.0,57.0,70.0,45.0,70.0,2489.0,square3,f,0.166,2,V,8.0
V8,35.0,44.0,54.0,68.0,38.0,68.0,2557.0,square3,f,0.204,2,V,8.0
V8,36.0,45.0,56.0,64.0,40.0,64.0,2621.0,square3,f,0.227,2,V,8.0
V8,37.0,47.0,57.0,66.0,37.0,66.0,2687.0,square3,f,0.184,2,V,8.0
V8,38.0,49.0,50.0,66.0,37.0,66.0,2753.0,square3,f,0.161,2,V,8.0
V8,39.0,51.0,56.0,61.0,39.0,61.0,2814.0,square3,f,0.119,2,V,8.0
V8,40.0,47.0,59.0,66.0,41.0,66.0,2880.0,square3,f,0.158,2,V,8.0
V8,41.0,42.0,56.0,69.0,42.0,69.0,2949.0,square3,f,0.181,2,V,8.0
V8,42.0,47.0,57.0,72.0,35.0,72.0,3021.0,square3,f,0.089,2,V,8.0
V8,43.0,47.0,57.0,63.0,44.0,63.0,3084.0,square3,f,0.152,2,V,8.0
V8,44.0,45.0,58.0,67.0,42.0,67.0,3151.0,square3,f,0.177,2,V,8.0
V8,45.0,44.0,56.0,66.0,43.0,66.0,3217.0,square3,f,0.152,2,V,8.0
V8,46.0,46.0,53.0,70.0,37.0,70.0,3287.0,square3,f,0.133,2,V,8.0
V8,47.0,54.0,53.0,71.0,41.0,71.0,3358.0,square3,f,0.138,2,V,8.0
V8,48.0,49.0,53.0,69.0,37.0,69.0,3427.0,square3,f,0.066,2,V,8.0
V8,49.0,39.0,57.0,65.0,47.0,65.0,3492.0,square3,f,0.12,2,V,8.0
V8,50.0,48.0,55.0,65.0,41.0,65.0,3557.0,square3,f,0.149,2,V,8.0
V8,51.0,45.0,61.0,68.0,43.0,68.0,3625.0,square3,f,0.219,2,V,8.0
V8,52.0,53.0,52.0,68.0,37.0,68.0,3693.0,square3,f,0.138,2,V,8.0
V8,53.0,47.0,55.0,66.0,46.0,46.0,3739.0,square4,j,0.105,3,V,8.0
V8,54.0,49.0,53.0,61.0,39.0,61.0,3800.0,square3,f,0.139,2,V,8.0
V8,55.0,53.0,70.0,55.0,72.0,55.0,3855.0,square3,f,0.269,2,V,8.0
V8,56.0,57.0,63.0,48.0,73.0,63.0,3918.0,square2,i,0.304,1,V,8.0
V8,57.0,53.0,71.0,45.0,80.0,71.0,3989.0,square2,i,0.225,1,V,8.0
V8,58.0,57.0,69.0,52.0,73.0,69.0,4058.0,square2,i,0.234,1,V,8.0
V8,59.0,58.0,67.0,54.0,73.0,67.0,4125.0,square2,i,0.209,1,V,8.0
V8,60.0,55.0,66.0,47.0,76.0,66.0,4191.0,square2,i,0.204,1,V,8.0
V8,61.0,56.0,65.0,54.0,72.0,65.0,4256.0,square2,i,0.103,1,V,8.0
V8,62.0,56.0,65.0,49.0,75.0,65.0,4321.0,square2,i,0.198,1,V,8.0
V8,63.0,61.0,65.0,44.0,78.0,65.0,4386.0,square2,i,0.074,1,V,8.0
V8,64.0,54.0,66.0,48.0,75.0,66.0,4452.0,square2,i,0.159,1,V,8.0
V8,65.0,59.0,65.0,46.0,79.0,65.0,4517.0,square2,i,0.233,1,V,8.0
V8,66.0,51.0,62.0,46.0,73.0,62.0,4579.0,square2,i,0.152,1,V,8.0
V8,67.0,60.0,70.0,45.0,76.0,70.0,4649.0,square2,i,0.1,1,V,8.0
V8,68.0,63.0,64.0,47.0,73.0,64.0,4713.0,square2,i,0.116,1,V,8.0
V8,69.0,58.0,66.0,43.0,77.0,66.0,4779.0,square2,i,0.199,1,V,8.0
V8,70.0,59.0,65.0,49.0,73.0,65.0,4844.0,square2,i,0.167,1,V,8.0
V8,71.0,60.0,64.0,49.0,79.0,64.0,4908.0,square2,i,0.124,1,V,8.0
V8,72.0,96.0,68.0,78.0,67.0,68.0,4976.0,square2,i,0.182,1,V,8.0
V8,73.0,96.0,68.0,79.0,64.0,68.0,5044.0,square2,i,0.088,1,V,8.0
V8,74.0,92.0,67.0,81.0,62.0,67.0,5111.0,square2,i,0.136,1,V,8.0
V8,75.0,96.0,72.0,83.0,62.0,72.0,5183.0,square2,i,0.151,1,V,8.0
V8,76.0,94.0,70.0,77.0,57.0,70.0,5253.0,square2,i,0.2,1,V,8.0
V8,77.0,91.0,68.0,81.0,59.0,68.0,5321.0,square2,i,0.148,1,V,8.0
V8,78.0,90.0,73.0,80.0,63.0,73.0,5394.0,square2,i,0.18,1,V,8.0
V8,79.0,90.0,73.0,83.0,61.0,73.0,5467.0,square2,i,0.064,1,V,8.0
V8,80.0,95.0,75.0,81.0,66.0,75.0,5542.0,square2,i,0.148,1,V,8.0
V8,81.0,92.0,72.0,81.0,57.0,72.0,5614.0,square2,i,0.121,1,V,8.0
V8,82.0,91.0,71.0,80.0,61.0,71.0,5685.0,square2,i,0.122,1,V,8.0
V8,83.0,90.0,66.0,83.0,62.0,66.0,5751.0,square2,i,0.148,1,V,8.0
V8,84.0,93.0,67.0,87.0,65.0,67.0,5818.0,square2,i,0.132,1,V,8.0
V8,85.0,85.0,70.0,80.0,62.0,70.0,5888.0,square2,i,0.102,1,V,8.0
V8,86.0,84.0,72.0,85.0,62.0,72.0,5960.0,square2,i,0.223,1,V,8.0
V8,87.0,91.0,68.0,82.0,65.0,68.0,6028.0,square2,i,0.101,1,V,8.0
V8,88.0,93.0,67.0,83.0,61.0,67.0,6095.0,square2,i,0.082,1,V,8.0
V8,89.0,95.0,68.0,78.0,66.0,68.0,6163.0,square2,i,0.115,1,V,8.0
V8,90.0,91.0,73.0,80.0,60.0,73.0,6236.0,square2,i,0.117,1,V,8.0
V8,91.0,93.0,68.0,81.0,64.0,68.0,6304.0,square2,i,0.133,1,V,8.0
V8,92.0,90.0,75.0,82.0,67.0,75.0,6379.0,square2,i,0.17,1,V,8.0
V8,93.0,92.0,70.0,82.0,66.0,70.0,6449.0,square2,i,0.141,1,V,8.0
V8,94.0,90.0,71.0,78.0,63.0,71.0,6520.0,square2,i,0.135,1,V,8.0
V8,95.0,88.0,65.0,78.0,63.0,65.0,6585.0,square2,i,0.085,1,V,8.0
V8,96.0,89.0,72.0,85.0,62.0,72.0,6657.0,square2,i,0.099,1,V,8.0
V8,97.0,92.0,72.0,77.0,67.0,72.0,6729.0,square2,i,0.117,1,V,8.0
V8,98.0,86.0,63.0,82.0,62.0,63.0,6792.0,square2,i,0.138,1,V,8.0
V8,99.0,90.0,66.0,75.0,61.0,66.0,6858.0,square2,i,0.065,1,V,8.0
V9,0.0,20.0,29.0,37.0,45.0,45.0,45.0,square4,f,0.551,3,V,9.0
V9,1.0,21.0,32.0,39.0,45.0,32.0,77.0,square2,j,0.208,1,V,9.0
V9,2.0,16.0,27.0,41.0,48.0,16.0,93.0,square1,i,0.066,0,V,9.0
V9,3.0,20.0,30.0,42.0,50.0,42.0,135.0,square3,r,1.133,2,V,9.0
V9,4.0,22.0,34.0,37.0,47.0,47.0,182.0,square4,f,0.214,3,V,9.0
V9,5.0,17.0,32.0,38.0,49.0,49.0,231.0,square4,f,0.194,3,V,9.0
V9,6.0,17.0,25.0,39.0,47.0,47.0,278.0,square4,f,0.282,3,V,9.0
V9,7.0,22.0,28.0,33.0,48.0,48.0,326.0,square4,f,0.2,3,V,9.0
V9,8.0,20.0,24.0,34.0,41.0,41.0,367.0,square4,f,0.2,3,V,9.0
V9,9.0,20.0,33.0,30.0,51.0,51.0,418.0,square4,f,0.181,3,V,9.0
V9,10.0,21.0,35.0,38.0,50.0,50.0,468.0,square4,f,0.157,3,V,9.0
V9,11.0,19.0,29.0,44.0,45.0,45.0,513.0,square4,f,0.156,3,V,9.0
V9,12.0,27.0,24.0,38.0,54.0,54.0,567.0,square4,f,0.149,3,V,9.0
V9,13.0,15.0,26.0,37.0,50.0,50.0,617.0,square4,f,0.156,3,V,9.0
V9,14.0,24.0,26.0,39.0,42.0,42.0,659.0,square4,f,0.047,3,V,9.0
V9,15.0,26.0,27.0,43.0,49.0,49.0,708.0,square4,f,0.164,3,V,9.0
V9,16.0,19.0,30.0,42.0,49.0,49.0,757.0,square4,f,0.085,3,V,9.0
V9,17.0,21.0,30.0,34.0,49.0,49.0,806.0,square4,f,0.054,3,V,9.0
V9,18.0,25.0,33.0,41.0,51.0,51.0,857.0,square4,f,0.151,3,V,9.0
V9,19.0,17.0,31.0,41.0,45.0,45.0,902.0,square4,f,0.133,3,V,9.0
V9,20.0,19.0,31.0,34.0,49.0,49.0,951.0,square4,f,0.121,3,V,9.0
V9,21.0,23.0,29.0,37.0,48.0,48.0,999.0,square4,f,0.167,3,V,9.0
V9,22.0,15.0,32.0,36.0,48.0,48.0,1047.0,square4,f,0.115,3,V,9.0
V9,23.0,25.0,33.0,39.0,47.0,47.0,1094.0,square4,f,0.116,3,V,9.0
V9,24.0,21.0,30.0,38.0,52.0,52.0,1146.0,square4,f,0.083,3,V,9.0
V9,25.0,25.0,29.0,42.0,48.0,48.0,1194.0,square4,f,0.117,3,V,9.0
V9,26.0,22.0,29.0,39.0,47.0,47.0,1241.0,square4,f,0.148,3,V,9.0
V9,27.0,17.0,31.0,45.0,41.0,41.0,1282.0,square4,f,0.103,3,V,9.0
V9,28.0,29.0,28.0,43.0,43.0,43.0,1325.0,square4,f,0.164,3,V,9.0
V9,29.0,20.0,31.0,43.0,49.0,49.0,1374.0,square4,f,0.139,3,V,9.0
V9,30.0,23.0,33.0,39.0,48.0,48.0,1422.0,square4,f,0.115,3,V,9.0
V9,31.0,20.0,27.0,38.0,53.0,53.0,1475.0,square4,f,0.109,3,V,9.0
V9,32.0,23.0,29.0,37.0,49.0,49.0,1524.0,square4,f,0.072,3,V,9.0
V9,33.0,24.0,33.0,37.0,49.0,49.0,1573.0,square4,f,0.108,3,V,9.0
V9,34.0,43.0,58.0,48.0,30.0,30.0,1603.0,square4,f,0.12,3,V,9.0
V9,35.0,48.0,59.0,45.0,34.0,45.0,1648.0,square3,r,0.144,2,V,9.0
V9,36.0,39.0,56.0,54.0,32.0,56.0,1704.0,square2,j,0.066,1,V,9.0
V9,37.0,40.0,57.0,50.0,35.0,57.0,1761.0,square2,j,0.127,1,V,9.0
V9,38.0,49.0,62.0,51.0,33.0,62.0,1823.0,square2,j,0.243,1,V,9.0
V9,39.0,45.0,61.0,48.0,34.0,61.0,1884.0,square2,j,0.182,1,V,9.0
V9,40.0,40.0,65.0,51.0,29.0,65.0,1949.0,square2,j,0.103,1,V,9.0
V9,41.0,44.0,57.0,50.0,38.0,57.0,2006.0,square2,j,0.155,1,V,9.0
V9,42.0,40.0,57.0,49.0,33.0,57.0,2063.0,square2,j,0.126,1,V,9.0
V9,43.0,42.0,64.0,54.0,35.0,64.0,2127.0,square2,j,0.201,1,V,9.0
V9,44.0,44.0,55.0,49.0,39.0,55.0,2182.0,square2,j,0.148,1,V,9.0
V9,45.0,37.0,66.0,51.0,35.0,66.0,2248.0,square2,j,0.049,1,V,9.0
V9,46.0,40.0,59.0,51.0,32.0,59.0,2307.0,square2,j,0.118,1,V,9.0
V9,47.0,38.0,62.0,57.0,31.0,62.0,2369.0,square2,j,0.183,1,V,9.0
V9,48.0,43.0,61.0,54.0,34.0,61.0,2430.0,square2,j,0.07,1,V,9.0
V9,49.0,43.0,61.0,49.0,40.0,61.0,2491.0,square2,j,0.108,1,V,9.0
V9,50.0,37.0,58.0,51.0,32.0,58.0,2549.0,square2,j,0.168,1,V,9.0
V9,51.0,44.0,63.0,48.0,39.0,63.0,2612.0,square2,j,0.121,1,V,9.0
V9,52.0,35.0,65.0,48.0,30.0,65.0,2677.0,square2,j,0.082,1,V,9.0
V9,53.0,43.0,59.0,48.0,39.0,59.0,2736.0,square2,j,0.173,1,V,9.0
V9,54.0,43.0,59.0,52.0,30.0,59.0,2795.0,square2,j,0.054,1,V,9.0
V9,55.0,41.0,58.0,51.0,34.0,58.0,2853.0,square2,j,0.127,1,V,9.0
V9,56.0,44.0,63.0,50.0,33.0,63.0,2916.0,square2,j,0.153,1,V,9.0
V9,57.0,42.0,60.0,49.0,32.0,60.0,2976.0,square2,j,0.216,1,V,9.0
V9,58.0,44.0,62.0,57.0,30.0,62.0,3038.0,square2,j,0.119,1,V,9.0
V9,59.0,45.0,61.0,45.0,31.0,61.0,3099.0,square2,j,0.185,1,V,9.0
V9,60.0,43.0,63.0,53.0,33.0,63.0,3162.0,square2,j,0.104,1,V,9.0
V9,61.0,39.0,56.0,55.0,31.0,56.0,3218.0,square2,j,0.19,1,V,9.0
V9,62.0,39.0,61.0,50.0,34.0,61.0,3279.0,square2,j,0.167,1,V,9.0
V9,63.0,44.0,57.0,48.0,36.0,57.0,3336.0,square2,j,0.074,1,V,9.0
V9,64.0,40.0,60.0,58.0,35.0,60.0,3396.0,square2,j,0.181,1,V,9.0
V9,65.0,42.0,60.0,54.0,38.0,60.0,3456.0,square2,j,0.058,1,V,9.0
V9,66.0,41.0,60.0,54.0,37.0,60.0,3516.0,square2,j,0.05,1,V,9.0
V9,67.0,43.0,61.0,54.0,40.0,61.0,3577.0,square2,j,0.06,1,V,9.0
V9,68.0,45.0,40.0,26.0,18.0,40.0,3617.0,square2,j,0.1,1,V,9.0
V9,69.0,50.0,41.0,29.0,20.0,41.0,3658.0,square2,j,0.351,1,V,9.0
V9,70.0,43.0,36.0,27.0,15.0,43.0,3701.0,square1,i,0.084,0,V,9.0
V9,71.0,44.0,40.0,28.0,18.0,28.0,3729.0,square3,r,0.076,2,V,9.0
V9,72.0,42.0,38.0,27.0,18.0,18.0,3747.0,square4,f,0.05,3,V,9.0
V9,73.0,46.0,33.0,25.0,19.0,33.0,3780.0,square2,j,0.037,1,V,9.0
V9,74.0,47.0,40.0,28.0,20.0,40.0,3820.0,square2,j,0.131,1,V,9.0
V9,75.0,39.0,39.0,27.0,25.0,39.0,3859.0,square2,j,0.123,1,V,9.0
V9,76.0,50.0,31.0,29.0,23.0,31.0,3890.0,square2,j,0.146,1,V,9.0
V9,77.0,44.0,37.0,28.0,13.0,44.0,3934.0,square1,i,0.115,0,V,9.0
V9,78.0,43.0,36.0,23.0,17.0,43.0,3977.0,square1,i,0.081,0,V,9.0
V9,79.0,42.0,36.0,28.0,24.0,28.0,4005.0,square3,r,0.085,2,V,9.0
V9,80.0,47.0,35.0,30.0,14.0,47.0,4052.0,square1,i,0.031,0,V,9.0
V9,81.0,46.0,33.0,29.0,18.0,46.0,4098.0,square1,i,0.108,0,V,9.0
V9,82.0,46.0,35.0,28.0,18.0,46.0,4144.0,square1,i,0.091,0,V,9.0
V9,83.0,47.0,41.0,32.0,15.0,47.0,4191.0,square1,i,0.098,0,V,9.0
V9,84.0,45.0,38.0,31.0,18.0,45.0,4236.0,square1,i,0.091,0,V,9.0
V9,85.0,42.0,35.0,30.0,21.0,42.0,4278.0,square1,i,0.083,0,V,9.0
V9,86.0,49.0,39.0,23.0,18.0,49.0,4327.0,square1,i,1.07,0,V,9.0
V9,87.0,49.0,39.0,27.0,16.0,49.0,4376.0,square1,i,0.161,0,V,9.0
V9,88.0,45.0,38.0,25.0,14.0,45.0,4421.0,square1,i,0.139,0,V,9.0
V9,89.0,45.0,32.0,28.0,19.0,45.0,4466.0,square1,i,0.129,0,V,9.0
V9,90.0,44.0,35.0,29.0,20.0,44.0,4510.0,square1,i,0.115,0,V,9.0
V9,91.0,42.0,38.0,32.0,16.0,42.0,4552.0,square1,i,0.15,0,V,9.0
V9,92.0,45.0,36.0,23.0,20.0,20.0,4572.0,square4,f,0.057,3,V,9.0
V9,93.0,45.0,35.0,26.0,18.0,35.0,4607.0,square2,j,0.048,1,V,9.0
V9,94.0,44.0,37.0,27.0,13.0,44.0,4651.0,square1,i,0.141,0,V,9.0
V9,95.0,46.0,36.0,25.0,20.0,46.0,4697.0,square1,i,0.12,0,V,9.0
V9,96.0,43.0,39.0,27.0,16.0,43.0,4740.0,square1,i,0.071,0,V,9.0
V9,97.0,48.0,39.0,30.0,16.0,48.0,4788.0,square1,i,0.059,0,V,9.0
V9,98.0,49.0,40.0,26.0,20.0,49.0,4837.0,square1,i,0.102,0,V,9.0
V9,99.0,49.0,41.0,27.0,18.0,49.0,4886.0,square1,i,0.09,0,V,9.0
NS6,0.0,68.0,18.0,30.0,58.0,30.0,30.0,square3,j,0.595,2,N,6.0
NS6,1.0,62.0,23.0,38.0,67.0,67.0,97.0,square4,i,0.382,3,N,6.0
NS6,2.0,59.0,30.0,33.0,67.0,59.0,156.0,square1,r,0.19,0,N,6.0
NS6,3.0,62.0,27.0,39.0,65.0,27.0,183.0,square2,f,0.035,1,N,6.0
NS6,4.0,65.0,22.0,32.0,67.0,67.0,250.0,square4,i,0.019,3,N,6.0
NS6,5.0,61.0,28.0,39.0,67.0,67.0,317.0,square4,i,0.152,3,N,6.0
NS6,6.0,59.0,28.0,39.0,66.0,66.0,383.0,square4,i,0.186,3,N,6.0
NS6,7.0,56.0,30.0,43.0,63.0,63.0,446.0,square4,i,0.133,3,N,6.0
NS6,8.0,57.0,26.0,36.0,60.0,60.0,506.0,square4,i,0.123,3,N,6.0
NS6,9.0,51.0,30.0,38.0,65.0,65.0,571.0,square4,i,0.133,3,N,6.0
NS6,10.0,46.0,26.0,41.0,61.0,61.0,632.0,square4,i,0.084,3,N,6.0
NS6,11.0,46.0,30.0,40.0,58.0,58.0,690.0,square4,i,0.073,3,N,6.0
NS6,12.0,44.0,27.0,41.0,56.0,56.0,746.0,square4,i,0.134,3,N,6.0
NS6,13.0,41.0,32.0,44.0,54.0,54.0,800.0,square4,i,0.077,3,N,6.0
NS6,14.0,45.0,36.0,41.0,51.0,51.0,851.0,square4,i,0.099,3,N,6.0
NS6,15.0,37.0,34.0,39.0,54.0,54.0,905.0,square4,i,0.099,3,N,6.0
NS6,16.0,36.0,37.0,39.0,48.0,48.0,953.0,square4,i,0.068,3,N,6.0
NS6,17.0,41.0,39.0,36.0,45.0,41.0,994.0,square1,r,0.037,0,N,6.0
NS6,18.0,39.0,38.0,29.0,48.0,29.0,1023.0,square3,j,0.606,2,N,6.0
NS6,19.0,35.0,40.0,32.0,46.0,40.0,1063.0,square2,f,0.117,1,N,6.0
NS6,20.0,41.0,40.0,28.0,55.0,55.0,1118.0,square4,i,0.518,3,N,6.0
NS6,21.0,45.0,44.0,27.0,54.0,54.0,1172.0,square4,i,0.155,3,N,6.0
NS6,22.0,44.0,51.0,31.0,53.0,53.0,1225.0,square4,i,0.124,3,N,6.0
NS6,23.0,44.0,50.0,29.0,53.0,53.0,1278.0,square4,i,0.132,3,N,6.0
NS6,24.0,49.0,49.0,35.0,55.0,55.0,1333.0,square4,i,0.084,3,N,6.0
NS6,25.0,44.0,51.0,36.0,56.0,56.0,1389.0,square4,i,0.139,3,N,6.0
NS6,26.0,43.0,46.0,38.0,58.0,58.0,1447.0,square4,i,0.056,3,N,6.0
NS6,27.0,41.0,44.0,41.0,59.0,59.0,1506.0,square4,i,0.121,3,N,6.0
NS6,28.0,38.0,47.0,39.0,58.0,58.0,1564.0,square4,i,0.067,3,N,6.0
NS6,29.0,39.0,46.0,37.0,54.0,54.0,1618.0,square4,i,0.066,3,N,6.0
NS6,30.0,36.0,49.0,40.0,53.0,53.0,1671.0,square4,i,0.131,3,N,6.0
NS6,31.0,37.0,45.0,36.0,55.0,55.0,1726.0,square4,i,0.059,3,N,6.0
NS6,32.0,42.0,42.0,40.0,56.0,56.0,1782.0,square4,i,0.099,3,N,6.0
NS6,33.0,33.0,44.0,32.0,53.0,53.0,1835.0,square4,i,0.049,3,N,6.0
NS6,34.0,32.0,42.0,36.0,49.0,49.0,1884.0,square4,i,0.047,3,N,6.0
NS6,35.0,35.0,28.0,38.0,51.0,51.0,1935.0,square4,i,0.057,3,N,6.0
NS6,36.0,38.0,28.0,35.0,52.0,52.0,1987.0,square4,i,0.065,3,N,6.0
NS6,37.0,44.0,31.0,37.0,55.0,55.0,2042.0,square4,i,0.074,3,N,6.0
NS6,38.0,36.0,31.0,36.0,54.0,54.0,2096.0,square4,i,0.059,3,N,6.0
NS6,39.0,40.0,29.0,41.0,60.0,60.0,2156.0,square4,i,0.108,3,N,6.0
NS6,40.0,46.0,33.0,36.0,62.0,62.0,2218.0,square4,i,0.069,3,N,6.0
NS6,41.0,44.0,38.0,34.0,63.0,63.0,2281.0,square4,i,0.018,3,N,6.0
NS6,42.0,43.0,32.0,29.0,59.0,59.0,2340.0,square4,i,0.134,3,N,6.0
NS6,43.0,47.0,29.0,38.0,61.0,61.0,2401.0,square4,i,0.065,3,N,6.0
NS6,44.0,49.0,33.0,36.0,56.0,56.0,2457.0,square4,i,0.065,3,N,6.0
NS6,45.0,51.0,29.0,32.0,60.0,60.0,2517.0,square4,i,0.055,3,N,6.0
NS6,46.0,52.0,36.0,41.0,64.0,64.0,2581.0,square4,i,0.1,3,N,6.0
NS6,47.0,55.0,35.0,46.0,60.0,60.0,2641.0,square4,i,0.084,3,N,6.0
NS6,48.0,57.0,34.0,40.0,64.0,64.0,2705.0,square4,i,0.064,3,N,6.0
NS6,49.0,54.0,37.0,42.0,59.0,59.0,2764.0,square4,i,0.083,3,N,6.0
NS6,50.0,58.0,40.0,35.0,51.0,51.0,2815.0,square4,i,0.075,3,N,6.0
NS6,51.0,64.0,35.0,36.0,53.0,53.0,2868.0,square4,i,0.098,3,N,6.0
NS6,52.0,60.0,37.0,30.0,52.0,52.0,2920.0,square4,i,0.114,3,N,6.0
NS6,53.0,63.0,40.0,30.0,54.0,54.0,2974.0,square4,i,0.034,3,N,6.0
NS6,54.0,60.0,37.0,30.0,53.0,53.0,3027.0,square4,i,0.13,3,N,6.0
NS6,55.0,57.0,40.0,29.0,50.0,50.0,3077.0,square4,i,0.0,3,N,6.0
NS6,56.0,58.0,30.0,30.0,46.0,46.0,3123.0,square4,i,0.165,3,N,6.0
NS6,57.0,64.0,34.0,31.0,45.0,45.0,3168.0,square4,i,0.122,3,N,6.0
NS6,58.0,66.0,31.0,34.0,48.0,66.0,3234.0,square1,r,0.098,0,N,6.0
NS6,59.0,68.0,31.0,35.0,44.0,68.0,3302.0,square1,r,0.097,0,N,6.0
NS6,60.0,65.0,28.0,27.0,49.0,65.0,3367.0,square1,r,0.174,0,N,6.0
NS6,61.0,67.0,29.0,25.0,47.0,67.0,3434.0,square1,r,0.159,0,N,6.0
NS6,62.0,67.0,31.0,27.0,41.0,67.0,3501.0,square1,r,0.135,0,N,6.0
NS6,63.0,69.0,32.0,24.0,45.0,69.0,3570.0,square1,r,0.104,0,N,6.0
NS6,64.0,72.0,41.0,30.0,50.0,72.0,3642.0,square1,r,0.032,0,N,6.0
NS6,65.0,75.0,35.0,33.0,50.0,75.0,3717.0,square1,r,0.149,0,N,6.0
NS6,66.0,71.0,37.0,26.0,49.0,71.0,3788.0,square1,r,0.186,0,N,6.0
NS6,67.0,74.0,34.0,21.0,49.0,74.0,3862.0,square1,r,0.482,0,N,6.0
NS6,68.0,81.0,37.0,27.0,50.0,81.0,3943.0,square1,r,0.03,0,N,6.0
NS6,69.0,80.0,31.0,25.0,49.0,80.0,4023.0,square1,r,0.041,0,N,6.0
NS6,70.0,83.0,33.0,31.0,46.0,83.0,4106.0,square1,r,0.025,0,N,6.0
NS6,71.0,75.0,33.0,34.0,53.0,75.0,4181.0,square1,r,0.114,0,N,6.0
NS6,72.0,73.0,39.0,32.0,55.0,73.0,4254.0,square1,r,0.107,0,N,6.0
NS6,73.0,74.0,40.0,33.0,53.0,74.0,4328.0,square1,r,0.032,0,N,6.0
NS6,74.0,73.0,46.0,32.0,50.0,73.0,4401.0,square1,r,0.427,0,N,6.0
NS6,75.0,71.0,40.0,32.0,49.0,71.0,4472.0,square1,r,0.13,0,N,6.0
NS6,76.0,65.0,43.0,31.0,56.0,65.0,4537.0,square1,r,0.103,0,N,6.0
NS6,77.0,66.0,41.0,33.0,56.0,66.0,4603.0,square1,r,0.001,0,N,6.0
NS6,78.0,71.0,40.0,38.0,64.0,71.0,4674.0,square1,r,0.034,0,N,6.0
NS6,79.0,69.0,36.0,35.0,62.0,69.0,4743.0,square1,r,0.068,0,N,6.0
NS6,80.0,69.0,34.0,37.0,69.0,69.0,4812.0,square1,r,0.05,0,N,6.0
NS6,81.0,70.0,37.0,37.0,71.0,70.0,4882.0,square1,r,0.149,0,N,6.0
NS6,82.0,68.0,38.0,39.0,66.0,68.0,4950.0,square1,r,0.033,0,N,6.0
NS6,83.0,69.0,42.0,41.0,73.0,69.0,5019.0,square1,r,0.117,0,N,6.0
NS6,84.0,62.0,42.0,42.0,70.0,62.0,5081.0,square1,r,0.081,0,N,6.0
NS6,85.0,57.0,45.0,42.0,77.0,57.0,5138.0,square1,r,0.052,0,N,6.0
NS6,86.0,58.0,47.0,44.0,70.0,58.0,5196.0,square1,r,0.035,0,N,6.0
NS6,87.0,62.0,44.0,52.0,73.0,62.0,5258.0,square1,r,0.067,0,N,6.0
NS6,88.0,62.0,45.0,47.0,72.0,62.0,5320.0,square1,r,0.068,0,N,6.0
NS6,89.0,59.0,50.0,47.0,73.0,59.0,5379.0,square1,r,0.035,0,N,6.0
NS6,90.0,55.0,45.0,44.0,68.0,55.0,5434.0,square1,r,0.1,0,N,6.0
NS6,91.0,55.0,51.0,47.0,67.0,55.0,5489.0,square1,r,0.031,0,N,6.0
NS6,92.0,62.0,52.0,35.0,69.0,62.0,5551.0,square1,r,0.478,0,N,6.0
NS6,93.0,59.0,47.0,32.0,68.0,59.0,5610.0,square1,r,0.138,0,N,6.0
NS6,94.0,67.0,53.0,44.0,66.0,67.0,5677.0,square1,r,0.101,0,N,6.0
NS6,95.0,71.0,44.0,47.0,66.0,71.0,5748.0,square1,r,0.115,0,N,6.0
NS6,96.0,68.0,53.0,47.0,66.0,68.0,5816.0,square1,r,0.038,0,N,6.0
NS6,97.0,65.0,49.0,44.0,64.0,65.0,5881.0,square1,r,0.082,0,N,6.0
NS6,98.0,66.0,54.0,55.0,57.0,66.0,5947.0,square1,r,0.093,0,N,6.0
NS6,99.0,69.0,57.0,51.0,56.0,69.0,6016.0,square1,r,0.108,0,N,6.0
NS10,0.0,61.0,42.0,19.0,80.0,19.0,19.0,square3,r,1.624,2,N,10.0
NS10,1.0,62.0,41.0,25.0,78.0,62.0,81.0,square1,f,0.135,0,N,10.0
NS10,2.0,64.0,42.0,22.0,80.0,80.0,161.0,square4,j,0.099,3,N,10.0
NS10,3.0,66.0,50.0,21.0,73.0,50.0,211.0,square2,i,0.117,1,N,10.0
NS10,4.0,65.0,48.0,19.0,80.0,80.0,291.0,square4,j,0.081,3,N,10.0
NS10,5.0,66.0,48.0,23.0,75.0,75.0,366.0,square4,j,0.083,3,N,10.0
NS10,6.0,60.0,47.0,26.0,77.0,77.0,443.0,square4,j,0.187,3,N,10.0
NS10,7.0,66.0,43.0,25.0,81.0,81.0,524.0,square4,j,0.138,3,N,10.0
NS10,8.0,72.0,42.0,23.0,80.0,80.0,604.0,square4,j,0.073,3,N,10.0
NS10,9.0,66.0,45.0,21.0,81.0,81.0,685.0,square4,j,0.066,3,N,10.0
NS10,10.0,69.0,46.0,29.0,77.0,77.0,762.0,square4,j,0.066,3,N,10.0
NS10,11.0,68.0,44.0,27.0,70.0,70.0,832.0,square4,j,0.031,3,N,10.0
NS10,12.0,68.0,46.0,27.0,65.0,65.0,897.0,square4,j,0.042,3,N,10.0
NS10,13.0,67.0,50.0,23.0,65.0,65.0,962.0,square4,j,0.104,3,N,10.0
NS10,14.0,67.0,49.0,31.0,61.0,61.0,1023.0,square4,j,0.05,3,N,10.0
NS10,15.0,71.0,51.0,28.0,69.0,69.0,1092.0,square4,j,0.053,3,N,10.0
NS10,16.0,71.0,48.0,25.0,64.0,64.0,1156.0,square4,j,0.064,3,N,10.0
NS10,17.0,68.0,48.0,25.0,60.0,60.0,1216.0,square4,j,0.038,3,N,10.0
NS10,18.0,68.0,49.0,23.0,66.0,66.0,1282.0,square4,j,0.048,3,N,10.0
NS10,19.0,67.0,51.0,23.0,64.0,64.0,1346.0,square4,j,0.036,3,N,10.0
NS10,20.0,65.0,54.0,29.0,58.0,58.0,1404.0,square4,j,0.069,3,N,10.0
NS10,21.0,61.0,58.0,22.0,61.0,61.0,1465.0,square4,j,0.099,3,N,10.0
NS10,22.0,67.0,51.0,23.0,60.0,60.0,1525.0,square4,j,0.109,3,N,10.0
NS10,23.0,65.0,57.0,22.0,60.0,60.0,1585.0,square4,j,0.066,3,N,10.0
NS10,24.0,67.0,58.0,26.0,56.0,56.0,1641.0,square4,j,0.088,3,N,10.0
NS10,25.0,70.0,67.0,26.0,60.0,60.0,1701.0,square4,j,0.12,3,N,10.0
NS10,26.0,71.0,58.0,24.0,55.0,55.0,1756.0,square4,j,0.1,3,N,10.0
NS10,27.0,74.0,57.0,24.0,59.0,59.0,1815.0,square4,j,0.067,3,N,10.0
NS10,28.0,76.0,62.0,24.0,56.0,56.0,1871.0,square4,j,0.061,3,N,10.0
NS10,29.0,78.0,66.0,21.0,61.0,61.0,1932.0,square4,j,0.108,3,N,10.0
NS10,30.0,74.0,62.0,20.0,52.0,52.0,1984.0,square4,j,0.09,3,N,10.0
NS10,31.0,74.0,63.0,21.0,53.0,74.0,2058.0,square1,f,0.05,0,N,10.0
NS10,32.0,77.0,62.0,19.0,50.0,77.0,2135.0,square1,f,0.055,0,N,10.0
NS10,33.0,74.0,63.0,21.0,50.0,74.0,2209.0,square1,f,0.09,0,N,10.0
NS10,34.0,69.0,64.0,16.0,47.0,69.0,2278.0,square1,f,0.099,0,N,10.0
NS10,35.0,68.0,60.0,14.0,51.0,68.0,2346.0,square1,f,0.083,0,N,10.0
NS10,36.0,76.0,59.0,13.0,52.0,76.0,2422.0,square1,f,0.038,0,N,10.0
NS10,37.0,71.0,60.0,16.0,50.0,71.0,2493.0,square1,f,0.017,0,N,10.0
NS10,38.0,70.0,56.0,27.0,49.0,70.0,2563.0,square1,f,0.033,0,N,10.0
NS10,39.0,75.0,59.0,22.0,49.0,75.0,2638.0,square1,f,0.002,0,N,10.0
NS10,40.0,70.0,56.0,27.0,51.0,70.0,2708.0,square1,f,0.078,0,N,10.0
NS10,41.0,73.0,57.0,24.0,54.0,73.0,2781.0,square1,f,0.061,0,N,10.0
NS10,42.0,70.0,58.0,24.0,51.0,70.0,2851.0,square1,f,0.582,0,N,10.0
NS10,43.0,70.0,60.0,26.0,45.0,70.0,2921.0,square1,f,0.038,0,N,10.0
NS10,44.0,68.0,58.0,27.0,53.0,68.0,2989.0,square1,f,0.009,0,N,10.0
NS10,45.0,70.0,61.0,31.0,49.0,70.0,3059.0,square1,f,0.083,0,N,10.0
NS10,46.0,65.0,60.0,29.0,43.0,65.0,3124.0,square1,f,0.004,0,N,10.0
NS10,47.0,65.0,61.0,32.0,44.0,65.0,3189.0,square1,f,0.052,0,N,10.0
NS10,48.0,67.0,58.0,31.0,46.0,67.0,3256.0,square1,f,0.031,0,N,10.0
NS10,49.0,76.0,55.0,38.0,43.0,76.0,3332.0,square1,f,0.051,0,N,10.0
NS10,50.0,74.0,65.0,36.0,40.0,74.0,3406.0,square1,f,0.099,0,N,10.0
NS10,51.0,74.0,58.0,34.0,40.0,74.0,3480.0,square1,f,0.019,0,N,10.0
NS10,52.0,69.0,65.0,28.0,43.0,69.0,3549.0,square1,f,0.018,0,N,10.0
NS10,53.0,69.0,65.0,32.0,40.0,69.0,3618.0,square1,f,0.065,0,N,10.0
NS10,54.0,72.0,61.0,32.0,41.0,72.0,3690.0,square1,f,0.065,0,N,10.0
NS10,55.0,65.0,64.0,36.0,33.0,65.0,3755.0,square1,f,0.031,0,N,10.0
NS10,56.0,75.0,64.0,37.0,37.0,75.0,3830.0,square1,f,0.114,0,N,10.0
NS10,57.0,72.0,62.0,36.0,38.0,72.0,3902.0,square1,f,0.069,0,N,10.0
NS10,58.0,63.0,68.0,38.0,33.0,63.0,3965.0,square1,f,0.107,0,N,10.0
NS10,59.0,65.0,64.0,43.0,34.0,65.0,4030.0,square1,f,0.108,0,N,10.0
NS10,60.0,62.0,64.0,51.0,40.0,62.0,4092.0,square1,f,0.109,0,N,10.0
NS10,61.0,61.0,65.0,45.0,38.0,61.0,4153.0,square1,f,0.05,0,N,10.0
NS10,62.0,66.0,63.0,41.0,37.0,63.0,4216.0,square2,i,0.069,1,N,10.0
NS10,63.0,67.0,62.0,45.0,41.0,41.0,4257.0,square4,j,0.083,3,N,10.0
NS10,64.0,72.0,60.0,44.0,36.0,60.0,4317.0,square2,i,0.014,1,N,10.0
NS10,65.0,73.0,65.0,42.0,39.0,42.0,4359.0,square3,r,0.084,2,N,10.0
NS10,66.0,72.0,67.0,45.0,43.0,72.0,4431.0,square1,f,0.49,0,N,10.0
NS10,67.0,66.0,70.0,44.0,40.0,66.0,4497.0,square1,f,0.038,0,N,10.0
NS10,68.0,61.0,69.0,45.0,44.0,61.0,4558.0,square1,f,0.166,0,N,10.0
NS10,69.0,64.0,68.0,42.0,43.0,64.0,4622.0,square1,f,0.053,0,N,10.0
NS10,70.0,66.0,72.0,41.0,42.0,66.0,4688.0,square1,f,0.042,0,N,10.0
NS10,71.0,64.0,72.0,46.0,45.0,64.0,4752.0,square1,f,0.068,0,N,10.0
NS10,72.0,64.0,69.0,44.0,39.0,64.0,4816.0,square1,f,0.067,0,N,10.0
NS10,73.0,60.0,74.0,48.0,45.0,60.0,4876.0,square1,f,0.065,0,N,10.0
NS10,74.0,57.0,75.0,48.0,41.0,57.0,4933.0,square1,f,0.033,0,N,10.0
NS10,75.0,66.0,75.0,46.0,40.0,46.0,4979.0,square3,r,0.083,2,N,10.0
NS10,76.0,63.0,77.0,46.0,40.0,77.0,5056.0,square2,i,0.003,1,N,10.0
NS10,77.0,62.0,74.0,43.0,34.0,74.0,5130.0,square2,i,0.032,1,N,10.0
NS10,78.0,60.0,71.0,48.0,33.0,71.0,5201.0,square2,i,0.132,1,N,10.0
NS10,79.0,63.0,68.0,47.0,29.0,68.0,5269.0,square2,i,0.001,1,N,10.0
NS10,80.0,54.0,71.0,42.0,32.0,71.0,5340.0,square2,i,0.056,1,N,10.0
NS10,81.0,52.0,72.0,44.0,30.0,72.0,5412.0,square2,i,0.005,1,N,10.0
NS10,82.0,51.0,77.0,41.0,31.0,77.0,5489.0,square2,i,0.095,1,N,10.0
NS10,83.0,52.0,63.0,41.0,35.0,63.0,5552.0,square2,i,0.064,1,N,10.0
NS10,84.0,48.0,70.0,37.0,34.0,70.0,5622.0,square2,i,0.051,1,N,10.0
NS10,85.0,51.0,73.0,38.0,30.0,73.0,5695.0,square2,i,0.05,1,N,10.0
NS10,86.0,55.0,79.0,45.0,27.0,79.0,5774.0,square2,i,0.048,1,N,10.0
NS10,87.0,54.0,83.0,47.0,21.0,83.0,5857.0,square2,i,0.056,1,N,10.0
NS10,88.0,59.0,78.0,45.0,21.0,78.0,5935.0,square2,i,0.018,1,N,10.0
NS10,89.0,60.0,74.0,45.0,21.0,74.0,6009.0,square2,i,0.103,1,N,10.0
NS10,90.0,55.0,71.0,50.0,18.0,71.0,6080.0,square2,i,0.004,1,N,10.0
NS10,91.0,56.0,71.0,46.0,14.0,71.0,6151.0,square2,i,0.072,1,N,10.0
NS10,92.0,59.0,70.0,46.0,20.0,70.0,6221.0,square2,i,0.065,1,N,10.0
NS10,93.0,65.0,72.0,46.0,21.0,72.0,6293.0,square2,i,0.053,1,N,10.0
NS10,94.0,63.0,68.0,46.0,20.0,68.0,6361.0,square2,i,0.054,1,N,10.0
NS10,95.0,69.0,70.0,48.0,22.0,70.0,6431.0,square2,i,0.033,1,N,10.0
NS10,96.0,68.0,69.0,45.0,27.0,69.0,6500.0,square2,i,0.054,1,N,10.0
NS10,97.0,74.0,69.0,43.0,35.0,69.0,6569.0,square2,i,0.015,1,N,10.0
NS10,98.0,73.0,68.0,43.0,30.0,68.0,6637.0,square2,i,1.153,1,N,10.0
NS10,99.0,70.0,61.0,39.0,32.0,61.0,6698.0,square2,i,0.058,1,N,10.0
NS4,0.0,55.0,53.0,59.0,44.0,55.0,55.0,square1,r,0.596,0,N,4.0
NS4,1.0,49.0,56.0,64.0,41.0,64.0,119.0,square3,i,0.451,2,N,4.0
NS4,2.0,50.0,54.0,71.0,48.0,54.0,173.0,square2,j,0.081,1,N,4.0
NS4,3.0,53.0,58.0,67.0,50.0,50.0,223.0,square4,f,0.007,3,N,4.0
NS4,4.0,49.0,51.0,70.0,55.0,70.0,293.0,square3,i,0.073,2,N,4.0
NS4,5.0,55.0,59.0,73.0,58.0,73.0,366.0,square3,i,0.06,2,N,4.0
NS4,6.0,56.0,54.0,71.0,57.0,71.0,437.0,square3,i,0.183,2,N,4.0
NS4,7.0,60.0,54.0,75.0,52.0,75.0,512.0,square3,i,0.03,2,N,4.0
NS4,8.0,58.0,53.0,74.0,52.0,74.0,586.0,square3,i,0.089,2,N,4.0
NS4,9.0,46.0,48.0,78.0,51.0,78.0,664.0,square3,i,0.064,2,N,4.0
NS4,10.0,55.0,48.0,78.0,51.0,78.0,742.0,square3,i,0.049,2,N,4.0
NS4,11.0,55.0,44.0,79.0,49.0,79.0,821.0,square3,i,0.05,2,N,4.0
NS4,12.0,50.0,40.0,79.0,50.0,79.0,900.0,square3,i,0.017,2,N,4.0
NS4,13.0,45.0,39.0,79.0,53.0,79.0,979.0,square3,i,0.019,2,N,4.0
NS4,14.0,44.0,38.0,77.0,56.0,77.0,1056.0,square3,i,0.037,2,N,4.0
NS4,15.0,45.0,32.0,68.0,52.0,68.0,1124.0,square3,i,0.102,2,N,4.0
NS4,16.0,49.0,32.0,74.0,53.0,74.0,1198.0,square3,i,0.067,2,N,4.0
NS4,17.0,45.0,32.0,69.0,51.0,69.0,1267.0,square3,i,0.043,2,N,4.0
NS4,18.0,50.0,34.0,69.0,47.0,69.0,1336.0,square3,i,0.032,2,N,4.0
NS4,19.0,50.0,36.0,65.0,53.0,65.0,1401.0,square3,i,0.006,2,N,4.0
NS4,20.0,45.0,36.0,62.0,53.0,62.0,1463.0,square3,i,0.085,2,N,4.0
NS4,21.0,49.0,35.0,62.0,55.0,62.0,1525.0,square3,i,0.001,2,N,4.0
NS4,22.0,53.0,32.0,61.0,60.0,61.0,1586.0,square3,i,0.066,2,N,4.0
NS4,23.0,52.0,33.0,58.0,54.0,58.0,1644.0,square3,i,0.05,2,N,4.0
NS4,24.0,48.0,32.0,52.0,60.0,32.0,1676.0,square2,j,0.072,1,N,4.0
NS4,25.0,47.0,30.0,53.0,57.0,47.0,1723.0,square1,r,0.582,0,N,4.0
NS4,26.0,50.0,30.0,60.0,55.0,55.0,1778.0,square4,f,0.048,3,N,4.0
NS4,27.0,50.0,28.0,62.0,47.0,62.0,1840.0,square3,i,0.551,2,N,4.0
NS4,28.0,54.0,28.0,58.0,49.0,58.0,1898.0,square3,i,0.1,2,N,4.0
NS4,29.0,44.0,29.0,50.0,49.0,50.0,1948.0,square3,i,0.085,2,N,4.0
NS4,30.0,43.0,26.0,55.0,57.0,55.0,2003.0,square3,i,0.055,2,N,4.0
NS4,31.0,43.0,25.0,60.0,54.0,54.0,2057.0,square4,f,0.123,3,N,4.0
NS4,32.0,34.0,27.0,58.0,56.0,34.0,2091.0,square1,r,0.066,0,N,4.0
NS4,33.0,34.0,20.0,60.0,62.0,60.0,2151.0,square3,i,0.001,2,N,4.0
NS4,34.0,38.0,28.0,58.0,57.0,58.0,2209.0,square3,i,0.066,2,N,4.0
NS4,35.0,40.0,24.0,63.0,59.0,63.0,2272.0,square3,i,0.084,2,N,4.0
NS4,36.0,36.0,30.0,56.0,63.0,56.0,2328.0,square3,i,0.055,2,N,4.0
NS4,37.0,40.0,29.0,54.0,63.0,54.0,2382.0,square3,i,0.037,2,N,4.0
NS4,38.0,40.0,33.0,53.0,69.0,53.0,2435.0,square3,i,0.018,2,N,4.0
NS4,39.0,36.0,30.0,57.0,67.0,57.0,2492.0,square3,i,0.038,2,N,4.0
NS4,40.0,33.0,33.0,58.0,68.0,58.0,2550.0,square3,i,0.07,2,N,4.0
NS4,41.0,34.0,28.0,58.0,72.0,58.0,2608.0,square3,i,0.016,2,N,4.0
NS4,42.0,35.0,30.0,60.0,70.0,60.0,2668.0,square3,i,0.023,2,N,4.0
NS4,43.0,35.0,34.0,57.0,63.0,57.0,2725.0,square3,i,0.032,2,N,4.0
NS4,44.0,30.0,32.0,59.0,69.0,59.0,2784.0,square3,i,0.036,2,N,4.0
NS4,45.0,29.0,31.0,60.0,66.0,60.0,2844.0,square3,i,0.06,2,N,4.0
NS4,46.0,35.0,34.0,66.0,66.0,66.0,2910.0,square3,i,0.036,2,N,4.0
NS4,47.0,35.0,28.0,63.0,62.0,63.0,2973.0,square3,i,0.033,2,N,4.0
NS4,48.0,37.0,37.0,61.0,55.0,61.0,3034.0,square3,i,0.098,2,N,4.0
NS4,49.0,40.0,34.0,59.0,54.0,59.0,3093.0,square3,i,0.07,2,N,4.0
NS4,50.0,39.0,38.0,68.0,51.0,68.0,3161.0,square3,i,0.081,2,N,4.0
NS4,51.0,46.0,28.0,69.0,48.0,69.0,3230.0,square3,i,0.059,2,N,4.0
NS4,52.0,40.0,34.0,62.0,49.0,62.0,3292.0,square3,i,0.032,2,N,4.0
NS4,53.0,39.0,34.0,63.0,48.0,63.0,3355.0,square3,i,0.489,2,N,4.0
NS4,54.0,44.0,31.0,58.0,47.0,58.0,3413.0,square3,i,0.04,2,N,4.0
NS4,55.0,42.0,30.0,68.0,46.0,68.0,3481.0,square3,i,0.098,2,N,4.0
NS4,56.0,36.0,25.0,69.0,44.0,69.0,3550.0,square3,i,0.133,2,N,4.0
NS4,57.0,35.0,29.0,71.0,46.0,71.0,3621.0,square3,i,0.083,2,N,4.0
NS4,58.0,43.0,28.0,68.0,47.0,68.0,3689.0,square3,i,0.076,2,N,4.0
NS4,59.0,43.0,27.0,67.0,43.0,67.0,3756.0,square3,i,0.109,2,N,4.0
NS4,60.0,40.0,25.0,72.0,46.0,72.0,3828.0,square3,i,0.516,2,N,4.0
NS4,61.0,39.0,32.0,63.0,43.0,63.0,3891.0,square3,i,0.186,2,N,4.0
NS4,62.0,39.0,29.0,61.0,39.0,61.0,3952.0,square3,i,0.065,2,N,4.0
NS4,63.0,41.0,28.0,59.0,40.0,59.0,4011.0,square3,i,0.033,2,N,4.0
NS4,64.0,41.0,31.0,57.0,51.0,57.0,4068.0,square3,i,0.036,2,N,4.0
NS4,65.0,46.0,36.0,59.0,58.0,59.0,4127.0,square3,i,0.101,2,N,4.0
NS4,66.0,45.0,36.0,53.0,46.0,53.0,4180.0,square3,i,0.086,2,N,4.0
NS4,67.0,40.0,34.0,49.0,46.0,49.0,4229.0,square3,i,0.027,2,N,4.0
NS4,68.0,43.0,37.0,48.0,48.0,48.0,4277.0,square3,i,0.066,2,N,4.0
NS4,69.0,42.0,36.0,44.0,56.0,36.0,4313.0,square2,j,0.032,1,N,4.0
NS4,70.0,40.0,38.0,47.0,58.0,58.0,4371.0,square4,f,0.019,3,N,4.0
NS4,71.0,36.0,34.0,42.0,63.0,36.0,4407.0,square1,r,0.047,0,N,4.0
NS4,72.0,38.0,36.0,36.0,66.0,66.0,4473.0,square4,f,0.032,3,N,4.0
NS4,73.0,36.0,40.0,40.0,66.0,66.0,4539.0,square4,f,0.071,3,N,4.0
NS4,74.0,31.0,38.0,46.0,67.0,67.0,4606.0,square4,f,0.038,3,N,4.0
NS4,75.0,40.0,33.0,42.0,64.0,64.0,4670.0,square4,f,0.016,3,N,4.0
NS4,76.0,38.0,35.0,42.0,64.0,64.0,4734.0,square4,f,0.071,3,N,4.0
NS4,77.0,40.0,35.0,39.0,66.0,66.0,4800.0,square4,f,0.1,3,N,4.0
NS4,78.0,40.0,33.0,38.0,68.0,68.0,4868.0,square4,f,0.042,3,N,4.0
NS4,79.0,40.0,38.0,31.0,70.0,70.0,4938.0,square4,f,0.085,3,N,4.0
NS4,80.0,37.0,35.0,33.0,73.0,73.0,5011.0,square4,f,0.1,3,N,4.0
NS4,81.0,34.0,35.0,30.0,70.0,70.0,5081.0,square4,f,0.0,3,N,4.0
NS4,82.0,35.0,37.0,31.0,66.0,66.0,5147.0,square4,f,0.043,3,N,4.0
NS4,83.0,42.0,32.0,28.0,67.0,67.0,5214.0,square4,f,0.031,3,N,4.0
NS4,84.0,38.0,35.0,30.0,68.0,68.0,5282.0,square4,f,0.027,3,N,4.0
NS4,85.0,43.0,35.0,32.0,64.0,64.0,5346.0,square4,f,0.112,3,N,4.0
NS4,86.0,49.0,35.0,32.0,70.0,70.0,5416.0,square4,f,0.017,3,N,4.0
NS4,87.0,48.0,34.0,32.0,69.0,69.0,5485.0,square4,f,0.058,3,N,4.0
NS4,88.0,50.0,35.0,30.0,64.0,64.0,5549.0,square4,f,0.13,3,N,4.0
NS4,89.0,48.0,34.0,32.0,68.0,68.0,5617.0,square4,f,0.027,3,N,4.0
NS4,90.0,53.0,29.0,27.0,68.0,68.0,5685.0,square4,f,0.094,3,N,4.0
NS4,91.0,54.0,27.0,34.0,68.0,68.0,5753.0,square4,f,0.039,3,N,4.0
NS4,92.0,52.0,20.0,35.0,69.0,69.0,5822.0,square4,f,0.059,3,N,4.0
NS4,93.0,42.0,15.0,33.0,68.0,68.0,5890.0,square4,f,0.018,3,N,4.0
NS4,94.0,40.0,24.0,37.0,72.0,72.0,5962.0,square4,f,0.065,3,N,4.0
NS4,95.0,43.0,25.0,43.0,69.0,69.0,6031.0,square4,f,0.016,3,N,4.0
NS4,96.0,41.0,29.0,43.0,74.0,74.0,6105.0,square4,f,0.479,3,N,4.0
NS4,97.0,46.0,32.0,42.0,78.0,78.0,6183.0,square4,f,0.039,3,N,4.0
NS4,98.0,48.0,26.0,46.0,75.0,75.0,6258.0,square4,f,0.033,3,N,4.0
NS4,99.0,46.0,27.0,45.0,71.0,71.0,6329.0,square4,f,0.05,3,N,4.0
