block,Trial,square1,square2,square3,square4,currPoints,totalPoints,square,choiceKey.keys,choiceKey.rt,armNum,blockType,blockNum
prac,0.0,100.0,0.0,0.0,0.0,99999,0.0,invalid,,,-1,p,0.0
prac,1.0,100.0,0.0,0.0,0.0,0,0.0,square3,,,2,p,0.0
prac,2.0,100.0,0.0,0.0,0.0,100,100.0,square1,,,0,p,0.0
prac,3.0,100.0,0.0,0.0,0.0,100,200.0,square1,,,0,p,0.0
prac,4.0,100.0,0.0,0.0,0.0,100,300.0,square1,,,0,p,0.0
prac,5.0,100.0,0.0,0.0,0.0,100,400.0,square1,,,0,p,0.0
prac,6.0,100.0,0.0,0.0,0.0,100,500.0,square1,,,0,p,0.0
prac,7.0,100.0,0.0,0.0,0.0,100,600.0,square1,,,0,p,0.0
prac,8.0,100.0,0.0,0.0,0.0,100,700.0,square1,,,0,p,0.0
prac,9.0,100.0,0.0,0.0,0.0,0,700.0,square4,,,3,p,0.0
V9,0.0,20.0,29.0,37.0,45.0,45,45.0,square4,i,0.628,3,V,9.0
V9,1.0,21.0,32.0,39.0,45.0,32,77.0,square2,j,0.049,1,V,9.0
V9,2.0,16.0,27.0,41.0,48.0,16,93.0,square1,f,0.526,0,V,9.0
V9,3.0,20.0,30.0,42.0,50.0,42,135.0,square3,r,0.277,2,V,9.0
V9,4.0,22.0,34.0,37.0,47.0,47,182.0,square4,i,0.299,3,V,9.0
V9,5.0,17.0,32.0,38.0,49.0,49,231.0,square4,i,0.313,3,V,9.0
V9,6.0,17.0,25.0,39.0,47.0,47,278.0,square4,i,0.291,3,V,9.0
V9,7.0,22.0,28.0,33.0,48.0,28,306.0,square2,j,0.292,1,V,9.0
V9,8.0,20.0,24.0,34.0,41.0,34,340.0,square3,r,0.282,2,V,9.0
V9,9.0,20.0,33.0,30.0,51.0,20,360.0,square1,f,0.298,0,V,9.0
V9,10.0,21.0,35.0,38.0,50.0,50,410.0,square4,i,0.246,3,V,9.0
V9,11.0,19.0,29.0,44.0,45.0,45,455.0,square4,i,0.41,3,V,9.0
V9,12.0,27.0,24.0,38.0,54.0,38,493.0,square3,r,0.177,2,V,9.0
V9,13.0,15.0,26.0,37.0,50.0,50,543.0,square4,i,0.258,3,V,9.0
V9,14.0,24.0,26.0,39.0,42.0,42,585.0,square4,i,0.31,3,V,9.0
V9,15.0,26.0,27.0,43.0,49.0,27,612.0,square2,j,0.214,1,V,9.0
V9,16.0,19.0,30.0,42.0,49.0,19,631.0,square1,f,0.295,0,V,9.0
V9,17.0,21.0,30.0,34.0,49.0,49,680.0,square4,i,0.475,3,V,9.0
V9,18.0,25.0,33.0,41.0,51.0,51,731.0,square4,i,0.332,3,V,9.0
V9,19.0,17.0,31.0,41.0,45.0,45,776.0,square4,i,0.309,3,V,9.0
V9,20.0,19.0,31.0,34.0,49.0,34,810.0,square3,r,0.324,2,V,9.0
V9,21.0,23.0,29.0,37.0,48.0,48,858.0,square4,i,0.298,3,V,9.0
V9,22.0,15.0,32.0,36.0,48.0,48,906.0,square4,i,0.244,3,V,9.0
V9,23.0,25.0,33.0,39.0,47.0,47,953.0,square4,i,0.011,3,V,9.0
V9,24.0,21.0,30.0,38.0,52.0,52,1005.0,square4,i,0.629,3,V,9.0
V9,25.0,25.0,29.0,42.0,48.0,48,1053.0,square4,i,0.245,3,V,9.0
V9,26.0,22.0,29.0,39.0,47.0,47,1100.0,square4,i,0.077,3,V,9.0
V9,27.0,17.0,31.0,45.0,41.0,41,1141.0,square4,i,0.076,3,V,9.0
V9,28.0,29.0,28.0,43.0,43.0,43,1184.0,square4,i,0.045,3,V,9.0
V9,29.0,20.0,31.0,43.0,49.0,49,1233.0,square4,i,0.097,3,V,9.0
V9,30.0,23.0,33.0,39.0,48.0,48,1281.0,square4,i,0.182,3,V,9.0
V9,31.0,20.0,27.0,38.0,53.0,53,1334.0,square4,i,0.001,3,V,9.0
V9,32.0,23.0,29.0,37.0,49.0,49,1383.0,square4,i,0.114,3,V,9.0
V9,33.0,24.0,33.0,37.0,49.0,49,1432.0,square4,i,0.009,3,V,9.0
V9,34.0,43.0,58.0,48.0,30.0,58,1490.0,square2,j,0.293,1,V,9.0
V9,35.0,48.0,59.0,45.0,34.0,59,1549.0,square2,j,0.318,1,V,9.0
V9,36.0,39.0,56.0,54.0,32.0,39,1588.0,square1,f,0.382,0,V,9.0
V9,37.0,40.0,57.0,50.0,35.0,57,1645.0,square2,j,0.261,1,V,9.0
V9,38.0,49.0,62.0,51.0,33.0,51,1696.0,square3,r,0.27,2,V,9.0
V9,39.0,45.0,61.0,48.0,34.0,61,1757.0,square2,j,0.26,1,V,9.0
V9,40.0,40.0,65.0,51.0,29.0,65,1822.0,square2,j,0.359,1,V,9.0
V9,41.0,44.0,57.0,50.0,38.0,57,1879.0,square2,j,0.246,1,V,9.0
V9,42.0,40.0,57.0,49.0,33.0,49,1928.0,square3,r,0.285,2,V,9.0
V9,43.0,42.0,64.0,54.0,35.0,64,1992.0,square2,j,0.142,1,V,9.0
V9,44.0,44.0,55.0,49.0,39.0,55,2047.0,square2,j,0.3,1,V,9.0
V9,45.0,37.0,66.0,51.0,35.0,35,2082.0,square4,i,0.208,3,V,9.0
V9,46.0,40.0,59.0,51.0,32.0,59,2141.0,square2,j,0.149,1,V,9.0
V9,47.0,38.0,62.0,57.0,31.0,62,2203.0,square2,j,0.144,1,V,9.0
V9,48.0,43.0,61.0,54.0,34.0,61,2264.0,square2,j,0.218,1,V,9.0
V9,49.0,43.0,61.0,49.0,40.0,61,2325.0,square2,j,0.167,1,V,9.0
V9,50.0,37.0,58.0,51.0,32.0,58,2383.0,square2,j,0.261,1,V,9.0
V9,51.0,44.0,63.0,48.0,39.0,44,2427.0,square1,f,0.33,0,V,9.0
V9,52.0,35.0,65.0,48.0,30.0,65,2492.0,square2,j,0.244,1,V,9.0
V9,53.0,43.0,59.0,48.0,39.0,48,2540.0,square3,r,0.426,2,V,9.0
V9,54.0,43.0,59.0,52.0,30.0,59,2599.0,square2,j,0.207,1,V,9.0
V9,55.0,41.0,58.0,51.0,34.0,58,2657.0,square2,j,0.127,1,V,9.0
V9,56.0,44.0,63.0,50.0,33.0,63,2720.0,square2,j,0.269,1,V,9.0
V9,57.0,42.0,60.0,49.0,32.0,60,2780.0,square2,j,0.092,1,V,9.0
V9,58.0,44.0,62.0,57.0,30.0,62,2842.0,square2,j,0.062,1,V,9.0
V9,59.0,45.0,61.0,45.0,31.0,61,2903.0,square2,j,0.129,1,V,9.0
V9,60.0,43.0,63.0,53.0,33.0,53,2956.0,square3,r,0.576,2,V,9.0
V9,61.0,39.0,56.0,55.0,31.0,56,3012.0,square2,j,0.1,1,V,9.0
V9,62.0,39.0,61.0,50.0,34.0,34,3046.0,square4,i,0.042,3,V,9.0
V9,63.0,44.0,57.0,48.0,36.0,57,3103.0,square2,j,0.094,1,V,9.0
V9,64.0,40.0,60.0,58.0,35.0,60,3163.0,square2,j,0.009,1,V,9.0
V9,65.0,42.0,60.0,54.0,38.0,60,3223.0,square2,j,0.069,1,V,9.0
V9,66.0,41.0,60.0,54.0,37.0,60,3283.0,square2,j,0.048,1,V,9.0
V9,67.0,43.0,61.0,54.0,40.0,61,3344.0,square2,j,0.701,1,V,9.0
V9,68.0,45.0,40.0,26.0,18.0,18,3362.0,square4,i,0.336,3,V,9.0
V9,69.0,50.0,41.0,29.0,20.0,50,3412.0,square1,f,0.227,0,V,9.0
V9,70.0,43.0,36.0,27.0,15.0,36,3448.0,square2,j,0.099,1,V,9.0
V9,71.0,44.0,40.0,28.0,18.0,44,3492.0,square1,f,0.197,0,V,9.0
V9,72.0,42.0,38.0,27.0,18.0,27,3519.0,square3,r,0.076,2,V,9.0
V9,73.0,46.0,33.0,25.0,19.0,19,3538.0,square4,i,0.377,3,V,9.0
V9,74.0,47.0,40.0,28.0,20.0,40,3578.0,square2,j,0.136,1,V,9.0
V9,75.0,39.0,39.0,27.0,25.0,39,3617.0,square1,f,0.254,0,V,9.0
V9,76.0,50.0,31.0,29.0,23.0,31,3648.0,square2,j,0.233,1,V,9.0
V9,77.0,44.0,37.0,28.0,13.0,44,3692.0,square1,f,0.211,0,V,9.0
V9,78.0,43.0,36.0,23.0,17.0,43,3735.0,square1,f,0.293,0,V,9.0
V9,79.0,42.0,36.0,28.0,24.0,42,3777.0,square1,f,0.343,0,V,9.0
V9,80.0,47.0,35.0,30.0,14.0,30,3807.0,square3,r,0.26,2,V,9.0
V9,81.0,46.0,33.0,29.0,18.0,46,3853.0,square1,f,0.342,0,V,9.0
V9,82.0,46.0,35.0,28.0,18.0,46,3899.0,square1,f,0.212,0,V,9.0
V9,83.0,47.0,41.0,32.0,15.0,47,3946.0,square1,f,0.168,0,V,9.0
V9,84.0,45.0,38.0,31.0,18.0,38,3984.0,square2,j,0.482,1,V,9.0
V9,85.0,42.0,35.0,30.0,21.0,42,4026.0,square1,f,0.128,0,V,9.0
V9,86.0,49.0,39.0,23.0,18.0,49,4075.0,square1,f,0.159,0,V,9.0
V9,87.0,49.0,39.0,27.0,16.0,49,4124.0,square1,f,0.126,0,V,9.0
V9,88.0,45.0,38.0,25.0,14.0,45,4169.0,square1,f,0.012,0,V,9.0
V9,89.0,45.0,32.0,28.0,19.0,45,4214.0,square1,f,0.212,0,V,9.0
V9,90.0,44.0,35.0,29.0,20.0,44,4258.0,square1,f,0.191,0,V,9.0
V9,91.0,42.0,38.0,32.0,16.0,38,4296.0,square2,j,0.132,1,V,9.0
V9,92.0,45.0,36.0,23.0,20.0,45,4341.0,square1,f,0.269,0,V,9.0
V9,93.0,45.0,35.0,26.0,18.0,45,4386.0,square1,f,0.065,0,V,9.0
V9,94.0,44.0,37.0,27.0,13.0,37,4423.0,square2,j,0.161,1,V,9.0
V9,95.0,46.0,36.0,25.0,20.0,36,4459.0,square2,j,0.196,1,V,9.0
V9,96.0,43.0,39.0,27.0,16.0,43,4502.0,square1,f,0.648,0,V,9.0
V9,97.0,48.0,39.0,30.0,16.0,16,4518.0,square4,i,0.216,3,V,9.0
V9,98.0,49.0,40.0,26.0,20.0,49,4567.0,square1,f,0.282,0,V,9.0
V9,99.0,49.0,41.0,27.0,18.0,49,4616.0,square1,f,0.827,0,V,9.0
V7,0.0,86.0,61.0,78.0,68.0,61,61.0,square2,r,0.587,1,V,7.0
V7,1.0,95.0,62.0,79.0,70.0,95,156.0,square1,i,0.109,0,V,7.0
V7,2.0,89.0,67.0,81.0,77.0,89,245.0,square1,i,0.215,0,V,7.0
V7,3.0,90.0,56.0,85.0,72.0,85,330.0,square3,f,0.277,2,V,7.0
V7,4.0,91.0,65.0,77.0,71.0,71,401.0,square4,j,0.263,3,V,7.0
V7,5.0,91.0,58.0,84.0,72.0,58,459.0,square2,r,0.246,1,V,7.0
V7,6.0,94.0,65.0,87.0,72.0,94,553.0,square1,i,0.211,0,V,7.0
V7,7.0,89.0,67.0,79.0,67.0,79,632.0,square3,f,0.227,2,V,7.0
V7,8.0,91.0,65.0,84.0,68.0,91,723.0,square1,i,0.26,0,V,7.0
V7,9.0,92.0,60.0,87.0,69.0,87,810.0,square3,f,0.194,2,V,7.0
V7,10.0,90.0,67.0,81.0,76.0,76,886.0,square4,j,0.229,3,V,7.0
V7,11.0,86.0,67.0,83.0,73.0,67,953.0,square2,r,0.244,1,V,7.0
V7,12.0,90.0,62.0,80.0,72.0,90,1043.0,square1,i,0.236,0,V,7.0
V7,13.0,84.0,60.0,88.0,71.0,88,1131.0,square3,f,0.159,2,V,7.0
V7,14.0,95.0,64.0,80.0,70.0,95,1226.0,square1,i,0.111,0,V,7.0
V7,15.0,86.0,60.0,81.0,70.0,86,1312.0,square1,i,0.343,0,V,7.0
V7,16.0,85.0,65.0,77.0,69.0,69,1381.0,square4,j,0.252,3,V,7.0
V7,17.0,91.0,65.0,81.0,70.0,91,1472.0,square1,i,0.226,0,V,7.0
V7,18.0,95.0,61.0,81.0,76.0,81,1553.0,square3,f,0.243,2,V,7.0
V7,19.0,90.0,58.0,79.0,72.0,90,1643.0,square1,i,0.076,0,V,7.0
V7,20.0,94.0,68.0,80.0,79.0,80,1723.0,square3,f,0.277,2,V,7.0
V7,21.0,92.0,66.0,82.0,70.0,66,1789.0,square2,r,0.196,1,V,7.0
V7,22.0,92.0,64.0,83.0,72.0,92,1881.0,square1,i,0.045,0,V,7.0
V7,23.0,91.0,68.0,82.0,73.0,91,1972.0,square1,i,0.193,0,V,7.0
V7,24.0,87.0,71.0,82.0,72.0,87,2059.0,square1,i,0.001,0,V,7.0
V7,25.0,91.0,68.0,90.0,74.0,90,2149.0,square3,f,0.143,2,V,7.0
V7,26.0,89.0,65.0,83.0,72.0,83,2232.0,square3,f,0.279,2,V,7.0
V7,27.0,91.0,61.0,81.0,73.0,91,2323.0,square1,i,0.135,0,V,7.0
V7,28.0,90.0,66.0,81.0,72.0,90,2413.0,square1,i,0.143,0,V,7.0
V7,29.0,89.0,67.0,77.0,71.0,89,2502.0,square1,i,0.036,0,V,7.0
V7,30.0,95.0,68.0,84.0,71.0,95,2597.0,square1,i,0.129,0,V,7.0
V7,31.0,95.0,61.0,81.0,70.0,95,2692.0,square1,i,0.209,0,V,7.0
V7,32.0,89.0,65.0,82.0,75.0,89,2781.0,square1,i,0.099,0,V,7.0
V7,33.0,77.0,50.0,80.0,61.0,77,2858.0,square1,i,0.589,0,V,7.0
V7,34.0,76.0,54.0,78.0,61.0,61,2919.0,square4,j,0.245,3,V,7.0
V7,35.0,71.0,51.0,80.0,64.0,51,2970.0,square2,r,0.26,1,V,7.0
V7,36.0,75.0,51.0,80.0,62.0,80,3050.0,square3,f,0.217,2,V,7.0
V7,37.0,73.0,58.0,86.0,63.0,73,3123.0,square1,i,0.161,0,V,7.0
V7,38.0,73.0,50.0,86.0,61.0,86,3209.0,square3,f,0.082,2,V,7.0
V7,39.0,67.0,53.0,78.0,61.0,78,3287.0,square3,f,0.297,2,V,7.0
V7,40.0,71.0,53.0,84.0,58.0,84,3371.0,square3,f,0.192,2,V,7.0
V7,41.0,75.0,51.0,83.0,63.0,83,3454.0,square3,f,0.243,2,V,7.0
V7,42.0,69.0,48.0,87.0,63.0,87,3541.0,square3,f,0.18,2,V,7.0
V7,43.0,70.0,58.0,81.0,60.0,81,3622.0,square3,f,0.366,2,V,7.0
V7,44.0,68.0,56.0,76.0,63.0,76,3698.0,square3,f,0.863,2,V,7.0
V7,45.0,74.0,59.0,76.0,56.0,76,3774.0,square3,f,0.094,2,V,7.0
V7,46.0,72.0,54.0,77.0,61.0,77,3851.0,square3,f,0.496,2,V,7.0
V7,47.0,69.0,47.0,81.0,62.0,62,3913.0,square4,j,0.285,3,V,7.0
V7,48.0,75.0,52.0,81.0,57.0,52,3965.0,square2,r,0.159,1,V,7.0
V7,49.0,74.0,55.0,78.0,60.0,78,4043.0,square3,f,0.126,2,V,7.0
V7,50.0,71.0,51.0,80.0,61.0,71,4114.0,square1,i,0.082,0,V,7.0
V7,51.0,75.0,55.0,85.0,62.0,75,4189.0,square1,i,0.061,0,V,7.0
V7,52.0,75.0,59.0,76.0,59.0,75,4264.0,square1,i,0.111,0,V,7.0
V7,53.0,72.0,53.0,84.0,66.0,72,4336.0,square1,i,0.477,0,V,7.0
V7,54.0,69.0,51.0,81.0,60.0,69,4405.0,square1,i,0.042,0,V,7.0
V7,55.0,74.0,56.0,75.0,54.0,74,4479.0,square1,i,0.452,0,V,7.0
V7,56.0,76.0,51.0,83.0,58.0,58,4537.0,square4,j,0.327,3,V,7.0
V7,57.0,71.0,53.0,80.0,64.0,80,4617.0,square3,f,0.048,2,V,7.0
V7,58.0,81.0,56.0,79.0,61.0,79,4696.0,square3,f,0.078,2,V,7.0
V7,59.0,71.0,55.0,83.0,59.0,83,4779.0,square3,f,0.13,2,V,7.0
V7,60.0,73.0,53.0,83.0,64.0,83,4862.0,square3,f,0.012,2,V,7.0
V7,61.0,70.0,53.0,77.0,63.0,77,4939.0,square3,f,0.094,2,V,7.0
V7,62.0,71.0,54.0,76.0,61.0,76,5015.0,square3,f,0.093,2,V,7.0
V7,63.0,68.0,45.0,79.0,65.0,68,5083.0,square1,i,0.485,0,V,7.0
V7,64.0,65.0,55.0,79.0,59.0,65,5148.0,square1,i,0.183,0,V,7.0
V7,65.0,74.0,54.0,81.0,61.0,81,5229.0,square3,f,0.059,2,V,7.0
V7,66.0,70.0,56.0,81.0,63.0,63,5292.0,square4,j,0.38,3,V,7.0
V7,67.0,70.0,85.0,64.0,92.0,85,5377.0,square2,r,0.218,1,V,7.0
V7,68.0,73.0,85.0,68.0,92.0,85,5462.0,square2,r,0.226,1,V,7.0
V7,69.0,75.0,83.0,70.0,91.0,83,5545.0,square2,r,0.282,1,V,7.0
V7,70.0,75.0,85.0,69.0,91.0,85,5630.0,square2,r,0.176,1,V,7.0
V7,71.0,71.0,86.0,65.0,94.0,86,5716.0,square2,r,0.165,1,V,7.0
V7,72.0,77.0,86.0,65.0,98.0,86,5802.0,square2,r,0.137,1,V,7.0
V7,73.0,77.0,84.0,63.0,94.0,84,5886.0,square2,r,0.009,1,V,7.0
V7,74.0,71.0,86.0,64.0,91.0,86,5972.0,square2,r,0.21,1,V,7.0
V7,75.0,73.0,90.0,60.0,90.0,90,6062.0,square2,r,0.479,1,V,7.0
V7,76.0,79.0,84.0,68.0,95.0,84,6146.0,square2,r,0.248,1,V,7.0
V7,77.0,73.0,85.0,66.0,89.0,73,6219.0,square1,i,0.202,0,V,7.0
V7,78.0,75.0,82.0,67.0,91.0,67,6286.0,square3,f,0.351,2,V,7.0
V7,79.0,72.0,85.0,60.0,90.0,85,6371.0,square2,r,0.283,1,V,7.0
V7,80.0,73.0,83.0,66.0,97.0,83,6454.0,square2,r,0.576,1,V,7.0
V7,81.0,73.0,84.0,67.0,92.0,84,6538.0,square2,r,0.434,1,V,7.0
V7,82.0,69.0,84.0,65.0,91.0,84,6622.0,square2,r,0.143,1,V,7.0
V7,83.0,76.0,83.0,72.0,99.0,83,6705.0,square2,r,0.252,1,V,7.0
V7,84.0,72.0,84.0,70.0,94.0,84,6789.0,square2,r,0.001,1,V,7.0
V7,85.0,77.0,83.0,67.0,88.0,83,6872.0,square2,r,0.141,1,V,7.0
V7,86.0,76.0,80.0,67.0,90.0,80,6952.0,square2,r,0.644,1,V,7.0
V7,87.0,70.0,86.0,67.0,95.0,86,7038.0,square2,r,0.21,1,V,7.0
V7,88.0,76.0,84.0,67.0,100.0,100,7138.0,square4,j,0.279,3,V,7.0
V7,89.0,71.0,88.0,60.0,97.0,97,7235.0,square4,j,0.486,3,V,7.0
V7,90.0,69.0,82.0,71.0,95.0,95,7330.0,square4,j,0.312,3,V,7.0
V7,91.0,80.0,84.0,65.0,92.0,92,7422.0,square4,j,0.343,3,V,7.0
V7,92.0,77.0,85.0,68.0,85.0,85,7507.0,square4,j,0.566,3,V,7.0
V7,93.0,72.0,84.0,66.0,91.0,91,7598.0,square4,j,0.212,3,V,7.0
V7,94.0,69.0,83.0,66.0,95.0,95,7693.0,square4,j,0.293,3,V,7.0
V7,95.0,70.0,86.0,75.0,91.0,91,7784.0,square4,j,0.414,3,V,7.0
V7,96.0,74.0,85.0,66.0,88.0,88,7872.0,square4,j,0.625,3,V,7.0
V7,97.0,77.0,82.0,73.0,91.0,91,7963.0,square4,j,0.542,3,V,7.0
V7,98.0,76.0,91.0,62.0,94.0,94,8057.0,square4,j,0.299,3,V,7.0
V7,99.0,74.0,84.0,67.0,88.0,88,8145.0,square4,j,0.309,3,V,7.0
V10,0.0,28.0,21.0,37.0,46.0,46,46.0,square4,i,1.729,3,V,10.0
V10,1.0,26.0,19.0,41.0,49.0,19,65.0,square2,j,0.225,1,V,10.0
V10,2.0,29.0,20.0,43.0,48.0,99999,65.0,invalid,,,-1,V,10.0
V10,3.0,27.0,27.0,37.0,44.0,37,102.0,square3,r,0.012,2,V,10.0
V10,4.0,28.0,16.0,36.0,47.0,28,130.0,square1,f,0.094,0,V,10.0
V10,5.0,33.0,25.0,42.0,54.0,54,184.0,square4,i,0.148,3,V,10.0
V10,6.0,28.0,19.0,35.0,45.0,45,229.0,square4,i,0.168,3,V,10.0
V10,7.0,30.0,24.0,35.0,49.0,24,253.0,square2,j,0.058,1,V,10.0
V10,8.0,37.0,29.0,41.0,47.0,41,294.0,square3,r,0.178,2,V,10.0
V10,9.0,28.0,21.0,41.0,48.0,28,322.0,square1,f,0.148,0,V,10.0
V10,10.0,27.0,22.0,39.0,42.0,42,364.0,square4,i,0.08,3,V,10.0
V10,11.0,32.0,16.0,41.0,48.0,48,412.0,square4,i,0.082,3,V,10.0
V10,12.0,34.0,15.0,33.0,49.0,49,461.0,square4,i,0.078,3,V,10.0
V10,13.0,36.0,19.0,41.0,45.0,45,506.0,square4,i,0.004,3,V,10.0
V10,14.0,28.0,23.0,35.0,53.0,53,559.0,square4,i,0.527,3,V,10.0
V10,15.0,26.0,28.0,40.0,50.0,50,609.0,square4,i,0.193,3,V,10.0
V10,16.0,30.0,25.0,42.0,47.0,47,656.0,square4,i,0.127,3,V,10.0
V10,17.0,31.0,19.0,38.0,50.0,50,706.0,square4,i,0.143,3,V,10.0
V10,18.0,34.0,21.0,35.0,48.0,48,754.0,square4,i,0.227,3,V,10.0
V10,19.0,31.0,24.0,39.0,46.0,46,800.0,square4,i,0.125,3,V,10.0
V10,20.0,28.0,22.0,42.0,47.0,47,847.0,square4,i,0.148,3,V,10.0
V10,21.0,24.0,20.0,41.0,47.0,47,894.0,square4,i,0.079,3,V,10.0
V10,22.0,32.0,22.0,34.0,44.0,44,938.0,square4,i,0.036,3,V,10.0
V10,23.0,29.0,23.0,37.0,47.0,47,985.0,square4,i,0.21,3,V,10.0
V10,24.0,25.0,25.0,38.0,46.0,46,1031.0,square4,i,0.079,3,V,10.0
V10,25.0,30.0,24.0,41.0,45.0,45,1076.0,square4,i,0.063,3,V,10.0
V10,26.0,32.0,17.0,38.0,49.0,49,1125.0,square4,i,0.192,3,V,10.0
V10,27.0,34.0,21.0,38.0,47.0,47,1172.0,square4,i,0.047,3,V,10.0
V10,28.0,29.0,21.0,37.0,45.0,45,1217.0,square4,i,0.149,3,V,10.0
V10,29.0,30.0,20.0,31.0,47.0,47,1264.0,square4,i,0.069,3,V,10.0
V10,30.0,28.0,21.0,35.0,44.0,44,1308.0,square4,i,0.126,3,V,10.0
V10,31.0,36.0,25.0,14.0,8.0,8,1316.0,square4,i,0.853,3,V,10.0
V10,32.0,38.0,27.0,19.0,11.0,27,1343.0,square2,j,0.56,1,V,10.0
V10,33.0,39.0,21.0,20.0,13.0,39,1382.0,square1,f,0.267,0,V,10.0
V10,34.0,34.0,24.0,20.0,10.0,20,1402.0,square3,r,0.226,2,V,10.0
V10,35.0,44.0,29.0,17.0,11.0,44,1446.0,square1,f,0.26,0,V,10.0
V10,36.0,33.0,30.0,17.0,9.0,33,1479.0,square1,f,0.075,0,V,10.0
V10,37.0,31.0,27.0,12.0,6.0,31,1510.0,square1,f,0.132,0,V,10.0
V10,38.0,34.0,29.0,15.0,10.0,10,1520.0,square4,i,0.015,3,V,10.0
V10,39.0,35.0,21.0,19.0,5.0,35,1555.0,square1,f,0.076,0,V,10.0
V10,40.0,32.0,26.0,18.0,6.0,32,1587.0,square1,f,0.31,0,V,10.0
V10,41.0,34.0,32.0,13.0,9.0,34,1621.0,square1,f,0.253,0,V,10.0
V10,42.0,35.0,30.0,16.0,8.0,35,1656.0,square1,f,0.91,0,V,10.0
V10,43.0,38.0,32.0,16.0,8.0,38,1694.0,square1,f,0.377,0,V,10.0
V10,44.0,34.0,20.0,18.0,3.0,34,1728.0,square1,f,0.078,0,V,10.0
V10,45.0,38.0,22.0,23.0,9.0,38,1766.0,square1,f,0.043,0,V,10.0
V10,46.0,36.0,28.0,16.0,10.0,36,1802.0,square1,f,0.669,0,V,10.0
V10,47.0,36.0,27.0,13.0,8.0,36,1838.0,square1,f,0.082,0,V,10.0
V10,48.0,35.0,27.0,14.0,12.0,35,1873.0,square1,f,0.16,0,V,10.0
V10,49.0,33.0,28.0,16.0,10.0,33,1906.0,square1,f,0.243,0,V,10.0
V10,50.0,31.0,29.0,19.0,8.0,29,1935.0,square2,j,0.28,1,V,10.0
V10,51.0,32.0,21.0,20.0,12.0,20,1955.0,square3,r,0.281,2,V,10.0
V10,52.0,29.0,25.0,21.0,10.0,29,1984.0,square1,f,0.384,0,V,10.0
V10,53.0,39.0,29.0,23.0,2.0,2,1986.0,square4,i,0.395,3,V,10.0
V10,54.0,33.0,28.0,19.0,7.0,33,2019.0,square1,f,0.277,0,V,10.0
V10,55.0,34.0,24.0,15.0,8.0,34,2053.0,square1,f,0.531,0,V,10.0
V10,56.0,35.0,20.0,21.0,9.0,35,2088.0,square1,f,0.527,0,V,10.0
V10,57.0,33.0,27.0,19.0,7.0,33,2121.0,square1,f,0.076,0,V,10.0
V10,58.0,38.0,24.0,16.0,7.0,38,2159.0,square1,f,0.564,0,V,10.0
V10,59.0,34.0,29.0,15.0,5.0,34,2193.0,square1,f,0.266,0,V,10.0
V10,60.0,34.0,22.0,19.0,9.0,34,2227.0,square1,f,0.659,0,V,10.0
V10,61.0,39.0,31.0,20.0,10.0,39,2266.0,square1,f,0.117,0,V,10.0
V10,62.0,35.0,24.0,18.0,6.0,35,2301.0,square1,f,0.298,0,V,10.0
V10,63.0,35.0,26.0,18.0,9.0,26,2327.0,square2,j,0.001,1,V,10.0
V10,64.0,31.0,55.0,23.0,23.0,31,2358.0,square1,f,0.31,0,V,10.0
V10,65.0,35.0,50.0,22.0,27.0,35,2393.0,square1,f,0.276,0,V,10.0
V10,66.0,35.0,53.0,25.0,29.0,35,2428.0,square1,f,0.257,0,V,10.0
V10,67.0,38.0,44.0,17.0,29.0,38,2466.0,square1,f,0.26,0,V,10.0
V10,68.0,36.0,48.0,22.0,27.0,36,2502.0,square1,f,0.394,0,V,10.0
V10,69.0,41.0,53.0,17.0,28.0,41,2543.0,square1,f,0.176,0,V,10.0
V10,70.0,40.0,48.0,23.0,28.0,40,2583.0,square1,f,0.36,0,V,10.0
V10,71.0,39.0,43.0,24.0,20.0,39,2622.0,square1,f,0.315,0,V,10.0
V10,72.0,36.0,49.0,19.0,25.0,36,2658.0,square1,f,0.05,0,V,10.0
V10,73.0,39.0,49.0,23.0,32.0,39,2697.0,square1,f,0.459,0,V,10.0
V10,74.0,36.0,44.0,17.0,29.0,36,2733.0,square1,f,0.501,0,V,10.0
V10,75.0,37.0,46.0,20.0,30.0,37,2770.0,square1,f,0.218,0,V,10.0
V10,76.0,38.0,47.0,23.0,30.0,38,2808.0,square1,f,0.25,0,V,10.0
V10,77.0,36.0,49.0,22.0,32.0,32,2840.0,square4,i,0.284,3,V,10.0
V10,78.0,41.0,44.0,19.0,27.0,27,2867.0,square4,i,0.575,3,V,10.0
V10,79.0,41.0,48.0,22.0,27.0,41,2908.0,square1,f,0.394,0,V,10.0
V10,80.0,34.0,44.0,26.0,29.0,34,2942.0,square1,f,0.294,0,V,10.0
V10,81.0,38.0,47.0,18.0,29.0,18,2960.0,square3,r,0.261,2,V,10.0
V10,82.0,43.0,43.0,23.0,28.0,43,3003.0,square2,j,0.311,1,V,10.0
V10,83.0,34.0,51.0,23.0,26.0,51,3054.0,square2,j,0.296,1,V,10.0
V10,84.0,36.0,46.0,18.0,25.0,46,3100.0,square2,j,0.243,1,V,10.0
V10,85.0,39.0,46.0,25.0,26.0,46,3146.0,square2,j,0.293,1,V,10.0
V10,86.0,39.0,50.0,27.0,27.0,50,3196.0,square2,j,0.276,1,V,10.0
V10,87.0,38.0,46.0,20.0,30.0,46,3242.0,square2,j,0.219,1,V,10.0
V10,88.0,37.0,49.0,22.0,28.0,49,3291.0,square2,j,0.192,1,V,10.0
V10,89.0,34.0,51.0,25.0,26.0,51,3342.0,square2,j,0.128,1,V,10.0
V10,90.0,41.0,49.0,22.0,29.0,49,3391.0,square2,j,0.077,1,V,10.0
V10,91.0,37.0,45.0,26.0,32.0,45,3436.0,square2,j,0.11,1,V,10.0
V10,92.0,42.0,42.0,27.0,28.0,42,3478.0,square2,j,0.06,1,V,10.0
V10,93.0,41.0,48.0,19.0,36.0,48,3526.0,square2,j,0.027,1,V,10.0
V10,94.0,43.0,49.0,23.0,31.0,49,3575.0,square2,j,0.11,1,V,10.0
V10,95.0,39.0,46.0,18.0,27.0,46,3621.0,square2,j,0.566,1,V,10.0
V10,96.0,37.0,48.0,24.0,27.0,48,3669.0,square2,j,0.245,1,V,10.0
V10,97.0,42.0,50.0,23.0,31.0,50,3719.0,square2,j,0.217,1,V,10.0
V10,98.0,33.0,47.0,25.0,32.0,47,3766.0,square2,j,0.228,1,V,10.0
V10,99.0,39.0,48.0,23.0,32.0,48,3814.0,square2,j,0.234,1,V,10.0
NS4,0.0,55.0,53.0,59.0,44.0,55,55.0,square1,i,1.938,0,N,4.0
NS4,1.0,49.0,56.0,64.0,41.0,49,104.0,square1,i,0.001,0,N,4.0
NS4,2.0,50.0,54.0,71.0,48.0,50,154.0,square1,i,0.094,0,N,4.0
NS4,3.0,53.0,58.0,67.0,50.0,53,207.0,square1,i,0.059,0,N,4.0
NS4,4.0,49.0,51.0,70.0,55.0,49,256.0,square1,i,0.02,0,N,4.0
NS4,5.0,55.0,59.0,73.0,58.0,55,311.0,square1,i,0.144,0,N,4.0
NS4,6.0,56.0,54.0,71.0,57.0,56,367.0,square1,i,0.118,0,N,4.0
NS4,7.0,60.0,54.0,75.0,52.0,60,427.0,square1,i,0.011,0,N,4.0
NS4,8.0,58.0,53.0,74.0,52.0,58,485.0,square1,i,0.015,0,N,4.0
NS4,9.0,46.0,48.0,78.0,51.0,46,531.0,square1,i,0.727,0,N,4.0
NS4,10.0,55.0,48.0,78.0,51.0,55,586.0,square1,i,0.048,0,N,4.0
NS4,11.0,55.0,44.0,79.0,49.0,99999,586.0,invalid,,,-1,N,4.0
NS4,12.0,50.0,40.0,79.0,50.0,40,626.0,square2,r,0.114,1,N,4.0
NS4,13.0,45.0,39.0,79.0,53.0,79,705.0,square3,f,0.194,2,N,4.0
NS4,14.0,44.0,38.0,77.0,56.0,77,782.0,square3,f,0.145,2,N,4.0
NS4,15.0,45.0,32.0,68.0,52.0,68,850.0,square3,f,0.227,2,N,4.0
NS4,16.0,49.0,32.0,74.0,53.0,53,903.0,square4,j,0.11,3,N,4.0
NS4,17.0,45.0,32.0,69.0,51.0,32,935.0,square2,r,0.268,1,N,4.0
NS4,18.0,50.0,34.0,69.0,47.0,50,985.0,square1,i,0.16,0,N,4.0
NS4,19.0,50.0,36.0,65.0,53.0,65,1050.0,square3,f,0.079,2,N,4.0
NS4,20.0,45.0,36.0,62.0,53.0,62,1112.0,square3,f,0.202,2,N,4.0
NS4,21.0,49.0,35.0,62.0,55.0,62,1174.0,square3,f,0.126,2,N,4.0
NS4,22.0,53.0,32.0,61.0,60.0,61,1235.0,square3,f,0.2,2,N,4.0
NS4,23.0,52.0,33.0,58.0,54.0,58,1293.0,square3,f,0.075,2,N,4.0
NS4,24.0,48.0,32.0,52.0,60.0,52,1345.0,square3,f,0.127,2,N,4.0
NS4,25.0,47.0,30.0,53.0,57.0,53,1398.0,square3,f,0.001,2,N,4.0
NS4,26.0,50.0,30.0,60.0,55.0,60,1458.0,square3,f,0.104,2,N,4.0
NS4,27.0,50.0,28.0,62.0,47.0,62,1520.0,square3,f,0.092,2,N,4.0
NS4,28.0,54.0,28.0,58.0,49.0,58,1578.0,square3,f,0.044,2,N,4.0
NS4,29.0,44.0,29.0,50.0,49.0,50,1628.0,square3,f,0.013,2,N,4.0
NS4,30.0,43.0,26.0,55.0,57.0,55,1683.0,square3,f,0.034,2,N,4.0
NS4,31.0,43.0,25.0,60.0,54.0,60,1743.0,square3,f,0.027,2,N,4.0
NS4,32.0,34.0,27.0,58.0,56.0,58,1801.0,square3,f,0.042,2,N,4.0
NS4,33.0,34.0,20.0,60.0,62.0,60,1861.0,square3,f,0.064,2,N,4.0
NS4,34.0,38.0,28.0,58.0,57.0,58,1919.0,square3,f,0.018,2,N,4.0
NS4,35.0,40.0,24.0,63.0,59.0,63,1982.0,square3,f,0.226,2,N,4.0
NS4,36.0,36.0,30.0,56.0,63.0,56,2038.0,square3,f,0.13,2,N,4.0
NS4,37.0,40.0,29.0,54.0,63.0,54,2092.0,square3,f,0.898,2,N,4.0
NS4,38.0,40.0,33.0,53.0,69.0,53,2145.0,square3,f,0.093,2,N,4.0
NS4,39.0,36.0,30.0,57.0,67.0,57,2202.0,square3,f,0.176,2,N,4.0
NS4,40.0,33.0,33.0,58.0,68.0,58,2260.0,square3,f,0.099,2,N,4.0
NS4,41.0,34.0,28.0,58.0,72.0,72,2332.0,square4,j,0.209,3,N,4.0
NS4,42.0,35.0,30.0,60.0,70.0,70,2402.0,square4,j,0.379,3,N,4.0
NS4,43.0,35.0,34.0,57.0,63.0,63,2465.0,square4,j,0.067,3,N,4.0
NS4,44.0,30.0,32.0,59.0,69.0,69,2534.0,square4,j,0.346,3,N,4.0
NS4,45.0,29.0,31.0,60.0,66.0,66,2600.0,square4,j,0.0,3,N,4.0
NS4,46.0,35.0,34.0,66.0,66.0,66,2666.0,square4,j,0.116,3,N,4.0
NS4,47.0,35.0,28.0,63.0,62.0,62,2728.0,square4,j,0.012,3,N,4.0
NS4,48.0,37.0,37.0,61.0,55.0,55,2783.0,square4,j,0.092,3,N,4.0
NS4,49.0,40.0,34.0,59.0,54.0,54,2837.0,square4,j,0.111,3,N,4.0
NS4,50.0,39.0,38.0,68.0,51.0,51,2888.0,square4,j,0.079,3,N,4.0
NS4,51.0,46.0,28.0,69.0,48.0,69,2957.0,square3,f,0.145,2,N,4.0
NS4,52.0,40.0,34.0,62.0,49.0,62,3019.0,square3,f,0.096,2,N,4.0
NS4,53.0,39.0,34.0,63.0,48.0,63,3082.0,square3,f,0.063,2,N,4.0
NS4,54.0,44.0,31.0,58.0,47.0,58,3140.0,square3,f,0.201,2,N,4.0
NS4,55.0,42.0,30.0,68.0,46.0,68,3208.0,square3,f,0.049,2,N,4.0
NS4,56.0,36.0,25.0,69.0,44.0,69,3277.0,square3,f,0.009,2,N,4.0
NS4,57.0,35.0,29.0,71.0,46.0,71,3348.0,square3,f,0.226,2,N,4.0
NS4,58.0,43.0,28.0,68.0,47.0,68,3416.0,square3,f,0.22,2,N,4.0
NS4,59.0,43.0,27.0,67.0,43.0,27,3443.0,square2,r,0.077,1,N,4.0
NS4,60.0,40.0,25.0,72.0,46.0,40,3483.0,square1,i,0.183,0,N,4.0
NS4,61.0,39.0,32.0,63.0,43.0,63,3546.0,square3,f,0.036,2,N,4.0
NS4,62.0,39.0,29.0,61.0,39.0,39,3585.0,square4,j,0.18,3,N,4.0
NS4,63.0,41.0,28.0,59.0,40.0,59,3644.0,square3,f,0.0,2,N,4.0
NS4,64.0,41.0,31.0,57.0,51.0,57,3701.0,square3,f,0.066,2,N,4.0
NS4,65.0,46.0,36.0,59.0,58.0,59,3760.0,square3,f,0.313,2,N,4.0
NS4,66.0,45.0,36.0,53.0,46.0,99999,3760.0,invalid,,,-1,N,4.0
NS4,67.0,40.0,34.0,49.0,46.0,49,3809.0,square3,f,0.263,2,N,4.0
NS4,68.0,43.0,37.0,48.0,48.0,48,3857.0,square3,f,0.209,2,N,4.0
NS4,69.0,42.0,36.0,44.0,56.0,44,3901.0,square3,f,0.146,2,N,4.0
NS4,70.0,40.0,38.0,47.0,58.0,47,3948.0,square3,f,0.233,2,N,4.0
NS4,71.0,36.0,34.0,42.0,63.0,42,3990.0,square3,f,0.058,2,N,4.0
NS4,72.0,38.0,36.0,36.0,66.0,36,4026.0,square3,f,0.225,2,N,4.0
NS4,73.0,36.0,40.0,40.0,66.0,40,4066.0,square3,f,0.242,2,N,4.0
NS4,74.0,31.0,38.0,46.0,67.0,46,4112.0,square3,f,0.026,2,N,4.0
NS4,75.0,40.0,33.0,42.0,64.0,42,4154.0,square3,f,0.008,2,N,4.0
NS4,76.0,38.0,35.0,42.0,64.0,42,4196.0,square3,f,0.001,2,N,4.0
NS4,77.0,40.0,35.0,39.0,66.0,39,4235.0,square3,f,0.004,2,N,4.0
NS4,78.0,40.0,33.0,38.0,68.0,38,4273.0,square3,f,0.093,2,N,4.0
NS4,79.0,40.0,38.0,31.0,70.0,31,4304.0,square3,f,0.03,2,N,4.0
NS4,80.0,37.0,35.0,33.0,73.0,73,4377.0,square4,j,0.476,3,N,4.0
NS4,81.0,34.0,35.0,30.0,70.0,70,4447.0,square4,j,0.152,3,N,4.0
NS4,82.0,35.0,37.0,31.0,66.0,66,4513.0,square4,j,0.299,3,N,4.0
NS4,83.0,42.0,32.0,28.0,67.0,67,4580.0,square4,j,0.931,3,N,4.0
NS4,84.0,38.0,35.0,30.0,68.0,68,4648.0,square4,j,0.061,3,N,4.0
NS4,85.0,43.0,35.0,32.0,64.0,64,4712.0,square4,j,0.121,3,N,4.0
NS4,86.0,49.0,35.0,32.0,70.0,70,4782.0,square4,j,0.022,3,N,4.0
NS4,87.0,48.0,34.0,32.0,69.0,69,4851.0,square4,j,0.845,3,N,4.0
NS4,88.0,50.0,35.0,30.0,64.0,64,4915.0,square4,j,0.326,3,N,4.0
NS4,89.0,48.0,34.0,32.0,68.0,68,4983.0,square4,j,0.767,3,N,4.0
NS4,90.0,53.0,29.0,27.0,68.0,68,5051.0,square4,j,0.003,3,N,4.0
NS4,91.0,54.0,27.0,34.0,68.0,68,5119.0,square4,j,0.263,3,N,4.0
NS4,92.0,52.0,20.0,35.0,69.0,69,5188.0,square4,j,0.041,3,N,4.0
NS4,93.0,42.0,15.0,33.0,68.0,68,5256.0,square4,j,0.048,3,N,4.0
NS4,94.0,40.0,24.0,37.0,72.0,72,5328.0,square4,j,0.027,3,N,4.0
NS4,95.0,43.0,25.0,43.0,69.0,69,5397.0,square4,j,0.08,3,N,4.0
NS4,96.0,41.0,29.0,43.0,74.0,74,5471.0,square4,j,0.001,3,N,4.0
NS4,97.0,46.0,32.0,42.0,78.0,78,5549.0,square4,j,0.085,3,N,4.0
NS4,98.0,48.0,26.0,46.0,75.0,75,5624.0,square4,j,0.003,3,N,4.0
NS4,99.0,46.0,27.0,45.0,71.0,71,5695.0,square4,j,0.201,3,N,4.0
NS5,0.0,26.0,19.0,54.0,39.0,19,19.0,square2,j,1.048,1,N,5.0
NS5,1.0,21.0,17.0,51.0,42.0,42,61.0,square4,i,0.201,3,N,5.0
NS5,2.0,19.0,17.0,52.0,42.0,52,113.0,square3,r,1.449,2,N,5.0
NS5,3.0,21.0,16.0,55.0,38.0,21,134.0,square1,f,0.21,0,N,5.0
NS5,4.0,14.0,26.0,52.0,44.0,52,186.0,square3,r,0.245,2,N,5.0
NS5,5.0,18.0,25.0,47.0,42.0,42,228.0,square4,i,0.126,3,N,5.0
NS5,6.0,23.0,21.0,54.0,38.0,54,282.0,square3,r,0.126,2,N,5.0
NS5,7.0,18.0,27.0,56.0,39.0,39,321.0,square4,i,0.081,3,N,5.0
NS5,8.0,18.0,28.0,57.0,40.0,57,378.0,square3,r,0.126,2,N,5.0
NS5,9.0,15.0,29.0,53.0,38.0,29,407.0,square2,j,0.095,1,N,5.0
NS5,10.0,13.0,26.0,56.0,41.0,56,463.0,square3,r,0.159,2,N,5.0
NS5,11.0,11.0,25.0,58.0,41.0,58,521.0,square3,r,0.092,2,N,5.0
NS5,12.0,9.0,22.0,53.0,40.0,53,574.0,square3,r,0.042,2,N,5.0
NS5,13.0,11.0,21.0,55.0,39.0,55,629.0,square3,r,0.009,2,N,5.0
NS5,14.0,12.0,17.0,49.0,38.0,49,678.0,square3,r,0.001,2,N,5.0
NS5,15.0,18.0,19.0,52.0,37.0,52,730.0,square3,r,0.081,2,N,5.0
NS5,16.0,18.0,20.0,49.0,40.0,49,779.0,square3,r,0.034,2,N,5.0
NS5,17.0,16.0,16.0,50.0,41.0,50,829.0,square3,r,0.576,2,N,5.0
NS5,18.0,16.0,18.0,51.0,43.0,51,880.0,square3,r,0.259,2,N,5.0
NS5,19.0,14.0,20.0,44.0,45.0,45,925.0,square4,i,0.015,3,N,5.0
NS5,20.0,19.0,21.0,42.0,48.0,19,944.0,square1,f,0.194,0,N,5.0
NS5,21.0,19.0,22.0,43.0,47.0,22,966.0,square2,j,0.231,1,N,5.0
NS5,22.0,17.0,15.0,43.0,47.0,47,1013.0,square4,i,0.067,3,N,5.0
NS5,23.0,16.0,28.0,37.0,47.0,37,1050.0,square3,r,0.595,2,N,5.0
NS5,24.0,20.0,21.0,38.0,49.0,49,1099.0,square4,i,0.115,3,N,5.0
NS5,25.0,22.0,17.0,34.0,46.0,46,1145.0,square4,i,0.001,3,N,5.0
NS5,26.0,30.0,16.0,32.0,50.0,50,1195.0,square4,i,0.193,3,N,5.0
NS5,27.0,21.0,20.0,35.0,42.0,42,1237.0,square4,i,0.758,3,N,5.0
NS5,28.0,20.0,23.0,39.0,42.0,42,1279.0,square4,i,0.513,3,N,5.0
NS5,29.0,21.0,18.0,39.0,41.0,39,1318.0,square3,r,0.243,2,N,5.0
NS5,30.0,20.0,11.0,41.0,44.0,44,1362.0,square4,i,0.097,3,N,5.0
NS5,31.0,20.0,9.0,36.0,43.0,43,1405.0,square4,i,0.092,3,N,5.0
NS5,32.0,21.0,13.0,35.0,46.0,46,1451.0,square4,i,0.058,3,N,5.0
NS5,33.0,16.0,22.0,32.0,44.0,44,1495.0,square4,i,0.01,3,N,5.0
NS5,34.0,20.0,20.0,33.0,37.0,33,1528.0,square3,r,0.115,2,N,5.0
NS5,35.0,19.0,27.0,34.0,40.0,40,1568.0,square4,i,0.595,3,N,5.0
NS5,36.0,20.0,23.0,31.0,37.0,37,1605.0,square4,i,0.527,3,N,5.0
NS5,37.0,15.0,28.0,41.0,40.0,40,1645.0,square4,i,0.001,3,N,5.0
NS5,38.0,18.0,21.0,45.0,37.0,37,1682.0,square4,i,0.049,3,N,5.0
NS5,39.0,23.0,22.0,40.0,34.0,34,1716.0,square4,i,0.011,3,N,5.0
NS5,40.0,22.0,25.0,44.0,26.0,25,1741.0,square2,j,0.084,1,N,5.0
NS5,41.0,28.0,25.0,39.0,29.0,28,1769.0,square1,f,0.079,0,N,5.0
NS5,42.0,27.0,27.0,42.0,35.0,35,1804.0,square4,i,0.25,3,N,5.0
NS5,43.0,25.0,25.0,49.0,38.0,49,1853.0,square3,r,0.15,2,N,5.0
NS5,44.0,24.0,26.0,42.0,30.0,42,1895.0,square3,r,0.019,2,N,5.0
NS5,45.0,33.0,22.0,43.0,37.0,43,1938.0,square3,r,0.096,2,N,5.0
NS5,46.0,32.0,24.0,50.0,38.0,50,1988.0,square3,r,0.047,2,N,5.0
NS5,47.0,39.0,25.0,52.0,29.0,52,2040.0,square3,r,0.642,2,N,5.0
NS5,48.0,42.0,22.0,46.0,33.0,46,2086.0,square3,r,0.446,2,N,5.0
NS5,49.0,40.0,26.0,40.0,33.0,40,2126.0,square3,r,0.03,2,N,5.0
NS5,50.0,34.0,19.0,47.0,33.0,47,2173.0,square3,r,0.081,2,N,5.0
NS5,51.0,29.0,25.0,45.0,29.0,45,2218.0,square3,r,0.118,2,N,5.0
NS5,52.0,29.0,24.0,48.0,35.0,48,2266.0,square3,r,0.058,2,N,5.0
NS5,53.0,24.0,25.0,45.0,40.0,45,2311.0,square3,r,0.159,2,N,5.0
NS5,54.0,26.0,25.0,51.0,36.0,51,2362.0,square3,r,0.109,2,N,5.0
NS5,55.0,25.0,28.0,56.0,34.0,56,2418.0,square3,r,0.044,2,N,5.0
NS5,56.0,23.0,27.0,54.0,36.0,54,2472.0,square3,r,0.182,2,N,5.0
NS5,57.0,19.0,25.0,51.0,31.0,51,2523.0,square3,r,0.101,2,N,5.0
NS5,58.0,20.0,30.0,53.0,29.0,53,2576.0,square3,r,0.042,2,N,5.0
NS5,59.0,17.0,30.0,52.0,28.0,52,2628.0,square3,r,0.058,2,N,5.0
NS5,60.0,15.0,30.0,55.0,30.0,55,2683.0,square3,r,0.175,2,N,5.0
NS5,61.0,22.0,29.0,54.0,30.0,54,2737.0,square3,r,0.152,2,N,5.0
NS5,62.0,18.0,31.0,55.0,32.0,55,2792.0,square3,r,0.001,2,N,5.0
NS5,63.0,19.0,31.0,51.0,37.0,51,2843.0,square3,r,0.278,2,N,5.0
NS5,64.0,20.0,30.0,45.0,35.0,45,2888.0,square3,r,0.16,2,N,5.0
NS5,65.0,24.0,21.0,55.0,38.0,55,2943.0,square3,r,0.276,2,N,5.0
NS5,66.0,22.0,29.0,58.0,36.0,58,3001.0,square3,r,0.241,2,N,5.0
NS5,67.0,22.0,26.0,51.0,36.0,51,3052.0,square3,r,0.308,2,N,5.0
NS5,68.0,20.0,28.0,52.0,36.0,52,3104.0,square3,r,0.235,2,N,5.0
NS5,69.0,18.0,27.0,52.0,40.0,52,3156.0,square3,r,0.326,2,N,5.0
NS5,70.0,22.0,34.0,55.0,39.0,55,3211.0,square3,r,0.275,2,N,5.0
NS5,71.0,27.0,37.0,59.0,41.0,59,3270.0,square3,r,0.017,2,N,5.0
NS5,72.0,27.0,37.0,57.0,40.0,57,3327.0,square3,r,0.185,2,N,5.0
NS5,73.0,35.0,36.0,55.0,38.0,55,3382.0,square3,r,0.027,2,N,5.0
NS5,74.0,27.0,36.0,52.0,36.0,52,3434.0,square3,r,0.028,2,N,5.0
NS5,75.0,31.0,40.0,53.0,38.0,53,3487.0,square3,r,0.044,2,N,5.0
NS5,76.0,33.0,41.0,59.0,35.0,59,3546.0,square3,r,0.193,2,N,5.0
NS5,77.0,33.0,42.0,56.0,38.0,56,3602.0,square3,r,0.027,2,N,5.0
NS5,78.0,30.0,42.0,53.0,37.0,53,3655.0,square3,r,0.218,2,N,5.0
NS5,79.0,27.0,49.0,51.0,44.0,51,3706.0,square3,r,0.124,2,N,5.0
NS5,80.0,31.0,49.0,45.0,44.0,45,3751.0,square3,r,0.043,2,N,5.0
NS5,81.0,33.0,51.0,48.0,43.0,48,3799.0,square3,r,0.094,2,N,5.0
NS5,82.0,31.0,54.0,41.0,43.0,41,3840.0,square3,r,0.318,2,N,5.0
NS5,83.0,25.0,57.0,42.0,40.0,42,3882.0,square3,r,0.061,2,N,5.0
NS5,84.0,36.0,57.0,45.0,38.0,45,3927.0,square3,r,0.161,2,N,5.0
NS5,85.0,36.0,62.0,44.0,42.0,44,3971.0,square3,r,0.174,2,N,5.0
NS5,86.0,33.0,55.0,48.0,43.0,48,4019.0,square3,r,0.148,2,N,5.0
NS5,87.0,37.0,53.0,44.0,46.0,44,4063.0,square3,r,0.119,2,N,5.0
NS5,88.0,36.0,54.0,41.0,48.0,41,4104.0,square3,r,0.063,2,N,5.0
NS5,89.0,39.0,62.0,47.0,47.0,47,4151.0,square4,i,0.349,3,N,5.0
NS5,90.0,37.0,62.0,51.0,48.0,48,4199.0,square4,i,0.245,3,N,5.0
NS5,91.0,40.0,64.0,48.0,53.0,53,4252.0,square4,i,0.05,3,N,5.0
NS5,92.0,42.0,64.0,51.0,55.0,55,4307.0,square4,i,0.133,3,N,5.0
NS5,93.0,39.0,63.0,51.0,53.0,53,4360.0,square4,i,0.244,3,N,5.0
NS5,94.0,41.0,60.0,50.0,58.0,58,4418.0,square4,i,0.063,3,N,5.0
NS5,95.0,36.0,55.0,53.0,52.0,52,4470.0,square4,i,0.079,3,N,5.0
NS5,96.0,36.0,56.0,55.0,56.0,56,4526.0,square4,i,0.063,3,N,5.0
NS5,97.0,28.0,52.0,57.0,53.0,53,4579.0,square4,i,0.05,3,N,5.0
NS5,98.0,29.0,53.0,53.0,43.0,43,4622.0,square4,i,0.111,3,N,5.0
NS5,99.0,25.0,55.0,53.0,46.0,99999,4622.0,invalid,,,-1,N,5.0
NS10,0.0,61.0,42.0,19.0,80.0,61,61.0,square1,i,0.951,0,N,10.0
NS10,1.0,62.0,41.0,25.0,78.0,62,123.0,square1,i,0.161,0,N,10.0
NS10,2.0,64.0,42.0,22.0,80.0,80,203.0,square4,j,0.401,3,N,10.0
NS10,3.0,66.0,50.0,21.0,73.0,73,276.0,square4,j,0.909,3,N,10.0
NS10,4.0,65.0,48.0,19.0,80.0,19,295.0,square3,f,0.233,2,N,10.0
NS10,5.0,66.0,48.0,23.0,75.0,48,343.0,square2,r,0.244,1,N,10.0
NS10,6.0,60.0,47.0,26.0,77.0,60,403.0,square1,i,0.294,0,N,10.0
NS10,7.0,66.0,43.0,25.0,81.0,81,484.0,square4,j,0.209,3,N,10.0
NS10,8.0,72.0,42.0,23.0,80.0,42,526.0,square2,r,0.246,1,N,10.0
NS10,9.0,66.0,45.0,21.0,81.0,81,607.0,square4,j,0.192,3,N,10.0
NS10,10.0,69.0,46.0,29.0,77.0,77,684.0,square4,j,0.143,3,N,10.0
NS10,11.0,68.0,44.0,27.0,70.0,70,754.0,square4,j,0.083,3,N,10.0
NS10,12.0,68.0,46.0,27.0,65.0,65,819.0,square4,j,0.014,3,N,10.0
NS10,13.0,67.0,50.0,23.0,65.0,67,886.0,square1,i,0.21,0,N,10.0
NS10,14.0,67.0,49.0,31.0,61.0,67,953.0,square1,i,0.208,0,N,10.0
NS10,15.0,71.0,51.0,28.0,69.0,71,1024.0,square1,i,0.019,0,N,10.0
NS10,16.0,71.0,48.0,25.0,64.0,71,1095.0,square1,i,0.043,0,N,10.0
NS10,17.0,68.0,48.0,25.0,60.0,68,1163.0,square1,i,0.577,0,N,10.0
NS10,18.0,68.0,49.0,23.0,66.0,49,1212.0,square2,r,0.268,1,N,10.0
NS10,19.0,67.0,51.0,23.0,64.0,64,1276.0,square4,j,0.246,3,N,10.0
NS10,20.0,65.0,54.0,29.0,58.0,65,1341.0,square1,i,0.251,0,N,10.0
NS10,21.0,61.0,58.0,22.0,61.0,61,1402.0,square1,i,0.233,0,N,10.0
NS10,22.0,67.0,51.0,23.0,60.0,60,1462.0,square4,j,0.301,3,N,10.0
NS10,23.0,65.0,57.0,22.0,60.0,22,1484.0,square3,f,0.161,2,N,10.0
NS10,24.0,67.0,58.0,26.0,56.0,67,1551.0,square1,i,0.165,0,N,10.0
NS10,25.0,70.0,67.0,26.0,60.0,70,1621.0,square1,i,0.198,0,N,10.0
NS10,26.0,71.0,58.0,24.0,55.0,71,1692.0,square1,i,0.076,0,N,10.0
NS10,27.0,74.0,57.0,24.0,59.0,57,1749.0,square2,r,0.103,1,N,10.0
NS10,28.0,76.0,62.0,24.0,56.0,56,1805.0,square4,j,0.048,3,N,10.0
NS10,29.0,78.0,66.0,21.0,61.0,78,1883.0,square1,i,0.417,0,N,10.0
NS10,30.0,74.0,62.0,20.0,52.0,74,1957.0,square1,i,0.132,0,N,10.0
NS10,31.0,74.0,63.0,21.0,53.0,74,2031.0,square1,i,0.979,0,N,10.0
NS10,32.0,77.0,62.0,19.0,50.0,77,2108.0,square1,i,0.159,0,N,10.0
NS10,33.0,74.0,63.0,21.0,50.0,74,2182.0,square1,i,0.635,0,N,10.0
NS10,34.0,69.0,64.0,16.0,47.0,69,2251.0,square1,i,0.36,0,N,10.0
NS10,35.0,68.0,60.0,14.0,51.0,68,2319.0,square1,i,0.127,0,N,10.0
NS10,36.0,76.0,59.0,13.0,52.0,76,2395.0,square1,i,0.24,0,N,10.0
NS10,37.0,71.0,60.0,16.0,50.0,71,2466.0,square1,i,0.051,0,N,10.0
NS10,38.0,70.0,56.0,27.0,49.0,70,2536.0,square1,i,0.312,0,N,10.0
NS10,39.0,75.0,59.0,22.0,49.0,75,2611.0,square1,i,0.062,0,N,10.0
NS10,40.0,70.0,56.0,27.0,51.0,70,2681.0,square1,i,0.065,0,N,10.0
NS10,41.0,73.0,57.0,24.0,54.0,73,2754.0,square1,i,0.093,0,N,10.0
NS10,42.0,70.0,58.0,24.0,51.0,70,2824.0,square1,i,0.619,0,N,10.0
NS10,43.0,70.0,60.0,26.0,45.0,70,2894.0,square1,i,0.316,0,N,10.0
NS10,44.0,68.0,58.0,27.0,53.0,68,2962.0,square1,i,0.182,0,N,10.0
NS10,45.0,70.0,61.0,31.0,49.0,70,3032.0,square1,i,0.16,0,N,10.0
NS10,46.0,65.0,60.0,29.0,43.0,65,3097.0,square1,i,0.133,0,N,10.0
NS10,47.0,65.0,61.0,32.0,44.0,65,3162.0,square1,i,0.216,0,N,10.0
NS10,48.0,67.0,58.0,31.0,46.0,67,3229.0,square1,i,0.996,0,N,10.0
NS10,49.0,76.0,55.0,38.0,43.0,76,3305.0,square1,i,0.275,0,N,10.0
NS10,50.0,74.0,65.0,36.0,40.0,74,3379.0,square1,i,0.276,0,N,10.0
NS10,51.0,74.0,58.0,34.0,40.0,74,3453.0,square1,i,0.231,0,N,10.0
NS10,52.0,69.0,65.0,28.0,43.0,69,3522.0,square1,i,0.327,0,N,10.0
NS10,53.0,69.0,65.0,32.0,40.0,69,3591.0,square1,i,0.076,0,N,10.0
NS10,54.0,72.0,61.0,32.0,41.0,72,3663.0,square1,i,0.245,0,N,10.0
NS10,55.0,65.0,64.0,36.0,33.0,65,3728.0,square1,i,0.215,0,N,10.0
NS10,56.0,75.0,64.0,37.0,37.0,75,3803.0,square1,i,0.235,0,N,10.0
NS10,57.0,72.0,62.0,36.0,38.0,72,3875.0,square1,i,0.074,0,N,10.0
NS10,58.0,63.0,68.0,38.0,33.0,63,3938.0,square1,i,0.001,0,N,10.0
NS10,59.0,65.0,64.0,43.0,34.0,65,4003.0,square1,i,0.815,0,N,10.0
NS10,60.0,62.0,64.0,51.0,40.0,62,4065.0,square1,i,0.259,0,N,10.0
NS10,61.0,61.0,65.0,45.0,38.0,61,4126.0,square1,i,0.518,0,N,10.0
NS10,62.0,66.0,63.0,41.0,37.0,66,4192.0,square1,i,0.228,0,N,10.0
NS10,63.0,67.0,62.0,45.0,41.0,67,4259.0,square1,i,0.011,0,N,10.0
NS10,64.0,72.0,60.0,44.0,36.0,72,4331.0,square1,i,0.08,0,N,10.0
NS10,65.0,73.0,65.0,42.0,39.0,73,4404.0,square1,i,0.4,0,N,10.0
NS10,66.0,72.0,67.0,45.0,43.0,72,4476.0,square1,i,0.326,0,N,10.0
NS10,67.0,66.0,70.0,44.0,40.0,66,4542.0,square1,i,0.086,0,N,10.0
NS10,68.0,61.0,69.0,45.0,44.0,61,4603.0,square1,i,0.001,0,N,10.0
NS10,69.0,64.0,68.0,42.0,43.0,64,4667.0,square1,i,0.009,0,N,10.0
NS10,70.0,66.0,72.0,41.0,42.0,66,4733.0,square1,i,0.017,0,N,10.0
NS10,71.0,64.0,72.0,46.0,45.0,64,4797.0,square1,i,0.176,0,N,10.0
NS10,72.0,64.0,69.0,44.0,39.0,64,4861.0,square1,i,0.082,0,N,10.0
NS10,73.0,60.0,74.0,48.0,45.0,60,4921.0,square1,i,0.166,0,N,10.0
NS10,74.0,57.0,75.0,48.0,41.0,57,4978.0,square1,i,0.097,0,N,10.0
NS10,75.0,66.0,75.0,46.0,40.0,66,5044.0,square1,i,0.177,0,N,10.0
NS10,76.0,63.0,77.0,46.0,40.0,63,5107.0,square1,i,0.192,0,N,10.0
NS10,77.0,62.0,74.0,43.0,34.0,62,5169.0,square1,i,0.16,0,N,10.0
NS10,78.0,60.0,71.0,48.0,33.0,60,5229.0,square1,i,0.192,0,N,10.0
NS10,79.0,63.0,68.0,47.0,29.0,63,5292.0,square1,i,0.019,0,N,10.0
NS10,80.0,54.0,71.0,42.0,32.0,54,5346.0,square1,i,0.028,0,N,10.0
NS10,81.0,52.0,72.0,44.0,30.0,52,5398.0,square1,i,0.048,0,N,10.0
NS10,82.0,51.0,77.0,41.0,31.0,51,5449.0,square1,i,0.085,0,N,10.0
NS10,83.0,52.0,63.0,41.0,35.0,52,5501.0,square1,i,0.043,0,N,10.0
NS10,84.0,48.0,70.0,37.0,34.0,34,5535.0,square4,j,0.21,3,N,10.0
NS10,85.0,51.0,73.0,38.0,30.0,73,5608.0,square2,r,0.841,1,N,10.0
NS10,86.0,55.0,79.0,45.0,27.0,79,5687.0,square2,r,0.083,1,N,10.0
NS10,87.0,54.0,83.0,47.0,21.0,83,5770.0,square2,r,0.001,1,N,10.0
NS10,88.0,59.0,78.0,45.0,21.0,78,5848.0,square2,r,0.176,1,N,10.0
NS10,89.0,60.0,74.0,45.0,21.0,74,5922.0,square2,r,0.044,1,N,10.0
NS10,90.0,55.0,71.0,50.0,18.0,71,5993.0,square2,r,0.193,1,N,10.0
NS10,91.0,56.0,71.0,46.0,14.0,71,6064.0,square2,r,0.143,1,N,10.0
NS10,92.0,59.0,70.0,46.0,20.0,70,6134.0,square2,r,0.134,1,N,10.0
NS10,93.0,65.0,72.0,46.0,21.0,72,6206.0,square2,r,0.076,1,N,10.0
NS10,94.0,63.0,68.0,46.0,20.0,68,6274.0,square2,r,0.017,1,N,10.0
NS10,95.0,69.0,70.0,48.0,22.0,70,6344.0,square2,r,0.06,1,N,10.0
NS10,96.0,68.0,69.0,45.0,27.0,68,6412.0,square1,i,0.115,0,N,10.0
NS10,97.0,74.0,69.0,43.0,35.0,74,6486.0,square1,i,0.084,0,N,10.0
NS10,98.0,73.0,68.0,43.0,30.0,73,6559.0,square1,i,0.001,0,N,10.0
NS10,99.0,70.0,61.0,39.0,32.0,70,6629.0,square1,i,0.027,0,N,10.0
