block,Trial,square1,square2,square3,square4,currPoints,totalPoints,square,choiceKey.keys,choiceKey.rt,armNum,blockType,blockNum
prac,0.0,100.0,0.0,0.0,0.0,100.0,100.0,square1,,,0,p,0.0
prac,1.0,100.0,0.0,0.0,0.0,0.0,100.0,square4,,,3,p,0.0
prac,2.0,100.0,0.0,0.0,0.0,0.0,100.0,square3,,,2,p,0.0
prac,3.0,100.0,0.0,0.0,0.0,0.0,100.0,square2,,,1,p,0.0
prac,4.0,100.0,0.0,0.0,0.0,100.0,200.0,square1,,,0,p,0.0
prac,5.0,100.0,0.0,0.0,0.0,100.0,300.0,square1,,,0,p,0.0
prac,6.0,100.0,0.0,0.0,0.0,100.0,400.0,square1,,,0,p,0.0
prac,7.0,100.0,0.0,0.0,0.0,100.0,500.0,square1,,,0,p,0.0
prac,8.0,100.0,0.0,0.0,0.0,100.0,600.0,square1,,,0,p,0.0
prac,9.0,100.0,0.0,0.0,0.0,100.0,700.0,square1,,,0,p,0.0
NS8,0.0,61.0,62.0,34.0,32.0,34.0,34.0,square3,f,0.6204,2,N,8.0
NS8,1.0,57.0,56.0,38.0,27.0,57.0,91.0,square1,i,0.4398,0,N,8.0
NS8,2.0,66.0,55.0,42.0,28.0,28.0,119.0,square4,j,0.3062,3,N,8.0
NS8,3.0,67.0,51.0,37.0,28.0,51.0,170.0,square2,r,0.0678,1,N,8.0
NS8,4.0,65.0,53.0,38.0,32.0,65.0,235.0,square1,i,0.2905,0,N,8.0
NS8,5.0,67.0,52.0,43.0,33.0,67.0,302.0,square1,i,0.24,0,N,8.0
NS8,6.0,56.0,47.0,41.0,36.0,56.0,358.0,square1,i,0.001,0,N,8.0
NS8,7.0,58.0,46.0,37.0,31.0,46.0,404.0,square2,r,0.2762,1,N,8.0
NS8,8.0,60.0,58.0,36.0,35.0,35.0,439.0,square4,j,0.3903,3,N,8.0
NS8,9.0,60.0,66.0,41.0,39.0,41.0,480.0,square3,f,0.412,2,N,8.0
NS8,10.0,60.0,60.0,36.0,33.0,60.0,540.0,square2,r,0.159,1,N,8.0
NS8,11.0,53.0,63.0,32.0,35.0,63.0,603.0,square2,r,0.0524,1,N,8.0
NS8,12.0,51.0,60.0,32.0,29.0,60.0,663.0,square2,r,0.0392,1,N,8.0
NS8,13.0,53.0,65.0,30.0,32.0,65.0,728.0,square2,r,0.039,1,N,8.0
NS8,14.0,56.0,69.0,25.0,33.0,69.0,797.0,square2,r,0.176,1,N,8.0
NS8,15.0,57.0,71.0,29.0,35.0,71.0,868.0,square2,r,0.04,1,N,8.0
NS8,16.0,55.0,64.0,31.0,33.0,64.0,932.0,square2,r,0.1536,1,N,8.0
NS8,17.0,48.0,65.0,29.0,32.0,65.0,997.0,square2,r,0.0579,1,N,8.0
NS8,18.0,44.0,64.0,28.0,34.0,64.0,1061.0,square2,r,0.0435,1,N,8.0
NS8,19.0,46.0,60.0,26.0,33.0,60.0,1121.0,square2,r,0.0729,1,N,8.0
NS8,20.0,41.0,58.0,29.0,35.0,58.0,1179.0,square2,r,0.1459,1,N,8.0
NS8,21.0,45.0,57.0,29.0,35.0,57.0,1236.0,square2,r,0.1075,1,N,8.0
NS8,22.0,47.0,53.0,32.0,32.0,53.0,1289.0,square2,r,0.0925,1,N,8.0
NS8,23.0,49.0,52.0,33.0,35.0,52.0,1341.0,square2,r,0.0732,1,N,8.0
NS8,24.0,56.0,53.0,30.0,37.0,53.0,1394.0,square2,r,0.0587,1,N,8.0
NS8,25.0,57.0,48.0,28.0,42.0,48.0,1442.0,square2,r,0.0776,1,N,8.0
NS8,26.0,52.0,48.0,33.0,43.0,48.0,1490.0,square2,r,0.0448,1,N,8.0
NS8,27.0,53.0,45.0,28.0,47.0,53.0,1543.0,square1,i,0.1596,0,N,8.0
NS8,28.0,50.0,43.0,27.0,41.0,50.0,1593.0,square1,i,0.0762,0,N,8.0
NS8,29.0,53.0,52.0,29.0,43.0,52.0,1645.0,square2,r,0.0693,1,N,8.0
NS8,30.0,54.0,51.0,30.0,41.0,51.0,1696.0,square2,r,0.1429,1,N,8.0
NS8,31.0,50.0,50.0,31.0,42.0,50.0,1746.0,square2,r,0.0434,1,N,8.0
NS8,32.0,50.0,50.0,35.0,43.0,50.0,1796.0,square2,r,0.0386,1,N,8.0
NS8,33.0,46.0,48.0,39.0,41.0,48.0,1844.0,square2,r,0.1095,1,N,8.0
NS8,34.0,47.0,46.0,41.0,40.0,46.0,1890.0,square2,r,0.1292,1,N,8.0
NS8,35.0,57.0,45.0,36.0,37.0,45.0,1935.0,square2,r,0.1662,1,N,8.0
NS8,36.0,53.0,49.0,41.0,38.0,49.0,1984.0,square2,r,0.179,1,N,8.0
NS8,37.0,57.0,50.0,41.0,39.0,57.0,2041.0,square1,i,0.1165,0,N,8.0
NS8,38.0,61.0,51.0,39.0,43.0,61.0,2102.0,square1,i,0.0008,0,N,8.0
NS8,39.0,59.0,54.0,41.0,36.0,59.0,2161.0,square1,i,0.0049,0,N,8.0
NS8,40.0,53.0,55.0,47.0,40.0,53.0,2214.0,square1,i,0.001,0,N,8.0
NS8,41.0,53.0,55.0,43.0,39.0,53.0,2267.0,square1,i,0.01,0,N,8.0
NS8,42.0,59.0,55.0,45.0,40.0,59.0,2326.0,square1,i,0.1308,0,N,8.0
NS8,43.0,54.0,46.0,51.0,37.0,54.0,2380.0,square1,i,0.0011,0,N,8.0
NS8,44.0,56.0,44.0,50.0,35.0,56.0,2436.0,square1,i,0.1956,0,N,8.0
NS8,45.0,51.0,46.0,41.0,37.0,51.0,2487.0,square1,i,0.1708,0,N,8.0
NS8,46.0,52.0,43.0,44.0,34.0,52.0,2539.0,square1,i,0.0053,0,N,8.0
NS8,47.0,46.0,41.0,36.0,37.0,46.0,2585.0,square1,i,0.0302,0,N,8.0
NS8,48.0,47.0,46.0,39.0,37.0,47.0,2632.0,square1,i,0.0426,0,N,8.0
NS8,49.0,48.0,36.0,38.0,40.0,48.0,2680.0,square1,i,0.0263,0,N,8.0
NS8,50.0,51.0,37.0,36.0,46.0,51.0,2731.0,square1,i,0.0119,0,N,8.0
NS8,51.0,53.0,38.0,40.0,43.0,38.0,2769.0,square2,r,0.0735,1,N,8.0
NS8,52.0,47.0,32.0,37.0,44.0,32.0,2801.0,square2,r,0.0216,1,N,8.0
NS8,53.0,52.0,31.0,38.0,46.0,38.0,2839.0,square3,f,0.0591,2,N,8.0
NS8,54.0,44.0,34.0,40.0,45.0,45.0,2884.0,square4,j,0.0564,3,N,8.0
NS8,55.0,46.0,26.0,37.0,41.0,41.0,2925.0,square4,j,0.0602,3,N,8.0
NS8,56.0,42.0,29.0,36.0,40.0,42.0,2967.0,square1,i,0.0165,0,N,8.0
NS8,57.0,39.0,21.0,39.0,40.0,39.0,3006.0,square1,i,0.1463,0,N,8.0
NS8,58.0,42.0,18.0,39.0,40.0,42.0,3048.0,square1,i,0.199,0,N,8.0
NS8,59.0,46.0,16.0,41.0,39.0,46.0,3094.0,square1,i,0.0356,0,N,8.0
NS8,60.0,45.0,20.0,40.0,39.0,45.0,3139.0,square1,i,0.1593,0,N,8.0
NS8,61.0,45.0,26.0,42.0,39.0,45.0,3184.0,square1,i,0.1543,0,N,8.0
NS8,62.0,46.0,21.0,45.0,37.0,46.0,3230.0,square1,i,0.0011,0,N,8.0
NS8,63.0,50.0,23.0,40.0,38.0,50.0,3280.0,square1,i,0.0584,0,N,8.0
NS8,64.0,46.0,24.0,41.0,33.0,46.0,3326.0,square1,i,0.0263,0,N,8.0
NS8,65.0,48.0,28.0,42.0,32.0,48.0,3374.0,square1,i,0.0008,0,N,8.0
NS8,66.0,47.0,20.0,40.0,35.0,47.0,3421.0,square1,i,0.0592,0,N,8.0
NS8,67.0,49.0,25.0,46.0,34.0,49.0,3470.0,square1,i,0.1286,0,N,8.0
NS8,68.0,47.0,24.0,45.0,33.0,47.0,3517.0,square1,i,0.1126,0,N,8.0
NS8,69.0,45.0,21.0,47.0,35.0,45.0,3562.0,square1,i,0.076,0,N,8.0
NS8,70.0,44.0,21.0,47.0,37.0,44.0,3606.0,square1,i,0.076,0,N,8.0
NS8,71.0,44.0,15.0,41.0,38.0,44.0,3650.0,square1,i,0.11,0,N,8.0
NS8,72.0,47.0,19.0,49.0,40.0,47.0,3697.0,square1,i,0.1014,0,N,8.0
NS8,73.0,39.0,21.0,53.0,38.0,39.0,3736.0,square1,i,0.0772,0,N,8.0
NS8,74.0,42.0,19.0,53.0,35.0,42.0,3778.0,square1,i,0.0937,0,N,8.0
NS8,75.0,37.0,18.0,43.0,35.0,37.0,3815.0,square1,i,0.0784,0,N,8.0
NS8,76.0,35.0,14.0,42.0,38.0,35.0,3850.0,square1,i,0.1092,0,N,8.0
NS8,77.0,38.0,19.0,47.0,44.0,38.0,3888.0,square1,i,0.0624,0,N,8.0
NS8,78.0,38.0,18.0,50.0,46.0,38.0,3926.0,square1,i,0.11,0,N,8.0
NS8,79.0,33.0,22.0,54.0,44.0,44.0,3970.0,square4,j,0.1865,3,N,8.0
NS8,80.0,38.0,21.0,56.0,52.0,52.0,4022.0,square4,j,0.1464,3,N,8.0
NS8,81.0,37.0,22.0,56.0,43.0,43.0,4065.0,square4,j,0.0009,3,N,8.0
NS8,82.0,30.0,26.0,60.0,42.0,42.0,4107.0,square4,j,0.0177,3,N,8.0
NS8,83.0,38.0,22.0,54.0,46.0,46.0,4153.0,square4,j,0.0257,3,N,8.0
NS8,84.0,33.0,18.0,52.0,46.0,46.0,4199.0,square4,j,0.0008,3,N,8.0
NS8,85.0,42.0,12.0,57.0,48.0,48.0,4247.0,square4,j,0.0406,3,N,8.0
NS8,86.0,45.0,19.0,58.0,42.0,42.0,4289.0,square4,j,0.0763,3,N,8.0
NS8,87.0,46.0,10.0,65.0,44.0,44.0,4333.0,square4,j,0.0898,3,N,8.0
NS8,88.0,45.0,11.0,59.0,45.0,45.0,4378.0,square4,j,0.1264,3,N,8.0
NS8,89.0,42.0,11.0,60.0,47.0,47.0,4425.0,square4,j,0.1261,3,N,8.0
NS8,90.0,40.0,7.0,64.0,49.0,49.0,4474.0,square4,j,0.1025,3,N,8.0
NS8,91.0,42.0,11.0,64.0,48.0,48.0,4522.0,square4,j,0.06,3,N,8.0
NS8,92.0,43.0,13.0,60.0,43.0,43.0,4565.0,square4,j,0.0743,3,N,8.0
NS8,93.0,44.0,12.0,64.0,45.0,45.0,4610.0,square4,j,0.0764,3,N,8.0
NS8,94.0,45.0,16.0,65.0,49.0,49.0,4659.0,square4,j,0.0591,3,N,8.0
NS8,95.0,45.0,24.0,66.0,42.0,42.0,4701.0,square4,j,0.0546,3,N,8.0
NS8,96.0,53.0,27.0,67.0,44.0,44.0,4745.0,square4,j,0.1053,3,N,8.0
NS8,97.0,50.0,29.0,68.0,43.0,43.0,4788.0,square4,j,0.0241,3,N,8.0
NS8,98.0,52.0,29.0,66.0,37.0,37.0,4825.0,square4,j,0.6131,3,N,8.0
NS8,99.0,53.0,32.0,65.0,37.0,37.0,4862.0,square4,j,0.8091,3,N,8.0
NS4,0.0,55.0,53.0,59.0,44.0,44.0,44.0,square4,r,0.3959,3,N,4.0
NS4,1.0,49.0,56.0,64.0,41.0,56.0,100.0,square2,i,0.3564,1,N,4.0
NS4,2.0,50.0,54.0,71.0,48.0,71.0,171.0,square3,j,0.0011,2,N,4.0
NS4,3.0,53.0,58.0,67.0,50.0,53.0,224.0,square1,f,1.1428,0,N,4.0
NS4,4.0,49.0,51.0,70.0,55.0,70.0,294.0,square3,j,0.0902,2,N,4.0
NS4,5.0,55.0,59.0,73.0,58.0,73.0,367.0,square3,j,0.1057,2,N,4.0
NS4,6.0,56.0,54.0,71.0,57.0,71.0,438.0,square3,j,0.0939,2,N,4.0
NS4,7.0,60.0,54.0,75.0,52.0,75.0,513.0,square3,j,0.1596,2,N,4.0
NS4,8.0,58.0,53.0,74.0,52.0,74.0,587.0,square3,j,0.1404,2,N,4.0
NS4,9.0,46.0,48.0,78.0,51.0,78.0,665.0,square3,j,0.0011,2,N,4.0
NS4,10.0,55.0,48.0,78.0,51.0,78.0,743.0,square3,j,0.1407,2,N,4.0
NS4,11.0,55.0,44.0,79.0,49.0,79.0,822.0,square3,j,0.1592,2,N,4.0
NS4,12.0,50.0,40.0,79.0,50.0,79.0,901.0,square3,j,0.1712,2,N,4.0
NS4,13.0,45.0,39.0,79.0,53.0,79.0,980.0,square3,j,0.1926,2,N,4.0
NS4,14.0,44.0,38.0,77.0,56.0,77.0,1057.0,square3,j,0.0234,2,N,4.0
NS4,15.0,45.0,32.0,68.0,52.0,68.0,1125.0,square3,j,0.1867,2,N,4.0
NS4,16.0,49.0,32.0,74.0,53.0,74.0,1199.0,square3,j,0.0109,2,N,4.0
NS4,17.0,45.0,32.0,69.0,51.0,69.0,1268.0,square3,j,0.001,2,N,4.0
NS4,18.0,50.0,34.0,69.0,47.0,69.0,1337.0,square3,j,0.1568,2,N,4.0
NS4,19.0,50.0,36.0,65.0,53.0,65.0,1402.0,square3,j,0.1833,2,N,4.0
NS4,20.0,45.0,36.0,62.0,53.0,62.0,1464.0,square3,j,0.1732,2,N,4.0
NS4,21.0,49.0,35.0,62.0,55.0,62.0,1526.0,square3,j,0.1686,2,N,4.0
NS4,22.0,53.0,32.0,61.0,60.0,61.0,1587.0,square3,j,0.2082,2,N,4.0
NS4,23.0,52.0,33.0,58.0,54.0,58.0,1645.0,square3,j,0.0012,2,N,4.0
NS4,24.0,48.0,32.0,52.0,60.0,52.0,1697.0,square3,j,0.1902,2,N,4.0
NS4,25.0,47.0,30.0,53.0,57.0,53.0,1750.0,square3,j,0.1235,2,N,4.0
NS4,26.0,50.0,30.0,60.0,55.0,60.0,1810.0,square3,j,0.2426,2,N,4.0
NS4,27.0,50.0,28.0,62.0,47.0,62.0,1872.0,square3,j,0.1427,2,N,4.0
NS4,28.0,54.0,28.0,58.0,49.0,58.0,1930.0,square3,j,0.1569,2,N,4.0
NS4,29.0,44.0,29.0,50.0,49.0,50.0,1980.0,square3,j,0.1396,2,N,4.0
NS4,30.0,43.0,26.0,55.0,57.0,55.0,2035.0,square3,j,0.1567,2,N,4.0
NS4,31.0,43.0,25.0,60.0,54.0,54.0,2089.0,square4,r,0.0314,3,N,4.0
NS4,32.0,34.0,27.0,58.0,56.0,34.0,2123.0,square1,f,0.144,0,N,4.0
NS4,33.0,34.0,20.0,60.0,62.0,20.0,2143.0,square2,i,0.0331,1,N,4.0
NS4,34.0,38.0,28.0,58.0,57.0,58.0,2201.0,square3,j,0.3899,2,N,4.0
NS4,35.0,40.0,24.0,63.0,59.0,63.0,2264.0,square3,j,0.1275,2,N,4.0
NS4,36.0,36.0,30.0,56.0,63.0,56.0,2320.0,square3,j,0.1519,2,N,4.0
NS4,37.0,40.0,29.0,54.0,63.0,54.0,2374.0,square3,j,0.001,2,N,4.0
NS4,38.0,40.0,33.0,53.0,69.0,53.0,2427.0,square3,j,0.1633,2,N,4.0
NS4,39.0,36.0,30.0,57.0,67.0,57.0,2484.0,square3,j,0.1728,2,N,4.0
NS4,40.0,33.0,33.0,58.0,68.0,58.0,2542.0,square3,j,0.0227,2,N,4.0
NS4,41.0,34.0,28.0,58.0,72.0,58.0,2600.0,square3,j,0.0264,2,N,4.0
NS4,42.0,35.0,30.0,60.0,70.0,60.0,2660.0,square3,j,0.0547,2,N,4.0
NS4,43.0,35.0,34.0,57.0,63.0,57.0,2717.0,square3,j,0.1475,2,N,4.0
NS4,44.0,30.0,32.0,59.0,69.0,59.0,2776.0,square3,j,0.1023,2,N,4.0
NS4,45.0,29.0,31.0,60.0,66.0,60.0,2836.0,square3,j,0.0402,2,N,4.0
NS4,46.0,35.0,34.0,66.0,66.0,66.0,2902.0,square3,j,0.0281,2,N,4.0
NS4,47.0,35.0,28.0,63.0,62.0,63.0,2965.0,square3,j,0.006,2,N,4.0
NS4,48.0,37.0,37.0,61.0,55.0,61.0,3026.0,square3,j,0.0429,2,N,4.0
NS4,49.0,40.0,34.0,59.0,54.0,59.0,3085.0,square3,j,0.0021,2,N,4.0
NS4,50.0,39.0,38.0,68.0,51.0,68.0,3153.0,square3,j,0.0009,2,N,4.0
NS4,51.0,46.0,28.0,69.0,48.0,69.0,3222.0,square3,j,0.0176,2,N,4.0
NS4,52.0,40.0,34.0,62.0,49.0,62.0,3284.0,square3,j,0.023,2,N,4.0
NS4,53.0,39.0,34.0,63.0,48.0,63.0,3347.0,square3,j,0.0451,2,N,4.0
NS4,54.0,44.0,31.0,58.0,47.0,58.0,3405.0,square3,j,0.0565,2,N,4.0
NS4,55.0,42.0,30.0,68.0,46.0,68.0,3473.0,square3,j,0.0401,2,N,4.0
NS4,56.0,36.0,25.0,69.0,44.0,69.0,3542.0,square3,j,0.0927,2,N,4.0
NS4,57.0,35.0,29.0,71.0,46.0,71.0,3613.0,square3,j,0.1426,2,N,4.0
NS4,58.0,43.0,28.0,68.0,47.0,68.0,3681.0,square3,j,0.0564,2,N,4.0
NS4,59.0,43.0,27.0,67.0,43.0,67.0,3748.0,square3,j,0.0619,2,N,4.0
NS4,60.0,40.0,25.0,72.0,46.0,72.0,3820.0,square3,j,0.03,2,N,4.0
NS4,61.0,39.0,32.0,63.0,43.0,63.0,3883.0,square3,j,0.0631,2,N,4.0
NS4,62.0,39.0,29.0,61.0,39.0,61.0,3944.0,square3,j,0.0252,2,N,4.0
NS4,63.0,41.0,28.0,59.0,40.0,59.0,4003.0,square3,j,0.0234,2,N,4.0
NS4,64.0,41.0,31.0,57.0,51.0,57.0,4060.0,square3,j,0.1928,2,N,4.0
NS4,65.0,46.0,36.0,59.0,58.0,59.0,4119.0,square3,j,0.2071,2,N,4.0
NS4,66.0,45.0,36.0,53.0,46.0,53.0,4172.0,square3,j,0.0116,2,N,4.0
NS4,67.0,40.0,34.0,49.0,46.0,49.0,4221.0,square3,j,0.0175,2,N,4.0
NS4,68.0,43.0,37.0,48.0,48.0,48.0,4269.0,square3,j,0.0252,2,N,4.0
NS4,69.0,42.0,36.0,44.0,56.0,56.0,4325.0,square4,r,0.03,3,N,4.0
NS4,70.0,40.0,38.0,47.0,58.0,58.0,4383.0,square4,r,0.1023,3,N,4.0
NS4,71.0,36.0,34.0,42.0,63.0,63.0,4446.0,square4,r,0.0233,3,N,4.0
NS4,72.0,38.0,36.0,36.0,66.0,66.0,4512.0,square4,r,0.0706,3,N,4.0
NS4,73.0,36.0,40.0,40.0,66.0,66.0,4578.0,square4,r,0.0532,3,N,4.0
NS4,74.0,31.0,38.0,46.0,67.0,67.0,4645.0,square4,r,0.0789,3,N,4.0
NS4,75.0,40.0,33.0,42.0,64.0,64.0,4709.0,square4,r,0.0415,3,N,4.0
NS4,76.0,38.0,35.0,42.0,64.0,64.0,4773.0,square4,r,0.0722,3,N,4.0
NS4,77.0,40.0,35.0,39.0,66.0,66.0,4839.0,square4,r,0.0718,3,N,4.0
NS4,78.0,40.0,33.0,38.0,68.0,68.0,4907.0,square4,r,0.068,3,N,4.0
NS4,79.0,40.0,38.0,31.0,70.0,70.0,4977.0,square4,r,0.1235,3,N,4.0
NS4,80.0,37.0,35.0,33.0,73.0,73.0,5050.0,square4,r,0.1598,3,N,4.0
NS4,81.0,34.0,35.0,30.0,70.0,70.0,5120.0,square4,r,0.1631,3,N,4.0
NS4,82.0,35.0,37.0,31.0,66.0,66.0,5186.0,square4,r,0.1421,3,N,4.0
NS4,83.0,42.0,32.0,28.0,67.0,67.0,5253.0,square4,r,0.1208,3,N,4.0
NS4,84.0,38.0,35.0,30.0,68.0,68.0,5321.0,square4,r,0.1062,3,N,4.0
NS4,85.0,43.0,35.0,32.0,64.0,64.0,5385.0,square4,r,0.0767,3,N,4.0
NS4,86.0,49.0,35.0,32.0,70.0,70.0,5455.0,square4,r,0.1272,3,N,4.0
NS4,87.0,48.0,34.0,32.0,69.0,69.0,5524.0,square4,r,0.1438,3,N,4.0
NS4,88.0,50.0,35.0,30.0,64.0,64.0,5588.0,square4,r,0.1612,3,N,4.0
NS4,89.0,48.0,34.0,32.0,68.0,68.0,5656.0,square4,r,0.1593,3,N,4.0
NS4,90.0,53.0,29.0,27.0,68.0,68.0,5724.0,square4,r,0.1554,3,N,4.0
NS4,91.0,54.0,27.0,34.0,68.0,68.0,5792.0,square4,r,0.177,3,N,4.0
NS4,92.0,52.0,20.0,35.0,69.0,69.0,5861.0,square4,r,0.1402,3,N,4.0
NS4,93.0,42.0,15.0,33.0,68.0,68.0,5929.0,square4,r,0.1424,3,N,4.0
NS4,94.0,40.0,24.0,37.0,72.0,72.0,6001.0,square4,r,0.179,3,N,4.0
NS4,95.0,43.0,25.0,43.0,69.0,69.0,6070.0,square4,r,0.2363,3,N,4.0
NS4,96.0,41.0,29.0,43.0,74.0,74.0,6144.0,square4,r,0.001,3,N,4.0
NS4,97.0,46.0,32.0,42.0,78.0,78.0,6222.0,square4,r,0.2078,3,N,4.0
NS4,98.0,48.0,26.0,46.0,75.0,75.0,6297.0,square4,r,0.1943,3,N,4.0
NS4,99.0,46.0,27.0,45.0,71.0,71.0,6368.0,square4,r,0.3595,3,N,4.0
NS12,0.0,80.0,24.0,40.0,79.0,24.0,24.0,square2,r,0.884,1,N,12.0
NS12,1.0,78.0,28.0,44.0,78.0,44.0,68.0,square3,i,0.1063,2,N,12.0
NS12,2.0,77.0,28.0,37.0,82.0,77.0,145.0,square1,j,0.1399,0,N,12.0
NS12,3.0,76.0,33.0,39.0,82.0,82.0,227.0,square4,f,1.2236,3,N,12.0
NS12,4.0,79.0,37.0,34.0,78.0,78.0,305.0,square4,f,0.2266,3,N,12.0
NS12,5.0,83.0,33.0,28.0,81.0,81.0,386.0,square4,f,0.0968,3,N,12.0
NS12,6.0,77.0,39.0,33.0,80.0,80.0,466.0,square4,f,0.0398,3,N,12.0
NS12,7.0,77.0,40.0,25.0,85.0,85.0,551.0,square4,f,0.1203,3,N,12.0
NS12,8.0,77.0,40.0,29.0,87.0,87.0,638.0,square4,f,0.0596,3,N,12.0
NS12,9.0,70.0,42.0,29.0,88.0,88.0,726.0,square4,f,0.0464,3,N,12.0
NS12,10.0,65.0,47.0,31.0,86.0,86.0,812.0,square4,f,0.0429,3,N,12.0
NS12,11.0,67.0,46.0,26.0,84.0,84.0,896.0,square4,f,0.09,3,N,12.0
NS12,12.0,67.0,36.0,26.0,84.0,84.0,980.0,square4,f,0.094,3,N,12.0
NS12,13.0,69.0,33.0,23.0,82.0,82.0,1062.0,square4,f,0.1074,3,N,12.0
NS12,14.0,66.0,35.0,20.0,81.0,81.0,1143.0,square4,f,0.0667,3,N,12.0
NS12,15.0,66.0,30.0,23.0,78.0,78.0,1221.0,square4,f,0.1176,3,N,12.0
NS12,16.0,69.0,28.0,17.0,74.0,74.0,1295.0,square4,f,0.1259,3,N,12.0
NS12,17.0,66.0,32.0,20.0,78.0,78.0,1373.0,square4,f,0.1426,3,N,12.0
NS12,18.0,60.0,33.0,26.0,76.0,76.0,1449.0,square4,f,0.1398,3,N,12.0
NS12,19.0,63.0,37.0,23.0,76.0,76.0,1525.0,square4,f,0.0781,3,N,12.0
NS12,20.0,59.0,36.0,24.0,78.0,78.0,1603.0,square4,f,0.0596,3,N,12.0
NS12,21.0,59.0,35.0,25.0,79.0,79.0,1682.0,square4,f,0.112,3,N,12.0
NS12,22.0,61.0,37.0,26.0,88.0,88.0,1770.0,square4,f,0.0923,3,N,12.0
NS12,23.0,61.0,37.0,25.0,83.0,83.0,1853.0,square4,f,0.1098,3,N,12.0
NS12,24.0,61.0,39.0,26.0,85.0,85.0,1938.0,square4,f,0.0957,3,N,12.0
NS12,25.0,63.0,30.0,29.0,77.0,77.0,2015.0,square4,f,0.1109,3,N,12.0
NS12,26.0,58.0,39.0,29.0,83.0,83.0,2098.0,square4,f,0.1371,3,N,12.0
NS12,27.0,60.0,34.0,32.0,85.0,85.0,2183.0,square4,f,0.1261,3,N,12.0
NS12,28.0,63.0,32.0,35.0,77.0,77.0,2260.0,square4,f,0.1327,3,N,12.0
NS12,29.0,61.0,35.0,23.0,79.0,79.0,2339.0,square4,f,0.1243,3,N,12.0
NS12,30.0,57.0,27.0,30.0,69.0,69.0,2408.0,square4,f,0.1393,3,N,12.0
NS12,31.0,64.0,29.0,26.0,69.0,69.0,2477.0,square4,f,0.0767,3,N,12.0
NS12,32.0,65.0,29.0,33.0,69.0,69.0,2546.0,square4,f,0.1427,3,N,12.0
NS12,33.0,68.0,29.0,33.0,73.0,73.0,2619.0,square4,f,0.1449,3,N,12.0
NS12,34.0,69.0,29.0,29.0,67.0,67.0,2686.0,square4,f,0.1273,3,N,12.0
NS12,35.0,66.0,32.0,30.0,61.0,61.0,2747.0,square4,f,0.0745,3,N,12.0
NS12,36.0,64.0,27.0,26.0,58.0,58.0,2805.0,square4,f,0.1259,3,N,12.0
NS12,37.0,65.0,32.0,27.0,67.0,67.0,2872.0,square4,f,0.1593,3,N,12.0
NS12,38.0,63.0,32.0,30.0,64.0,64.0,2936.0,square4,f,0.172,3,N,12.0
NS12,39.0,65.0,30.0,30.0,70.0,70.0,3006.0,square4,f,0.137,3,N,12.0
NS12,40.0,71.0,37.0,32.0,69.0,69.0,3075.0,square4,f,0.1112,3,N,12.0
NS12,41.0,66.0,45.0,37.0,69.0,69.0,3144.0,square4,f,0.1322,3,N,12.0
NS12,42.0,75.0,42.0,35.0,65.0,65.0,3209.0,square4,f,0.1447,3,N,12.0
NS12,43.0,82.0,39.0,35.0,57.0,57.0,3266.0,square4,f,0.0896,3,N,12.0
NS12,44.0,81.0,34.0,34.0,61.0,61.0,3327.0,square4,f,0.109,3,N,12.0
NS12,45.0,74.0,33.0,36.0,59.0,59.0,3386.0,square4,f,0.142,3,N,12.0
NS12,46.0,77.0,32.0,40.0,57.0,57.0,3443.0,square4,f,0.1431,3,N,12.0
NS12,47.0,79.0,32.0,39.0,60.0,60.0,3503.0,square4,f,0.0948,3,N,12.0
NS12,48.0,80.0,28.0,34.0,62.0,62.0,3565.0,square4,f,0.1062,3,N,12.0
NS12,49.0,76.0,23.0,37.0,64.0,23.0,3588.0,square2,r,0.2262,1,N,12.0
NS12,50.0,75.0,25.0,37.0,65.0,37.0,3625.0,square3,i,0.0934,2,N,12.0
NS12,51.0,74.0,25.0,39.0,70.0,74.0,3699.0,square1,j,0.1232,0,N,12.0
NS12,52.0,79.0,26.0,40.0,73.0,73.0,3772.0,square4,f,0.0954,3,N,12.0
NS12,53.0,75.0,25.0,33.0,69.0,75.0,3847.0,square1,j,0.1187,0,N,12.0
NS12,54.0,79.0,25.0,38.0,68.0,68.0,3915.0,square4,f,0.0047,3,N,12.0
NS12,55.0,81.0,22.0,34.0,68.0,68.0,3983.0,square4,f,0.0686,3,N,12.0
NS12,56.0,72.0,29.0,39.0,69.0,72.0,4055.0,square1,j,0.0757,0,N,12.0
NS12,57.0,72.0,28.0,38.0,73.0,72.0,4127.0,square1,j,0.0045,0,N,12.0
NS12,58.0,69.0,25.0,32.0,71.0,69.0,4196.0,square1,j,0.0742,0,N,12.0
NS12,59.0,75.0,30.0,33.0,69.0,75.0,4271.0,square1,j,0.0733,0,N,12.0
NS12,60.0,68.0,28.0,39.0,68.0,68.0,4339.0,square4,f,0.0614,3,N,12.0
NS12,61.0,69.0,32.0,37.0,60.0,69.0,4408.0,square1,j,0.0011,0,N,12.0
NS12,62.0,63.0,37.0,39.0,55.0,63.0,4471.0,square1,j,0.157,0,N,12.0
NS12,63.0,63.0,38.0,43.0,54.0,63.0,4534.0,square1,j,0.0012,0,N,12.0
NS12,64.0,60.0,30.0,35.0,55.0,55.0,4589.0,square4,f,0.0976,3,N,12.0
NS12,65.0,60.0,37.0,34.0,55.0,60.0,4649.0,square1,j,0.0406,0,N,12.0
NS12,66.0,61.0,40.0,35.0,51.0,61.0,4710.0,square1,j,0.1568,0,N,12.0
NS12,67.0,65.0,37.0,35.0,53.0,65.0,4775.0,square1,j,0.0063,0,N,12.0
NS12,68.0,62.0,33.0,38.0,50.0,62.0,4837.0,square1,j,0.0223,0,N,12.0
NS12,69.0,56.0,41.0,29.0,54.0,56.0,4893.0,square1,j,0.0517,0,N,12.0
NS12,70.0,56.0,39.0,30.0,57.0,56.0,4949.0,square1,j,0.0784,0,N,12.0
NS12,71.0,61.0,40.0,33.0,64.0,61.0,5010.0,square1,j,0.0616,0,N,12.0
NS12,72.0,51.0,42.0,35.0,67.0,51.0,5061.0,square1,j,0.0763,0,N,12.0
NS12,73.0,56.0,39.0,39.0,67.0,56.0,5117.0,square1,j,0.0397,0,N,12.0
NS12,74.0,50.0,38.0,40.0,63.0,63.0,5180.0,square4,f,0.1623,3,N,12.0
NS12,75.0,52.0,37.0,41.0,67.0,67.0,5247.0,square4,f,0.1062,3,N,12.0
NS12,76.0,47.0,40.0,46.0,67.0,67.0,5314.0,square4,f,0.1048,3,N,12.0
NS12,77.0,45.0,35.0,47.0,67.0,67.0,5381.0,square4,f,0.0852,3,N,12.0
NS12,78.0,44.0,38.0,52.0,66.0,66.0,5447.0,square4,f,0.1234,3,N,12.0
NS12,79.0,41.0,38.0,52.0,64.0,64.0,5511.0,square4,f,0.1135,3,N,12.0
NS12,80.0,36.0,41.0,57.0,58.0,58.0,5569.0,square4,f,0.107,3,N,12.0
NS12,81.0,36.0,42.0,66.0,63.0,63.0,5632.0,square4,f,0.1181,3,N,12.0
NS12,82.0,35.0,44.0,65.0,62.0,62.0,5694.0,square4,f,0.1061,3,N,12.0
NS12,83.0,37.0,42.0,70.0,65.0,65.0,5759.0,square4,f,0.0585,3,N,12.0
NS12,84.0,35.0,39.0,72.0,58.0,58.0,5817.0,square4,f,0.1115,3,N,12.0
NS12,85.0,30.0,40.0,62.0,55.0,55.0,5872.0,square4,f,0.0775,3,N,12.0
NS12,86.0,36.0,40.0,65.0,59.0,59.0,5931.0,square4,f,0.1735,3,N,12.0
NS12,87.0,31.0,41.0,67.0,57.0,57.0,5988.0,square4,f,0.1624,3,N,12.0
NS12,88.0,30.0,50.0,67.0,52.0,52.0,6040.0,square4,f,0.177,3,N,12.0
NS12,89.0,28.0,41.0,69.0,54.0,54.0,6094.0,square4,f,0.1581,3,N,12.0
NS12,90.0,29.0,41.0,61.0,57.0,57.0,6151.0,square4,f,0.1523,3,N,12.0
NS12,91.0,30.0,36.0,59.0,54.0,54.0,6205.0,square4,f,0.1596,3,N,12.0
NS12,92.0,28.0,29.0,60.0,54.0,54.0,6259.0,square4,f,0.1275,3,N,12.0
NS12,93.0,30.0,35.0,62.0,52.0,52.0,6311.0,square4,f,0.16,3,N,12.0
NS12,94.0,30.0,36.0,60.0,56.0,56.0,6367.0,square4,f,0.1426,3,N,12.0
NS12,95.0,29.0,33.0,63.0,60.0,60.0,6427.0,square4,f,0.1252,3,N,12.0
NS12,96.0,29.0,30.0,59.0,59.0,59.0,6486.0,square4,f,0.1232,3,N,12.0
NS12,97.0,31.0,35.0,61.0,61.0,61.0,6547.0,square4,f,0.1562,3,N,12.0
NS12,98.0,31.0,40.0,67.0,58.0,58.0,6605.0,square4,f,0.1461,3,N,12.0
NS12,99.0,33.0,37.0,65.0,67.0,67.0,6672.0,square4,f,0.2231,3,N,12.0
V2,0.0,33.0,24.0,43.0,18.0,18.0,18.0,square4,r,0.9528,3,V,2.0
V2,1.0,33.0,29.0,42.0,21.0,42.0,60.0,square3,f,0.001,2,V,2.0
V2,2.0,37.0,26.0,45.0,22.0,37.0,97.0,square1,i,0.1919,0,V,2.0
V2,3.0,39.0,26.0,41.0,20.0,26.0,123.0,square2,j,0.0512,1,V,2.0
V2,4.0,29.0,32.0,45.0,19.0,45.0,168.0,square3,f,0.0251,2,V,2.0
V2,5.0,33.0,28.0,44.0,17.0,44.0,212.0,square3,f,0.1333,2,V,2.0
V2,6.0,32.0,24.0,49.0,20.0,49.0,261.0,square3,f,0.0422,2,V,2.0
V2,7.0,32.0,21.0,42.0,13.0,42.0,303.0,square3,f,0.0019,2,V,2.0
V2,8.0,35.0,23.0,45.0,19.0,45.0,348.0,square3,f,0.0526,2,V,2.0
V2,9.0,33.0,28.0,46.0,17.0,46.0,394.0,square3,f,0.0566,2,V,2.0
V2,10.0,39.0,27.0,45.0,21.0,45.0,439.0,square3,f,0.0564,2,V,2.0
V2,11.0,30.0,23.0,44.0,22.0,44.0,483.0,square3,f,0.0482,2,V,2.0
V2,12.0,31.0,26.0,43.0,16.0,43.0,526.0,square3,f,0.081,2,V,2.0
V2,13.0,35.0,26.0,43.0,22.0,43.0,569.0,square3,f,0.1328,2,V,2.0
V2,14.0,35.0,29.0,46.0,19.0,46.0,615.0,square3,f,0.1399,2,V,2.0
V2,15.0,36.0,22.0,44.0,20.0,44.0,659.0,square3,f,0.0732,2,V,2.0
V2,16.0,33.0,27.0,45.0,19.0,45.0,704.0,square3,f,0.0679,2,V,2.0
V2,17.0,35.0,25.0,41.0,15.0,15.0,719.0,square4,r,0.1118,3,V,2.0
V2,18.0,37.0,27.0,51.0,21.0,37.0,756.0,square1,i,0.1348,0,V,2.0
V2,19.0,33.0,25.0,43.0,18.0,25.0,781.0,square2,j,0.1927,1,V,2.0
V2,20.0,39.0,25.0,43.0,20.0,43.0,824.0,square3,f,0.0028,2,V,2.0
V2,21.0,27.0,32.0,43.0,24.0,43.0,867.0,square3,f,0.1006,2,V,2.0
V2,22.0,35.0,27.0,50.0,13.0,50.0,917.0,square3,f,0.0735,2,V,2.0
V2,23.0,36.0,25.0,39.0,17.0,39.0,956.0,square3,f,0.11,2,V,2.0
V2,24.0,32.0,45.0,39.0,59.0,39.0,995.0,square3,f,0.1111,2,V,2.0
V2,25.0,26.0,43.0,37.0,55.0,37.0,1032.0,square3,f,0.0927,2,V,2.0
V2,26.0,23.0,45.0,39.0,58.0,23.0,1055.0,square1,i,0.0062,0,V,2.0
V2,27.0,30.0,44.0,40.0,56.0,56.0,1111.0,square4,r,0.0024,3,V,2.0
V2,28.0,34.0,48.0,41.0,54.0,54.0,1165.0,square4,r,0.1825,3,V,2.0
V2,29.0,29.0,42.0,35.0,54.0,42.0,1207.0,square2,j,0.001,1,V,2.0
V2,30.0,22.0,39.0,39.0,55.0,55.0,1262.0,square4,r,0.0059,3,V,2.0
V2,31.0,32.0,48.0,35.0,50.0,50.0,1312.0,square4,r,0.0123,3,V,2.0
V2,32.0,27.0,47.0,40.0,58.0,58.0,1370.0,square4,r,0.0516,3,V,2.0
V2,33.0,28.0,46.0,31.0,54.0,54.0,1424.0,square4,r,0.09,3,V,2.0
V2,34.0,28.0,44.0,41.0,49.0,49.0,1473.0,square4,r,0.0785,3,V,2.0
V2,35.0,31.0,44.0,33.0,59.0,59.0,1532.0,square4,r,0.079,3,V,2.0
V2,36.0,29.0,48.0,30.0,55.0,55.0,1587.0,square4,r,0.1098,3,V,2.0
V2,37.0,25.0,45.0,32.0,51.0,51.0,1638.0,square4,r,0.1355,3,V,2.0
V2,38.0,29.0,48.0,33.0,54.0,54.0,1692.0,square4,r,0.1761,3,V,2.0
V2,39.0,29.0,44.0,33.0,54.0,54.0,1746.0,square4,r,0.1764,3,V,2.0
V2,40.0,33.0,42.0,37.0,61.0,61.0,1807.0,square4,r,0.094,3,V,2.0
V2,41.0,28.0,45.0,41.0,57.0,57.0,1864.0,square4,r,0.1424,3,V,2.0
V2,42.0,33.0,46.0,36.0,54.0,54.0,1918.0,square4,r,0.1437,3,V,2.0
V2,43.0,31.0,42.0,40.0,57.0,57.0,1975.0,square4,r,0.0955,3,V,2.0
V2,44.0,27.0,45.0,38.0,56.0,56.0,2031.0,square4,r,0.1207,3,V,2.0
V2,45.0,27.0,44.0,32.0,51.0,51.0,2082.0,square4,r,0.1223,3,V,2.0
V2,46.0,28.0,44.0,39.0,57.0,57.0,2139.0,square4,r,0.1604,3,V,2.0
V2,47.0,30.0,45.0,36.0,56.0,56.0,2195.0,square4,r,0.1297,3,V,2.0
V2,48.0,31.0,47.0,41.0,59.0,59.0,2254.0,square4,r,0.1066,3,V,2.0
V2,49.0,32.0,45.0,33.0,57.0,57.0,2311.0,square4,r,0.1362,3,V,2.0
V2,50.0,24.0,38.0,36.0,52.0,52.0,2363.0,square4,r,0.1062,3,V,2.0
V2,51.0,29.0,48.0,34.0,54.0,54.0,2417.0,square4,r,0.1568,3,V,2.0
V2,52.0,30.0,50.0,38.0,56.0,56.0,2473.0,square4,r,0.1539,3,V,2.0
V2,53.0,27.0,47.0,33.0,55.0,55.0,2528.0,square4,r,0.143,3,V,2.0
V2,54.0,34.0,21.0,45.0,25.0,25.0,2553.0,square4,r,0.1425,3,V,2.0
V2,55.0,36.0,19.0,39.0,24.0,19.0,2572.0,square2,j,0.1359,1,V,2.0
V2,56.0,29.0,19.0,45.0,18.0,29.0,2601.0,square1,i,0.4267,0,V,2.0
V2,57.0,29.0,20.0,39.0,20.0,39.0,2640.0,square3,f,0.0011,2,V,2.0
V2,58.0,40.0,18.0,42.0,21.0,42.0,2682.0,square3,f,0.0743,2,V,2.0
V2,59.0,31.0,17.0,44.0,23.0,44.0,2726.0,square3,f,0.0903,2,V,2.0
V2,60.0,31.0,19.0,42.0,20.0,42.0,2768.0,square3,f,0.0993,2,V,2.0
V2,61.0,34.0,16.0,41.0,25.0,41.0,2809.0,square3,f,0.1399,2,V,2.0
V2,62.0,28.0,12.0,41.0,22.0,41.0,2850.0,square3,f,0.124,2,V,2.0
V2,63.0,32.0,14.0,45.0,26.0,45.0,2895.0,square3,f,0.1266,2,V,2.0
V2,64.0,36.0,21.0,41.0,25.0,41.0,2936.0,square3,f,0.1556,2,V,2.0
V2,65.0,32.0,13.0,39.0,24.0,39.0,2975.0,square3,f,0.1097,2,V,2.0
V2,66.0,35.0,15.0,42.0,20.0,42.0,3017.0,square3,f,0.1925,2,V,2.0
V2,67.0,30.0,23.0,47.0,27.0,47.0,3064.0,square3,f,0.001,2,V,2.0
V2,68.0,31.0,17.0,43.0,24.0,43.0,3107.0,square3,f,0.168,2,V,2.0
V2,69.0,33.0,20.0,41.0,20.0,41.0,3148.0,square3,f,0.235,2,V,2.0
V2,70.0,37.0,17.0,43.0,21.0,43.0,3191.0,square3,f,0.2095,2,V,2.0
V2,71.0,45.0,31.0,36.0,58.0,36.0,3227.0,square3,f,0.1329,2,V,2.0
V2,72.0,47.0,31.0,31.0,54.0,54.0,3281.0,square4,r,0.228,3,V,2.0
V2,73.0,50.0,30.0,33.0,55.0,55.0,3336.0,square4,r,0.0011,3,V,2.0
V2,74.0,45.0,31.0,36.0,51.0,51.0,3387.0,square4,r,0.0595,3,V,2.0
V2,75.0,47.0,28.0,38.0,54.0,54.0,3441.0,square4,r,0.1066,3,V,2.0
V2,76.0,52.0,33.0,35.0,60.0,52.0,3493.0,square1,i,0.1291,0,V,2.0
V2,77.0,41.0,29.0,37.0,53.0,29.0,3522.0,square2,j,0.1495,1,V,2.0
V2,78.0,51.0,24.0,34.0,56.0,56.0,3578.0,square4,r,0.0404,3,V,2.0
V2,79.0,41.0,34.0,36.0,52.0,41.0,3619.0,square1,i,0.0752,0,V,2.0
V2,80.0,48.0,31.0,37.0,51.0,51.0,3670.0,square4,r,0.1729,3,V,2.0
V2,81.0,43.0,32.0,40.0,53.0,53.0,3723.0,square4,r,0.0677,3,V,2.0
V2,82.0,48.0,25.0,37.0,58.0,58.0,3781.0,square4,r,0.0857,3,V,2.0
V2,83.0,45.0,32.0,36.0,61.0,61.0,3842.0,square4,r,0.1261,3,V,2.0
V2,84.0,47.0,29.0,39.0,60.0,60.0,3902.0,square4,r,0.1395,3,V,2.0
V2,85.0,49.0,30.0,39.0,54.0,54.0,3956.0,square4,r,0.1279,3,V,2.0
V2,86.0,46.0,28.0,33.0,51.0,51.0,4007.0,square4,r,0.1622,3,V,2.0
V2,87.0,45.0,24.0,37.0,55.0,55.0,4062.0,square4,r,0.173,3,V,2.0
V2,88.0,48.0,29.0,42.0,54.0,54.0,4116.0,square4,r,0.1375,3,V,2.0
V2,89.0,43.0,31.0,38.0,52.0,52.0,4168.0,square4,r,0.1598,3,V,2.0
V2,90.0,51.0,33.0,36.0,56.0,56.0,4224.0,square4,r,0.1453,3,V,2.0
V2,91.0,49.0,32.0,37.0,59.0,59.0,4283.0,square4,r,0.2226,3,V,2.0
V2,92.0,47.0,29.0,37.0,56.0,56.0,4339.0,square4,r,0.2095,3,V,2.0
V2,93.0,45.0,27.0,35.0,56.0,56.0,4395.0,square4,r,0.1604,3,V,2.0
V2,94.0,45.0,31.0,31.0,49.0,49.0,4444.0,square4,r,0.176,3,V,2.0
V2,95.0,47.0,33.0,36.0,52.0,52.0,4496.0,square4,r,0.0008,3,V,2.0
V2,96.0,44.0,28.0,37.0,59.0,59.0,4555.0,square4,r,0.1785,3,V,2.0
V2,97.0,48.0,28.0,33.0,55.0,55.0,4610.0,square4,r,0.0011,3,V,2.0
V2,98.0,49.0,29.0,39.0,60.0,60.0,4670.0,square4,r,0.2066,3,V,2.0
V2,99.0,44.0,30.0,36.0,50.0,50.0,4720.0,square4,r,0.4929,3,V,2.0
V4,0.0,63.0,38.0,47.0,55.0,47.0,47.0,square3,r,0.7727,2,V,4.0
V4,1.0,66.0,42.0,43.0,59.0,42.0,89.0,square2,i,0.1232,1,V,4.0
V4,2.0,66.0,39.0,57.0,59.0,66.0,155.0,square1,f,0.7483,0,V,4.0
V4,3.0,66.0,37.0,51.0,59.0,59.0,214.0,square4,j,0.1558,3,V,4.0
V4,4.0,69.0,37.0,50.0,55.0,69.0,283.0,square1,f,0.0813,0,V,4.0
V4,5.0,64.0,44.0,46.0,62.0,64.0,347.0,square1,f,0.1056,0,V,4.0
V4,6.0,75.0,43.0,49.0,57.0,75.0,422.0,square1,f,0.2941,0,V,4.0
V4,7.0,62.0,41.0,52.0,59.0,62.0,484.0,square1,f,0.0239,0,V,4.0
V4,8.0,65.0,41.0,44.0,60.0,65.0,549.0,square1,f,0.0332,0,V,4.0
V4,9.0,68.0,35.0,44.0,64.0,68.0,617.0,square1,f,0.0972,0,V,4.0
V4,10.0,67.0,44.0,48.0,61.0,67.0,684.0,square1,f,0.1141,0,V,4.0
V4,11.0,61.0,40.0,48.0,56.0,61.0,745.0,square1,f,0.0721,0,V,4.0
V4,12.0,68.0,41.0,49.0,55.0,68.0,813.0,square1,f,0.0901,0,V,4.0
V4,13.0,63.0,42.0,47.0,60.0,63.0,876.0,square1,f,0.1398,0,V,4.0
V4,14.0,63.0,40.0,51.0,55.0,63.0,939.0,square1,f,0.0887,0,V,4.0
V4,15.0,62.0,41.0,52.0,62.0,62.0,1001.0,square1,f,0.1893,0,V,4.0
V4,16.0,69.0,37.0,47.0,60.0,69.0,1070.0,square1,f,0.14,0,V,4.0
V4,17.0,66.0,40.0,48.0,56.0,66.0,1136.0,square1,f,0.0259,0,V,4.0
V4,18.0,67.0,43.0,47.0,59.0,67.0,1203.0,square1,f,0.0399,0,V,4.0
V4,19.0,64.0,42.0,51.0,59.0,64.0,1267.0,square1,f,0.1403,0,V,4.0
V4,20.0,67.0,40.0,47.0,58.0,67.0,1334.0,square1,f,0.1062,0,V,4.0
V4,21.0,60.0,41.0,50.0,59.0,60.0,1394.0,square1,f,0.152,0,V,4.0
V4,22.0,66.0,43.0,54.0,55.0,66.0,1460.0,square1,f,0.173,0,V,4.0
V4,23.0,67.0,37.0,50.0,62.0,67.0,1527.0,square1,f,0.1353,0,V,4.0
V4,24.0,67.0,37.0,49.0,60.0,67.0,1594.0,square1,f,0.168,0,V,4.0
V4,25.0,67.0,39.0,55.0,52.0,67.0,1661.0,square1,f,0.1227,0,V,4.0
V4,26.0,64.0,39.0,51.0,63.0,64.0,1725.0,square1,f,0.1844,0,V,4.0
V4,27.0,68.0,36.0,55.0,60.0,68.0,1793.0,square1,f,0.2015,0,V,4.0
V4,28.0,67.0,40.0,46.0,54.0,67.0,1860.0,square1,f,0.2232,0,V,4.0
V4,29.0,67.0,41.0,50.0,57.0,67.0,1927.0,square1,f,0.1252,0,V,4.0
V4,30.0,66.0,39.0,49.0,53.0,66.0,1993.0,square1,f,0.1154,0,V,4.0
V4,31.0,70.0,38.0,48.0,58.0,70.0,2063.0,square1,f,0.176,0,V,4.0
V4,32.0,63.0,40.0,53.0,61.0,63.0,2126.0,square1,f,0.2099,0,V,4.0
V4,33.0,66.0,41.0,51.0,56.0,66.0,2192.0,square1,f,0.1703,0,V,4.0
V4,34.0,64.0,39.0,46.0,57.0,64.0,2256.0,square1,f,0.1763,0,V,4.0
V4,35.0,69.0,36.0,50.0,58.0,69.0,2325.0,square1,f,0.1241,0,V,4.0
V4,36.0,60.0,43.0,53.0,54.0,60.0,2385.0,square1,f,0.1576,0,V,4.0
V4,37.0,52.0,78.0,68.0,66.0,52.0,2437.0,square1,f,0.1924,0,V,4.0
V4,38.0,44.0,81.0,68.0,62.0,44.0,2481.0,square1,f,0.1568,0,V,4.0
V4,39.0,59.0,71.0,70.0,63.0,70.0,2551.0,square3,r,0.1566,2,V,4.0
V4,40.0,53.0,77.0,73.0,59.0,77.0,2628.0,square2,i,0.0895,1,V,4.0
V4,41.0,53.0,76.0,74.0,66.0,66.0,2694.0,square4,j,0.1449,3,V,4.0
V4,42.0,51.0,79.0,73.0,59.0,79.0,2773.0,square2,i,0.0498,1,V,4.0
V4,43.0,48.0,76.0,68.0,65.0,76.0,2849.0,square2,i,0.0899,1,V,4.0
V4,44.0,57.0,83.0,78.0,63.0,83.0,2932.0,square2,i,0.0733,1,V,4.0
V4,45.0,54.0,74.0,69.0,61.0,74.0,3006.0,square2,i,0.1061,1,V,4.0
V4,46.0,53.0,85.0,66.0,62.0,85.0,3091.0,square2,i,0.1351,1,V,4.0
V4,47.0,56.0,83.0,68.0,57.0,83.0,3174.0,square2,i,0.202,1,V,4.0
V4,48.0,49.0,74.0,73.0,59.0,74.0,3248.0,square2,i,0.1397,1,V,4.0
V4,49.0,54.0,74.0,70.0,60.0,74.0,3322.0,square2,i,0.1267,1,V,4.0
V4,50.0,47.0,83.0,69.0,60.0,83.0,3405.0,square2,i,0.1596,1,V,4.0
V4,51.0,54.0,78.0,73.0,56.0,78.0,3483.0,square2,i,0.1898,1,V,4.0
V4,52.0,52.0,76.0,71.0,58.0,76.0,3559.0,square2,i,0.141,1,V,4.0
V4,53.0,51.0,82.0,76.0,63.0,82.0,3641.0,square2,i,0.1622,1,V,4.0
V4,54.0,57.0,76.0,69.0,64.0,76.0,3717.0,square2,i,0.0251,1,V,4.0
V4,55.0,49.0,75.0,68.0,59.0,75.0,3792.0,square2,i,0.1399,1,V,4.0
V4,56.0,55.0,81.0,66.0,65.0,81.0,3873.0,square2,i,0.1892,1,V,4.0
V4,57.0,58.0,80.0,72.0,63.0,80.0,3953.0,square2,i,0.0009,1,V,4.0
V4,58.0,49.0,81.0,66.0,62.0,81.0,4034.0,square2,i,0.0011,1,V,4.0
V4,59.0,57.0,78.0,73.0,59.0,78.0,4112.0,square2,i,0.1775,1,V,4.0
V4,60.0,48.0,79.0,66.0,59.0,79.0,4191.0,square2,i,0.0257,1,V,4.0
V4,61.0,53.0,80.0,72.0,60.0,80.0,4271.0,square2,i,0.0111,1,V,4.0
V4,62.0,53.0,79.0,70.0,61.0,79.0,4350.0,square2,i,0.0011,1,V,4.0
V4,63.0,81.0,66.0,90.0,66.0,66.0,4416.0,square2,i,0.023,1,V,4.0
V4,64.0,80.0,64.0,85.0,76.0,64.0,4480.0,square2,i,0.04,1,V,4.0
V4,65.0,77.0,61.0,92.0,74.0,61.0,4541.0,square2,i,0.0009,1,V,4.0
V4,66.0,89.0,65.0,91.0,73.0,91.0,4632.0,square3,r,0.6399,2,V,4.0
V4,67.0,86.0,64.0,92.0,70.0,92.0,4724.0,square3,r,0.0897,2,V,4.0
V4,68.0,82.0,60.0,91.0,77.0,91.0,4815.0,square3,r,0.1523,2,V,4.0
V4,69.0,78.0,69.0,90.0,70.0,90.0,4905.0,square3,r,0.0234,2,V,4.0
V4,70.0,85.0,64.0,95.0,73.0,95.0,5000.0,square3,r,0.0022,2,V,4.0
V4,71.0,85.0,61.0,88.0,69.0,88.0,5088.0,square3,r,0.0393,2,V,4.0
V4,72.0,86.0,63.0,87.0,75.0,87.0,5175.0,square3,r,0.0115,2,V,4.0
V4,73.0,86.0,69.0,92.0,70.0,92.0,5267.0,square3,r,0.0401,2,V,4.0
V4,74.0,81.0,62.0,90.0,69.0,90.0,5357.0,square3,r,0.0431,2,V,4.0
V4,75.0,83.0,66.0,88.0,74.0,88.0,5445.0,square3,r,0.0229,2,V,4.0
V4,76.0,80.0,64.0,92.0,75.0,92.0,5537.0,square3,r,0.0244,2,V,4.0
V4,77.0,81.0,65.0,91.0,74.0,74.0,5611.0,square4,j,0.1231,3,V,4.0
V4,78.0,78.0,70.0,89.0,73.0,89.0,5700.0,square3,r,0.001,2,V,4.0
V4,79.0,84.0,66.0,85.0,75.0,84.0,5784.0,square1,f,0.1224,0,V,4.0
V4,80.0,83.0,65.0,93.0,74.0,93.0,5877.0,square3,r,0.0738,2,V,4.0
V4,81.0,86.0,59.0,91.0,74.0,91.0,5968.0,square3,r,0.11,2,V,4.0
V4,82.0,87.0,64.0,92.0,73.0,92.0,6060.0,square3,r,0.1236,2,V,4.0
V4,83.0,83.0,68.0,86.0,70.0,86.0,6146.0,square3,r,0.1228,2,V,4.0
V4,84.0,82.0,62.0,87.0,73.0,87.0,6233.0,square3,r,0.1397,2,V,4.0
V4,85.0,85.0,61.0,90.0,70.0,90.0,6323.0,square3,r,0.1021,2,V,4.0
V4,86.0,84.0,66.0,97.0,71.0,97.0,6420.0,square3,r,0.0851,2,V,4.0
V4,87.0,82.0,64.0,87.0,71.0,87.0,6507.0,square3,r,0.0593,2,V,4.0
V4,88.0,80.0,67.0,93.0,72.0,93.0,6600.0,square3,r,0.0653,2,V,4.0
V4,89.0,78.0,64.0,92.0,75.0,92.0,6692.0,square3,r,0.1213,2,V,4.0
V4,90.0,75.0,66.0,88.0,72.0,88.0,6780.0,square3,r,0.1375,2,V,4.0
V4,91.0,82.0,59.0,91.0,76.0,91.0,6871.0,square3,r,0.1735,2,V,4.0
V4,92.0,84.0,62.0,91.0,70.0,91.0,6962.0,square3,r,0.1021,2,V,4.0
V4,93.0,80.0,61.0,94.0,76.0,94.0,7056.0,square3,r,0.1231,2,V,4.0
V4,94.0,83.0,64.0,88.0,72.0,88.0,7144.0,square3,r,0.1123,2,V,4.0
V4,95.0,82.0,60.0,94.0,69.0,94.0,7238.0,square3,r,0.1062,2,V,4.0
V4,96.0,84.0,63.0,92.0,72.0,92.0,7330.0,square3,r,0.1066,2,V,4.0
V4,97.0,84.0,62.0,85.0,70.0,85.0,7415.0,square3,r,0.1393,2,V,4.0
V4,98.0,81.0,64.0,93.0,72.0,93.0,7508.0,square3,r,0.1803,2,V,4.0
V4,99.0,80.0,61.0,92.0,75.0,92.0,7600.0,square3,r,0.1497,2,V,4.0
V5,0.0,46.0,21.0,37.0,28.0,21.0,21.0,square2,r,0.7353,1,V,5.0
V5,1.0,43.0,27.0,36.0,31.0,43.0,64.0,square1,i,0.1166,0,V,5.0
V5,2.0,50.0,18.0,43.0,32.0,43.0,107.0,square3,j,0.0059,2,V,5.0
V5,3.0,53.0,23.0,36.0,34.0,34.0,141.0,square4,f,1.2449,3,V,5.0
V5,4.0,52.0,19.0,38.0,34.0,52.0,193.0,square1,i,0.0598,0,V,5.0
V5,5.0,50.0,22.0,41.0,29.0,22.0,215.0,square2,r,0.0981,1,V,5.0
V5,6.0,52.0,19.0,40.0,33.0,40.0,255.0,square3,j,0.0999,2,V,5.0
V5,7.0,48.0,24.0,36.0,27.0,27.0,282.0,square4,f,0.001,3,V,5.0
V5,8.0,50.0,24.0,35.0,33.0,50.0,332.0,square1,i,0.1021,0,V,5.0
V5,9.0,48.0,25.0,39.0,34.0,48.0,380.0,square1,i,0.0903,0,V,5.0
V5,10.0,52.0,19.0,32.0,34.0,52.0,432.0,square1,i,0.1392,0,V,5.0
V5,11.0,48.0,22.0,32.0,32.0,48.0,480.0,square1,i,0.1232,0,V,5.0
V5,12.0,47.0,17.0,43.0,29.0,17.0,497.0,square2,r,0.0432,1,V,5.0
V5,13.0,46.0,21.0,42.0,29.0,42.0,539.0,square3,j,0.089,2,V,5.0
V5,14.0,47.0,28.0,42.0,28.0,28.0,567.0,square4,f,1.0401,3,V,5.0
V5,15.0,50.0,29.0,38.0,36.0,50.0,617.0,square1,i,0.0685,0,V,5.0
V5,16.0,49.0,24.0,36.0,34.0,49.0,666.0,square1,i,0.0948,0,V,5.0
V5,17.0,50.0,20.0,38.0,35.0,50.0,716.0,square1,i,0.1592,0,V,5.0
V5,18.0,49.0,22.0,46.0,29.0,49.0,765.0,square1,i,0.1516,0,V,5.0
V5,19.0,46.0,23.0,40.0,31.0,46.0,811.0,square1,i,0.1594,0,V,5.0
V5,20.0,51.0,22.0,41.0,28.0,51.0,862.0,square1,i,0.001,0,V,5.0
V5,21.0,51.0,26.0,36.0,31.0,51.0,913.0,square1,i,0.1933,0,V,5.0
V5,22.0,47.0,18.0,41.0,28.0,47.0,960.0,square1,i,0.0089,0,V,5.0
V5,23.0,52.0,20.0,36.0,29.0,52.0,1012.0,square1,i,0.207,0,V,5.0
V5,24.0,51.0,21.0,41.0,34.0,51.0,1063.0,square1,i,0.0077,0,V,5.0
V5,25.0,50.0,20.0,41.0,27.0,50.0,1113.0,square1,i,0.0023,0,V,5.0
V5,26.0,49.0,29.0,37.0,28.0,49.0,1162.0,square1,i,0.0268,0,V,5.0
V5,27.0,10.0,13.0,42.0,32.0,10.0,1172.0,square1,i,0.0229,0,V,5.0
V5,28.0,9.0,19.0,40.0,27.0,40.0,1212.0,square3,j,0.4395,2,V,5.0
V5,29.0,17.0,17.0,38.0,29.0,29.0,1241.0,square4,f,0.101,3,V,5.0
V5,30.0,8.0,18.0,36.0,29.0,18.0,1259.0,square2,r,0.1584,1,V,5.0
V5,31.0,16.0,24.0,34.0,29.0,34.0,1293.0,square3,j,0.018,2,V,5.0
V5,32.0,9.0,17.0,35.0,31.0,35.0,1328.0,square3,j,0.1397,2,V,5.0
V5,33.0,11.0,19.0,36.0,28.0,36.0,1364.0,square3,j,0.1424,2,V,5.0
V5,34.0,10.0,19.0,38.0,28.0,38.0,1402.0,square3,j,0.0009,2,V,5.0
V5,35.0,5.0,23.0,40.0,34.0,40.0,1442.0,square3,j,0.0009,2,V,5.0
V5,36.0,17.0,20.0,36.0,31.0,36.0,1478.0,square3,j,0.0229,2,V,5.0
V5,37.0,12.0,13.0,36.0,30.0,36.0,1514.0,square3,j,0.0009,2,V,5.0
V5,38.0,14.0,24.0,35.0,27.0,35.0,1549.0,square3,j,0.0553,2,V,5.0
V5,39.0,13.0,20.0,39.0,32.0,39.0,1588.0,square3,j,0.0397,2,V,5.0
V5,40.0,9.0,15.0,37.0,24.0,37.0,1625.0,square3,j,0.0104,2,V,5.0
V5,41.0,9.0,14.0,38.0,31.0,31.0,1656.0,square4,f,0.2064,3,V,5.0
V5,42.0,14.0,17.0,43.0,31.0,17.0,1673.0,square2,r,0.1567,1,V,5.0
V5,43.0,10.0,18.0,39.0,23.0,10.0,1683.0,square1,i,0.0928,0,V,5.0
V5,44.0,10.0,20.0,33.0,32.0,33.0,1716.0,square3,j,0.043,2,V,5.0
V5,45.0,16.0,17.0,37.0,29.0,37.0,1753.0,square3,j,0.1397,2,V,5.0
V5,46.0,9.0,22.0,37.0,25.0,37.0,1790.0,square3,j,0.0568,2,V,5.0
V5,47.0,10.0,22.0,35.0,26.0,35.0,1825.0,square3,j,0.0071,2,V,5.0
V5,48.0,11.0,16.0,39.0,23.0,39.0,1864.0,square3,j,0.1112,2,V,5.0
V5,49.0,13.0,16.0,33.0,27.0,33.0,1897.0,square3,j,0.1392,2,V,5.0
V5,50.0,12.0,16.0,39.0,24.0,39.0,1936.0,square3,j,0.1397,2,V,5.0
V5,51.0,10.0,21.0,43.0,28.0,43.0,1979.0,square3,j,0.0346,2,V,5.0
V5,52.0,8.0,15.0,36.0,28.0,36.0,2015.0,square3,j,0.112,2,V,5.0
V5,53.0,38.0,20.0,31.0,54.0,31.0,2046.0,square3,j,0.0564,2,V,5.0
V5,54.0,39.0,20.0,35.0,51.0,35.0,2081.0,square3,j,0.0104,2,V,5.0
V5,55.0,41.0,21.0,27.0,50.0,27.0,2108.0,square3,j,0.0276,2,V,5.0
V5,56.0,39.0,23.0,28.0,49.0,49.0,2157.0,square4,f,0.0622,3,V,5.0
V5,57.0,36.0,28.0,29.0,59.0,28.0,2185.0,square2,r,0.1411,1,V,5.0
V5,58.0,38.0,22.0,28.0,49.0,38.0,2223.0,square1,i,0.1233,0,V,5.0
V5,59.0,44.0,23.0,30.0,51.0,51.0,2274.0,square4,f,0.0011,3,V,5.0
V5,60.0,43.0,21.0,31.0,48.0,48.0,2322.0,square4,f,0.1893,3,V,5.0
V5,61.0,39.0,24.0,35.0,50.0,50.0,2372.0,square4,f,0.1834,3,V,5.0
V5,62.0,38.0,25.0,31.0,52.0,52.0,2424.0,square4,f,0.0826,3,V,5.0
V5,63.0,41.0,14.0,31.0,52.0,52.0,2476.0,square4,f,0.1228,3,V,5.0
V5,64.0,43.0,23.0,30.0,51.0,51.0,2527.0,square4,f,0.1068,3,V,5.0
V5,65.0,41.0,23.0,35.0,52.0,52.0,2579.0,square4,f,0.1765,3,V,5.0
V5,66.0,41.0,17.0,33.0,47.0,47.0,2626.0,square4,f,0.1901,3,V,5.0
V5,67.0,44.0,23.0,32.0,49.0,49.0,2675.0,square4,f,0.1909,3,V,5.0
V5,68.0,44.0,24.0,31.0,44.0,44.0,2719.0,square4,f,0.1562,3,V,5.0
V5,69.0,43.0,28.0,27.0,48.0,48.0,2767.0,square4,f,0.1566,3,V,5.0
V5,70.0,38.0,22.0,26.0,50.0,50.0,2817.0,square4,f,0.1552,3,V,5.0
V5,71.0,41.0,29.0,26.0,53.0,53.0,2870.0,square4,f,0.223,3,V,5.0
V5,72.0,40.0,20.0,28.0,51.0,51.0,2921.0,square4,f,0.2007,3,V,5.0
V5,73.0,59.0,44.0,51.0,35.0,35.0,2956.0,square4,f,0.1448,3,V,5.0
V5,74.0,60.0,38.0,55.0,43.0,38.0,2994.0,square2,r,0.2678,1,V,5.0
V5,75.0,63.0,45.0,50.0,37.0,63.0,3057.0,square1,i,0.0563,0,V,5.0
V5,76.0,62.0,42.0,50.0,37.0,50.0,3107.0,square3,j,0.5067,2,V,5.0
V5,77.0,57.0,37.0,52.0,35.0,57.0,3164.0,square1,i,0.163,0,V,5.0
V5,78.0,66.0,45.0,54.0,37.0,66.0,3230.0,square1,i,0.1397,0,V,5.0
V5,79.0,64.0,37.0,48.0,35.0,64.0,3294.0,square1,i,0.1732,0,V,5.0
V5,80.0,63.0,40.0,56.0,38.0,63.0,3357.0,square1,i,0.0011,0,V,5.0
V5,81.0,62.0,41.0,54.0,32.0,62.0,3419.0,square1,i,0.023,0,V,5.0
V5,82.0,58.0,41.0,59.0,39.0,58.0,3477.0,square1,i,0.2,0,V,5.0
V5,83.0,66.0,46.0,54.0,35.0,66.0,3543.0,square1,i,0.1231,0,V,5.0
V5,84.0,67.0,44.0,52.0,33.0,67.0,3610.0,square1,i,0.1561,0,V,5.0
V5,85.0,67.0,45.0,46.0,36.0,67.0,3677.0,square1,i,0.0747,0,V,5.0
V5,86.0,65.0,44.0,51.0,38.0,65.0,3742.0,square1,i,0.04,0,V,5.0
V5,87.0,64.0,49.0,48.0,35.0,64.0,3806.0,square1,i,0.0568,0,V,5.0
V5,88.0,68.0,47.0,56.0,36.0,68.0,3874.0,square1,i,0.0572,0,V,5.0
V5,89.0,60.0,42.0,57.0,32.0,60.0,3934.0,square1,i,0.0444,0,V,5.0
V5,90.0,59.0,43.0,53.0,34.0,59.0,3993.0,square1,i,0.0517,0,V,5.0
V5,91.0,64.0,43.0,51.0,34.0,64.0,4057.0,square1,i,0.0094,0,V,5.0
V5,92.0,65.0,41.0,57.0,38.0,65.0,4122.0,square1,i,0.0707,0,V,5.0
V5,93.0,59.0,48.0,54.0,40.0,59.0,4181.0,square1,i,0.0745,0,V,5.0
V5,94.0,66.0,44.0,53.0,43.0,66.0,4247.0,square1,i,0.0736,0,V,5.0
V5,95.0,63.0,43.0,50.0,40.0,63.0,4310.0,square1,i,0.0608,0,V,5.0
V5,96.0,62.0,44.0,50.0,33.0,62.0,4372.0,square1,i,0.0617,0,V,5.0
V5,97.0,64.0,49.0,55.0,37.0,64.0,4436.0,square1,i,0.0906,0,V,5.0
V5,98.0,65.0,44.0,53.0,36.0,65.0,4501.0,square1,i,0.0584,0,V,5.0
V5,99.0,65.0,42.0,55.0,35.0,65.0,4566.0,square1,i,0.0924,0,V,5.0
