block,Trial,square1,square2,square3,square4,currPoints,totalPoints,square,choiceKey.keys,choiceKey.rt,armNum,blockType,blockNum
prac,0.0,100.0,0.0,0.0,0.0,0,0.0,square3,,,2,p,0.0
prac,1.0,100.0,0.0,0.0,0.0,100,100.0,square1,,,0,p,0.0
prac,2.0,100.0,0.0,0.0,0.0,0,100.0,square4,,,3,p,0.0
prac,3.0,100.0,0.0,0.0,0.0,0,100.0,square3,,,2,p,0.0
prac,4.0,100.0,0.0,0.0,0.0,0,100.0,square2,,,1,p,0.0
prac,5.0,100.0,0.0,0.0,0.0,100,200.0,square1,,,0,p,0.0
prac,6.0,100.0,0.0,0.0,0.0,100,300.0,square1,,,0,p,0.0
prac,7.0,100.0,0.0,0.0,0.0,100,400.0,square1,,,0,p,0.0
prac,8.0,100.0,0.0,0.0,0.0,100,500.0,square1,,,0,p,0.0
prac,9.0,100.0,0.0,0.0,0.0,0,500.0,square4,,,3,p,0.0
NS7,0.0,26.0,62.0,36.0,41.0,36,36.0,square3,f,0.88,2,N,7.0
NS7,1.0,31.0,61.0,40.0,42.0,61,97.0,square2,j,0.113,1,N,7.0
NS7,2.0,30.0,60.0,46.0,41.0,41,138.0,square4,r,0.652,3,N,7.0
NS7,3.0,27.0,57.0,46.0,39.0,46,184.0,square3,f,0.543,2,N,7.0
NS7,4.0,20.0,58.0,45.0,39.0,20,204.0,square1,i,0.38,0,N,7.0
NS7,5.0,29.0,57.0,46.0,42.0,57,261.0,square2,j,0.582,1,N,7.0
NS7,6.0,28.0,61.0,44.0,40.0,61,322.0,square2,j,0.398,1,N,7.0
NS7,7.0,24.0,56.0,46.0,40.0,46,368.0,square3,f,0.683,2,N,7.0
NS7,8.0,25.0,66.0,45.0,36.0,36,404.0,square4,r,0.277,3,N,7.0
NS7,9.0,27.0,65.0,46.0,40.0,65,469.0,square2,j,0.281,1,N,7.0
NS7,10.0,27.0,65.0,41.0,46.0,27,496.0,square1,i,0.248,0,N,7.0
NS7,11.0,26.0,58.0,40.0,51.0,26,522.0,square1,i,0.252,0,N,7.0
NS7,12.0,19.0,64.0,43.0,57.0,64,586.0,square2,j,0.346,1,N,7.0
NS7,13.0,21.0,64.0,43.0,54.0,54,640.0,square4,r,0.328,3,N,7.0
NS7,14.0,26.0,67.0,44.0,55.0,44,684.0,square3,f,0.285,2,N,7.0
NS7,15.0,20.0,64.0,40.0,61.0,20,704.0,square1,i,0.383,0,N,7.0
NS7,16.0,20.0,61.0,38.0,66.0,38,742.0,square3,f,0.603,2,N,7.0
NS7,17.0,20.0,56.0,39.0,64.0,56,798.0,square2,j,0.482,1,N,7.0
NS7,18.0,21.0,56.0,33.0,65.0,65,863.0,square4,r,0.356,3,N,7.0
NS7,19.0,21.0,56.0,36.0,68.0,36,899.0,square3,f,0.271,2,N,7.0
NS7,20.0,26.0,58.0,37.0,64.0,58,957.0,square2,j,0.363,1,N,7.0
NS7,21.0,29.0,62.0,36.0,61.0,29,986.0,square1,i,0.52,0,N,7.0
NS7,22.0,24.0,63.0,37.0,55.0,37,1023.0,square3,f,0.287,2,N,7.0
NS7,23.0,26.0,64.0,38.0,54.0,54,1077.0,square4,r,0.54,3,N,7.0
NS7,24.0,18.0,65.0,39.0,53.0,53,1130.0,square4,r,0.31,3,N,7.0
NS7,25.0,20.0,62.0,36.0,53.0,53,1183.0,square4,r,0.365,3,N,7.0
NS7,26.0,24.0,56.0,39.0,52.0,56,1239.0,square2,j,0.27,1,N,7.0
NS7,27.0,31.0,58.0,36.0,51.0,31,1270.0,square1,i,0.001,0,N,7.0
NS7,28.0,28.0,59.0,42.0,53.0,42,1312.0,square3,f,0.325,2,N,7.0
NS7,29.0,30.0,57.0,36.0,51.0,36,1348.0,square3,f,0.44,2,N,7.0
NS7,30.0,29.0,57.0,35.0,53.0,29,1377.0,square1,i,0.328,0,N,7.0
NS7,31.0,27.0,59.0,37.0,48.0,59,1436.0,square2,j,0.449,1,N,7.0
NS7,32.0,29.0,59.0,38.0,45.0,59,1495.0,square2,j,0.354,1,N,7.0
NS7,33.0,35.0,58.0,37.0,52.0,58,1553.0,square2,j,0.311,1,N,7.0
NS7,34.0,33.0,59.0,43.0,52.0,59,1612.0,square2,j,0.363,1,N,7.0
NS7,35.0,37.0,61.0,43.0,49.0,61,1673.0,square2,j,0.429,1,N,7.0
NS7,36.0,36.0,62.0,48.0,54.0,36,1709.0,square1,i,0.446,0,N,7.0
NS7,37.0,35.0,62.0,46.0,57.0,46,1755.0,square3,f,0.662,2,N,7.0
NS7,38.0,37.0,59.0,52.0,53.0,53,1808.0,square4,r,0.278,3,N,7.0
NS7,39.0,32.0,57.0,50.0,59.0,59,1867.0,square4,r,0.307,3,N,7.0
NS7,40.0,30.0,56.0,54.0,59.0,59,1926.0,square4,r,0.312,3,N,7.0
NS7,41.0,36.0,54.0,52.0,56.0,36,1962.0,square1,i,0.354,0,N,7.0
NS7,42.0,30.0,55.0,57.0,55.0,57,2019.0,square3,f,0.246,2,N,7.0
NS7,43.0,35.0,52.0,54.0,58.0,54,2073.0,square3,f,0.362,2,N,7.0
NS7,44.0,30.0,56.0,55.0,57.0,55,2128.0,square3,f,0.247,2,N,7.0
NS7,45.0,28.0,63.0,57.0,58.0,63,2191.0,square2,j,0.399,1,N,7.0
NS7,46.0,29.0,60.0,58.0,57.0,60,2251.0,square2,j,0.333,1,N,7.0
NS7,47.0,31.0,58.0,54.0,53.0,31,2282.0,square1,i,0.293,0,N,7.0
NS7,48.0,27.0,58.0,59.0,48.0,27,2309.0,square1,i,0.362,0,N,7.0
NS7,49.0,28.0,48.0,60.0,54.0,54,2363.0,square4,r,0.237,3,N,7.0
NS7,50.0,27.0,49.0,62.0,53.0,53,2416.0,square4,r,0.316,3,N,7.0
NS7,51.0,41.0,49.0,63.0,56.0,56,2472.0,square4,r,0.238,3,N,7.0
NS7,52.0,36.0,43.0,66.0,56.0,43,2515.0,square2,j,0.354,1,N,7.0
NS7,53.0,41.0,51.0,69.0,54.0,69,2584.0,square3,f,0.472,2,N,7.0
NS7,54.0,37.0,52.0,63.0,53.0,63,2647.0,square3,f,0.203,2,N,7.0
NS7,55.0,40.0,51.0,60.0,54.0,60,2707.0,square3,f,0.339,2,N,7.0
NS7,56.0,45.0,57.0,63.0,59.0,63,2770.0,square3,f,0.281,2,N,7.0
NS7,57.0,42.0,49.0,64.0,53.0,64,2834.0,square3,f,0.386,2,N,7.0
NS7,58.0,39.0,49.0,62.0,52.0,39,2873.0,square1,i,0.344,0,N,7.0
NS7,59.0,47.0,49.0,67.0,54.0,47,2920.0,square1,i,0.397,0,N,7.0
NS7,60.0,43.0,53.0,70.0,55.0,55,2975.0,square4,r,0.269,3,N,7.0
NS7,61.0,41.0,48.0,69.0,52.0,52,3027.0,square4,r,0.281,3,N,7.0
NS7,62.0,39.0,48.0,65.0,54.0,48,3075.0,square2,j,0.399,1,N,7.0
NS7,63.0,38.0,48.0,64.0,56.0,48,3123.0,square2,j,0.289,1,N,7.0
NS7,64.0,34.0,46.0,65.0,51.0,46,3169.0,square2,j,0.567,1,N,7.0
NS7,65.0,43.0,51.0,63.0,53.0,63,3232.0,square3,f,0.241,2,N,7.0
NS7,66.0,41.0,51.0,64.0,50.0,64,3296.0,square3,f,0.268,2,N,7.0
NS7,67.0,44.0,51.0,63.0,54.0,63,3359.0,square3,f,0.245,2,N,7.0
NS7,68.0,42.0,49.0,62.0,48.0,62,3421.0,square3,f,0.272,2,N,7.0
NS7,69.0,41.0,50.0,63.0,52.0,41,3462.0,square1,i,0.345,0,N,7.0
NS7,70.0,45.0,45.0,59.0,53.0,59,3521.0,square3,f,0.26,2,N,7.0
NS7,71.0,44.0,40.0,52.0,52.0,52,3573.0,square4,r,0.314,3,N,7.0
NS7,72.0,51.0,38.0,55.0,47.0,38,3611.0,square2,j,0.101,1,N,7.0
NS7,73.0,42.0,36.0,49.0,47.0,49,3660.0,square3,f,0.53,2,N,7.0
NS7,74.0,44.0,40.0,46.0,48.0,46,3706.0,square3,f,0.302,2,N,7.0
NS7,75.0,46.0,38.0,45.0,53.0,45,3751.0,square3,f,0.2,2,N,7.0
NS7,76.0,48.0,44.0,40.0,53.0,53,3804.0,square4,r,0.755,3,N,7.0
NS7,77.0,45.0,42.0,40.0,55.0,55,3859.0,square4,r,0.339,3,N,7.0
NS7,78.0,41.0,39.0,40.0,56.0,41,3900.0,square1,i,0.571,0,N,7.0
NS7,79.0,44.0,38.0,41.0,55.0,55,3955.0,square4,r,0.368,3,N,7.0
NS7,80.0,48.0,49.0,48.0,62.0,49,4004.0,square2,j,0.834,1,N,7.0
NS7,81.0,44.0,47.0,43.0,61.0,61,4065.0,square4,r,0.439,3,N,7.0
NS7,82.0,45.0,46.0,38.0,54.0,54,4119.0,square4,r,0.423,3,N,7.0
NS7,83.0,44.0,40.0,41.0,57.0,44,4163.0,square1,i,0.299,0,N,7.0
NS7,84.0,47.0,46.0,41.0,53.0,47,4210.0,square1,i,0.528,0,N,7.0
NS7,85.0,50.0,45.0,45.0,54.0,45,4255.0,square3,f,0.375,2,N,7.0
NS7,86.0,45.0,43.0,44.0,54.0,43,4298.0,square2,j,0.288,1,N,7.0
NS7,87.0,43.0,47.0,49.0,55.0,47,4345.0,square2,j,0.498,1,N,7.0
NS7,88.0,40.0,48.0,44.0,58.0,48,4393.0,square2,j,0.405,1,N,7.0
NS7,89.0,40.0,44.0,47.0,54.0,44,4437.0,square2,j,0.603,1,N,7.0
NS7,90.0,38.0,43.0,48.0,55.0,48,4485.0,square3,f,0.573,2,N,7.0
NS7,91.0,36.0,45.0,43.0,55.0,43,4528.0,square3,f,0.2,2,N,7.0
NS7,92.0,29.0,44.0,45.0,53.0,29,4557.0,square1,i,0.172,0,N,7.0
NS7,93.0,33.0,46.0,44.0,57.0,57,4614.0,square4,r,0.609,3,N,7.0
NS7,94.0,32.0,43.0,52.0,47.0,43,4657.0,square2,j,1.064,1,N,7.0
NS7,95.0,41.0,46.0,50.0,51.0,51,4708.0,square4,r,0.458,3,N,7.0
NS7,96.0,38.0,41.0,46.0,52.0,38,4746.0,square1,i,0.568,0,N,7.0
NS7,97.0,41.0,44.0,40.0,52.0,40,4786.0,square3,f,0.506,2,N,7.0
NS7,98.0,45.0,41.0,41.0,55.0,41,4827.0,square2,j,0.421,1,N,7.0
NS7,99.0,39.0,41.0,39.0,53.0,53,4880.0,square4,r,1.014,3,N,7.0
NS1,0.0,60.0,65.0,21.0,53.0,21,21.0,square3,j,1.443,2,N,1.0
NS1,1.0,56.0,62.0,31.0,51.0,51,72.0,square4,i,0.486,3,N,1.0
NS1,2.0,58.0,62.0,24.0,57.0,62,134.0,square2,r,0.352,1,N,1.0
NS1,3.0,56.0,58.0,33.0,58.0,56,190.0,square1,f,0.382,0,N,1.0
NS1,4.0,60.0,58.0,32.0,58.0,58,248.0,square2,r,0.319,1,N,1.0
NS1,5.0,56.0,59.0,31.0,54.0,59,307.0,square2,r,0.635,1,N,1.0
NS1,6.0,58.0,57.0,37.0,56.0,57,364.0,square2,r,0.502,1,N,1.0
NS1,7.0,57.0,53.0,37.0,57.0,37,401.0,square3,j,0.39,2,N,1.0
NS1,8.0,58.0,57.0,37.0,54.0,54,455.0,square4,i,0.304,3,N,1.0
NS1,9.0,53.0,50.0,36.0,55.0,53,508.0,square1,f,0.314,0,N,1.0
NS1,10.0,58.0,47.0,32.0,53.0,53,561.0,square4,i,0.449,3,N,1.0
NS1,11.0,55.0,44.0,34.0,53.0,55,616.0,square1,f,0.285,0,N,1.0
NS1,12.0,56.0,44.0,30.0,45.0,44,660.0,square2,r,0.103,1,N,1.0
NS1,13.0,60.0,47.0,34.0,48.0,60,720.0,square1,f,0.015,0,N,1.0
NS1,14.0,54.0,48.0,37.0,54.0,54,774.0,square4,i,0.6,3,N,1.0
NS1,15.0,53.0,44.0,35.0,51.0,53,827.0,square1,f,0.402,0,N,1.0
NS1,16.0,50.0,50.0,35.0,43.0,43,870.0,square4,i,0.509,3,N,1.0
NS1,17.0,53.0,46.0,35.0,44.0,35,905.0,square3,j,0.346,2,N,1.0
NS1,18.0,54.0,51.0,42.0,48.0,51,956.0,square2,r,0.347,1,N,1.0
NS1,19.0,62.0,51.0,44.0,53.0,51,1007.0,square2,r,0.462,1,N,1.0
NS1,20.0,63.0,47.0,42.0,47.0,47,1054.0,square2,r,0.334,1,N,1.0
NS1,21.0,67.0,51.0,41.0,46.0,46,1100.0,square4,i,0.695,3,N,1.0
NS1,22.0,75.0,44.0,45.0,43.0,75,1175.0,square1,f,0.298,0,N,1.0
NS1,23.0,64.0,42.0,41.0,47.0,64,1239.0,square1,f,0.644,0,N,1.0
NS1,24.0,68.0,41.0,39.0,49.0,39,1278.0,square3,j,0.32,2,N,1.0
NS1,25.0,71.0,43.0,33.0,42.0,42,1320.0,square4,i,0.594,3,N,1.0
NS1,26.0,70.0,41.0,26.0,45.0,70,1390.0,square1,f,0.307,0,N,1.0
NS1,27.0,72.0,42.0,34.0,48.0,34,1424.0,square3,j,1.056,2,N,1.0
NS1,28.0,71.0,41.0,33.0,45.0,41,1465.0,square2,r,0.391,1,N,1.0
NS1,29.0,77.0,42.0,31.0,48.0,77,1542.0,square1,f,0.329,0,N,1.0
NS1,30.0,73.0,41.0,33.0,51.0,51,1593.0,square4,i,0.449,3,N,1.0
NS1,31.0,71.0,44.0,35.0,48.0,48,1641.0,square4,i,0.646,3,N,1.0
NS1,32.0,81.0,47.0,33.0,50.0,81,1722.0,square1,f,0.429,0,N,1.0
NS1,33.0,75.0,50.0,27.0,42.0,75,1797.0,square1,f,0.583,0,N,1.0
NS1,34.0,71.0,49.0,27.0,44.0,71,1868.0,square1,f,0.476,0,N,1.0
NS1,35.0,69.0,47.0,23.0,47.0,69,1937.0,square1,f,0.471,0,N,1.0
NS1,36.0,71.0,50.0,32.0,45.0,50,1987.0,square2,r,0.412,1,N,1.0
NS1,37.0,66.0,48.0,33.0,52.0,66,2053.0,square1,f,0.375,0,N,1.0
NS1,38.0,64.0,50.0,34.0,51.0,64,2117.0,square1,f,0.319,0,N,1.0
NS1,39.0,65.0,49.0,25.0,47.0,65,2182.0,square1,f,0.294,0,N,1.0
NS1,40.0,66.0,46.0,23.0,50.0,23,2205.0,square3,j,0.354,2,N,1.0
NS1,41.0,68.0,45.0,22.0,50.0,68,2273.0,square1,f,0.379,0,N,1.0
NS1,42.0,74.0,41.0,28.0,50.0,50,2323.0,square4,i,0.307,3,N,1.0
NS1,43.0,69.0,42.0,27.0,52.0,42,2365.0,square2,r,0.339,1,N,1.0
NS1,44.0,71.0,38.0,32.0,49.0,71,2436.0,square1,f,0.291,0,N,1.0
NS1,45.0,68.0,38.0,30.0,55.0,68,2504.0,square1,f,0.295,0,N,1.0
NS1,46.0,66.0,39.0,30.0,56.0,66,2570.0,square1,f,0.146,0,N,1.0
NS1,47.0,62.0,35.0,31.0,50.0,62,2632.0,square1,f,0.407,0,N,1.0
NS1,48.0,68.0,31.0,32.0,49.0,68,2700.0,square1,f,0.349,0,N,1.0
NS1,49.0,66.0,33.0,35.0,46.0,66,2766.0,square1,f,0.312,0,N,1.0
NS1,50.0,64.0,30.0,32.0,46.0,46,2812.0,square4,i,0.024,3,N,1.0
NS1,51.0,66.0,35.0,39.0,43.0,66,2878.0,square1,f,0.046,0,N,1.0
NS1,52.0,67.0,33.0,37.0,49.0,33,2911.0,square2,r,0.031,1,N,1.0
NS1,53.0,70.0,32.0,35.0,47.0,70,2981.0,square1,f,0.649,0,N,1.0
NS1,54.0,62.0,40.0,28.0,43.0,28,3009.0,square3,j,0.36,2,N,1.0
NS1,55.0,66.0,39.0,26.0,43.0,66,3075.0,square1,f,0.37,0,N,1.0
NS1,56.0,64.0,38.0,26.0,44.0,64,3139.0,square1,f,0.302,0,N,1.0
NS1,57.0,63.0,41.0,24.0,48.0,63,3202.0,square1,f,0.378,0,N,1.0
NS1,58.0,67.0,49.0,24.0,48.0,67,3269.0,square1,f,0.195,0,N,1.0
NS1,59.0,57.0,51.0,27.0,43.0,57,3326.0,square1,f,0.21,0,N,1.0
NS1,60.0,56.0,51.0,31.0,42.0,56,3382.0,square1,f,0.095,0,N,1.0
NS1,61.0,55.0,50.0,25.0,49.0,55,3437.0,square1,f,0.024,0,N,1.0
NS1,62.0,55.0,51.0,27.0,50.0,55,3492.0,square1,f,0.578,0,N,1.0
NS1,63.0,53.0,51.0,27.0,50.0,53,3545.0,square1,f,0.684,0,N,1.0
NS1,64.0,53.0,56.0,27.0,50.0,56,3601.0,square2,r,0.167,1,N,1.0
NS1,65.0,49.0,56.0,26.0,49.0,56,3657.0,square2,r,1.012,1,N,1.0
NS1,66.0,47.0,61.0,29.0,50.0,61,3718.0,square2,r,0.412,1,N,1.0
NS1,67.0,47.0,56.0,27.0,50.0,47,3765.0,square1,f,0.419,0,N,1.0
NS1,68.0,47.0,64.0,29.0,48.0,64,3829.0,square2,r,0.162,1,N,1.0
NS1,69.0,54.0,67.0,24.0,53.0,67,3896.0,square2,r,0.368,1,N,1.0
NS1,70.0,44.0,70.0,21.0,48.0,70,3966.0,square2,r,0.416,1,N,1.0
NS1,71.0,45.0,67.0,26.0,52.0,67,4033.0,square2,r,0.41,1,N,1.0
NS1,72.0,44.0,64.0,22.0,49.0,49,4082.0,square4,i,0.335,3,N,1.0
NS1,73.0,43.0,60.0,23.0,51.0,60,4142.0,square2,r,0.195,1,N,1.0
NS1,74.0,47.0,59.0,26.0,57.0,26,4168.0,square3,j,0.509,2,N,1.0
NS1,75.0,44.0,56.0,27.0,51.0,44,4212.0,square1,f,0.287,0,N,1.0
NS1,76.0,34.0,55.0,21.0,52.0,55,4267.0,square2,r,0.043,1,N,1.0
NS1,77.0,39.0,64.0,17.0,55.0,64,4331.0,square2,r,0.408,1,N,1.0
NS1,78.0,38.0,64.0,25.0,52.0,64,4395.0,square2,r,0.438,1,N,1.0
NS1,79.0,40.0,65.0,24.0,54.0,65,4460.0,square2,r,0.313,1,N,1.0
NS1,80.0,44.0,66.0,21.0,53.0,66,4526.0,square2,r,0.27,1,N,1.0
NS1,81.0,50.0,60.0,27.0,54.0,54,4580.0,square4,i,0.018,3,N,1.0
NS1,82.0,43.0,62.0,20.0,57.0,43,4623.0,square1,f,0.492,0,N,1.0
NS1,83.0,44.0,55.0,24.0,59.0,24,4647.0,square3,j,0.065,2,N,1.0
NS1,84.0,41.0,51.0,28.0,61.0,51,4698.0,square2,r,0.604,1,N,1.0
NS1,85.0,49.0,49.0,29.0,70.0,49,4747.0,square1,f,0.349,0,N,1.0
NS1,86.0,47.0,44.0,26.0,66.0,66,4813.0,square4,i,0.18,3,N,1.0
NS1,87.0,48.0,48.0,23.0,68.0,68,4881.0,square4,i,0.268,3,N,1.0
NS1,88.0,46.0,51.0,20.0,70.0,70,4951.0,square4,i,0.181,3,N,1.0
NS1,89.0,45.0,50.0,17.0,75.0,75,5026.0,square4,i,0.356,3,N,1.0
NS1,90.0,50.0,48.0,18.0,74.0,50,5076.0,square1,f,0.167,0,N,1.0
NS1,91.0,46.0,53.0,17.0,67.0,17,5093.0,square3,j,0.18,2,N,1.0
NS1,92.0,38.0,56.0,22.0,65.0,65,5158.0,square4,i,0.496,3,N,1.0
NS1,93.0,38.0,53.0,22.0,66.0,53,5211.0,square2,r,0.311,1,N,1.0
NS1,94.0,42.0,49.0,24.0,72.0,42,5253.0,square1,f,0.068,0,N,1.0
NS1,95.0,44.0,48.0,25.0,70.0,70,5323.0,square4,i,0.313,3,N,1.0
NS1,96.0,35.0,50.0,21.0,67.0,67,5390.0,square4,i,0.161,3,N,1.0
NS1,97.0,43.0,55.0,16.0,72.0,72,5462.0,square4,i,0.423,3,N,1.0
NS1,98.0,46.0,50.0,21.0,73.0,73,5535.0,square4,i,0.817,3,N,1.0
NS1,99.0,43.0,46.0,27.0,71.0,71,5606.0,square4,i,1.713,3,N,1.0
NS6,0.0,68.0,18.0,30.0,58.0,99999,0.0,invalid,,,-1,N,6.0
NS6,1.0,62.0,23.0,38.0,67.0,99999,0.0,invalid,,,-1,N,6.0
NS6,2.0,59.0,30.0,33.0,67.0,99999,0.0,invalid,,,-1,N,6.0
NS6,3.0,62.0,27.0,39.0,65.0,62,62.0,square1,r,0.542,0,N,6.0
NS6,4.0,65.0,22.0,32.0,67.0,67,129.0,square4,j,0.528,3,N,6.0
NS6,5.0,61.0,28.0,39.0,67.0,67,196.0,square4,j,0.398,3,N,6.0
NS6,6.0,59.0,28.0,39.0,66.0,66,262.0,square4,j,0.356,3,N,6.0
NS6,7.0,56.0,30.0,43.0,63.0,30,292.0,square2,i,0.362,1,N,6.0
NS6,8.0,57.0,26.0,36.0,60.0,36,328.0,square3,f,0.13,2,N,6.0
NS6,9.0,51.0,30.0,38.0,65.0,65,393.0,square4,j,0.071,3,N,6.0
NS6,10.0,46.0,26.0,41.0,61.0,46,439.0,square1,r,0.221,0,N,6.0
NS6,11.0,46.0,30.0,40.0,58.0,58,497.0,square4,j,0.115,3,N,6.0
NS6,12.0,44.0,27.0,41.0,56.0,56,553.0,square4,j,0.194,3,N,6.0
NS6,13.0,41.0,32.0,44.0,54.0,32,585.0,square2,i,0.034,1,N,6.0
NS6,14.0,45.0,36.0,41.0,51.0,51,636.0,square4,j,0.427,3,N,6.0
NS6,15.0,37.0,34.0,39.0,54.0,37,673.0,square1,r,0.394,0,N,6.0
NS6,16.0,36.0,37.0,39.0,48.0,39,712.0,square3,f,0.322,2,N,6.0
NS6,17.0,41.0,39.0,36.0,45.0,45,757.0,square4,j,0.282,3,N,6.0
NS6,18.0,39.0,38.0,29.0,48.0,48,805.0,square4,j,0.348,3,N,6.0
NS6,19.0,35.0,40.0,32.0,46.0,46,851.0,square4,j,0.309,3,N,6.0
NS6,20.0,41.0,40.0,28.0,55.0,55,906.0,square4,j,0.269,3,N,6.0
NS6,21.0,45.0,44.0,27.0,54.0,54,960.0,square4,j,0.392,3,N,6.0
NS6,22.0,44.0,51.0,31.0,53.0,51,1011.0,square2,i,0.153,1,N,6.0
NS6,23.0,44.0,50.0,29.0,53.0,44,1055.0,square1,r,0.196,0,N,6.0
NS6,24.0,49.0,49.0,35.0,55.0,35,1090.0,square3,f,0.237,2,N,6.0
NS6,25.0,44.0,51.0,36.0,56.0,51,1141.0,square2,i,0.371,1,N,6.0
NS6,26.0,43.0,46.0,38.0,58.0,58,1199.0,square4,j,0.315,3,N,6.0
NS6,27.0,41.0,44.0,41.0,59.0,59,1258.0,square4,j,0.3,3,N,6.0
NS6,28.0,38.0,47.0,39.0,58.0,58,1316.0,square4,j,0.37,3,N,6.0
NS6,29.0,39.0,46.0,37.0,54.0,54,1370.0,square4,j,0.345,3,N,6.0
NS6,30.0,36.0,49.0,40.0,53.0,53,1423.0,square4,j,0.451,3,N,6.0
NS6,31.0,37.0,45.0,36.0,55.0,45,1468.0,square2,i,0.234,1,N,6.0
NS6,32.0,42.0,42.0,40.0,56.0,56,1524.0,square4,j,0.037,3,N,6.0
NS6,33.0,33.0,44.0,32.0,53.0,53,1577.0,square4,j,0.041,3,N,6.0
NS6,34.0,32.0,42.0,36.0,49.0,32,1609.0,square1,r,1.098,0,N,6.0
NS6,35.0,35.0,28.0,38.0,51.0,38,1647.0,square3,f,0.416,2,N,6.0
NS6,36.0,38.0,28.0,35.0,52.0,52,1699.0,square4,j,0.392,3,N,6.0
NS6,37.0,44.0,31.0,37.0,55.0,55,1754.0,square4,j,0.147,3,N,6.0
NS6,38.0,36.0,31.0,36.0,54.0,31,1785.0,square2,i,0.734,1,N,6.0
NS6,39.0,40.0,29.0,41.0,60.0,60,1845.0,square4,j,0.209,3,N,6.0
NS6,40.0,46.0,33.0,36.0,62.0,62,1907.0,square4,j,0.318,3,N,6.0
NS6,41.0,44.0,38.0,34.0,63.0,63,1970.0,square4,j,0.307,3,N,6.0
NS6,42.0,43.0,32.0,29.0,59.0,59,2029.0,square4,j,0.187,3,N,6.0
NS6,43.0,47.0,29.0,38.0,61.0,38,2067.0,square3,f,0.386,2,N,6.0
NS6,44.0,49.0,33.0,36.0,56.0,56,2123.0,square4,j,0.638,3,N,6.0
NS6,45.0,51.0,29.0,32.0,60.0,60,2183.0,square4,j,0.58,3,N,6.0
NS6,46.0,52.0,36.0,41.0,64.0,64,2247.0,square4,j,0.471,3,N,6.0
NS6,47.0,55.0,35.0,46.0,60.0,55,2302.0,square1,r,0.479,0,N,6.0
NS6,48.0,57.0,34.0,40.0,64.0,64,2366.0,square4,j,0.401,3,N,6.0
NS6,49.0,54.0,37.0,42.0,59.0,37,2403.0,square2,i,0.336,1,N,6.0
NS6,50.0,58.0,40.0,35.0,51.0,51,2454.0,square4,j,0.444,3,N,6.0
NS6,51.0,64.0,35.0,36.0,53.0,64,2518.0,square1,r,0.393,0,N,6.0
NS6,52.0,60.0,37.0,30.0,52.0,60,2578.0,square1,r,0.331,0,N,6.0
NS6,53.0,63.0,40.0,30.0,54.0,63,2641.0,square1,r,0.329,0,N,6.0
NS6,54.0,60.0,37.0,30.0,53.0,60,2701.0,square1,r,0.166,0,N,6.0
NS6,55.0,57.0,40.0,29.0,50.0,29,2730.0,square3,f,0.307,2,N,6.0
NS6,56.0,58.0,30.0,30.0,46.0,58,2788.0,square1,r,0.344,0,N,6.0
NS6,57.0,64.0,34.0,31.0,45.0,64,2852.0,square1,r,0.265,0,N,6.0
NS6,58.0,66.0,31.0,34.0,48.0,66,2918.0,square1,r,0.328,0,N,6.0
NS6,59.0,68.0,31.0,35.0,44.0,44,2962.0,square4,j,0.428,3,N,6.0
NS6,60.0,65.0,28.0,27.0,49.0,65,3027.0,square1,r,0.239,0,N,6.0
NS6,61.0,67.0,29.0,25.0,47.0,29,3056.0,square2,i,0.308,1,N,6.0
NS6,62.0,67.0,31.0,27.0,41.0,67,3123.0,square1,r,0.246,0,N,6.0
NS6,63.0,69.0,32.0,24.0,45.0,69,3192.0,square1,r,0.011,0,N,6.0
NS6,64.0,72.0,41.0,30.0,50.0,72,3264.0,square1,r,0.148,0,N,6.0
NS6,65.0,75.0,35.0,33.0,50.0,75,3339.0,square1,r,0.022,0,N,6.0
NS6,66.0,71.0,37.0,26.0,49.0,71,3410.0,square1,r,0.05,0,N,6.0
NS6,67.0,74.0,34.0,21.0,49.0,74,3484.0,square1,r,1.229,0,N,6.0
NS6,68.0,81.0,37.0,27.0,50.0,81,3565.0,square1,r,0.225,0,N,6.0
NS6,69.0,80.0,31.0,25.0,49.0,80,3645.0,square1,r,0.302,0,N,6.0
NS6,70.0,83.0,33.0,31.0,46.0,83,3728.0,square1,r,0.264,0,N,6.0
NS6,71.0,75.0,33.0,34.0,53.0,75,3803.0,square1,r,0.233,0,N,6.0
NS6,72.0,73.0,39.0,32.0,55.0,73,3876.0,square1,r,0.225,0,N,6.0
NS6,73.0,74.0,40.0,33.0,53.0,74,3950.0,square1,r,0.271,0,N,6.0
NS6,74.0,73.0,46.0,32.0,50.0,73,4023.0,square1,r,0.764,0,N,6.0
NS6,75.0,71.0,40.0,32.0,49.0,49,4072.0,square4,j,0.375,3,N,6.0
NS6,76.0,65.0,43.0,31.0,56.0,65,4137.0,square1,r,0.156,0,N,6.0
NS6,77.0,66.0,41.0,33.0,56.0,66,4203.0,square1,r,0.316,0,N,6.0
NS6,78.0,71.0,40.0,38.0,64.0,71,4274.0,square1,r,0.289,0,N,6.0
NS6,79.0,69.0,36.0,35.0,62.0,36,4310.0,square2,i,0.277,1,N,6.0
NS6,80.0,69.0,34.0,37.0,69.0,37,4347.0,square3,f,0.298,2,N,6.0
NS6,81.0,70.0,37.0,37.0,71.0,70,4417.0,square1,r,0.252,0,N,6.0
NS6,82.0,68.0,38.0,39.0,66.0,68,4485.0,square1,r,0.162,0,N,6.0
NS6,83.0,69.0,42.0,41.0,73.0,69,4554.0,square1,r,0.069,0,N,6.0
NS6,84.0,62.0,42.0,42.0,70.0,70,4624.0,square4,j,0.34,3,N,6.0
NS6,85.0,57.0,45.0,42.0,77.0,77,4701.0,square4,j,0.314,3,N,6.0
NS6,86.0,58.0,47.0,44.0,70.0,70,4771.0,square4,j,0.219,3,N,6.0
NS6,87.0,62.0,44.0,52.0,73.0,73,4844.0,square4,j,0.178,3,N,6.0
NS6,88.0,62.0,45.0,47.0,72.0,72,4916.0,square4,j,0.138,3,N,6.0
NS6,89.0,59.0,50.0,47.0,73.0,59,4975.0,square1,r,0.477,0,N,6.0
NS6,90.0,55.0,45.0,44.0,68.0,68,5043.0,square4,j,0.203,3,N,6.0
NS6,91.0,55.0,51.0,47.0,67.0,67,5110.0,square4,j,0.303,3,N,6.0
NS6,92.0,62.0,52.0,35.0,69.0,69,5179.0,square4,j,0.276,3,N,6.0
NS6,93.0,59.0,47.0,32.0,68.0,59,5238.0,square1,r,0.271,0,N,6.0
NS6,94.0,67.0,53.0,44.0,66.0,66,5304.0,square4,j,0.119,3,N,6.0
NS6,95.0,71.0,44.0,47.0,66.0,66,5370.0,square4,j,0.269,3,N,6.0
NS6,96.0,68.0,53.0,47.0,66.0,66,5436.0,square4,j,0.349,3,N,6.0
NS6,97.0,65.0,49.0,44.0,64.0,64,5500.0,square4,j,0.341,3,N,6.0
NS6,98.0,66.0,54.0,55.0,57.0,57,5557.0,square4,j,0.328,3,N,6.0
NS6,99.0,69.0,57.0,51.0,56.0,56,5613.0,square4,j,0.795,3,N,6.0
V8,0.0,49.0,55.0,64.0,74.0,64,64.0,square3,r,1.465,2,V,8.0
V8,1.0,51.0,54.0,70.0,81.0,51,115.0,square1,j,0.2,0,V,8.0
V8,2.0,46.0,62.0,70.0,77.0,70,185.0,square3,r,0.291,2,V,8.0
V8,3.0,46.0,56.0,67.0,75.0,75,260.0,square4,i,0.264,3,V,8.0
V8,4.0,50.0,59.0,67.0,83.0,59,319.0,square2,f,0.473,1,V,8.0
V8,5.0,51.0,54.0,65.0,78.0,78,397.0,square4,i,0.267,3,V,8.0
V8,6.0,45.0,57.0,66.0,80.0,80,477.0,square4,i,0.25,3,V,8.0
V8,7.0,46.0,64.0,68.0,77.0,77,554.0,square4,i,0.195,3,V,8.0
V8,8.0,50.0,57.0,66.0,73.0,66,620.0,square3,r,0.285,2,V,8.0
V8,9.0,46.0,56.0,71.0,72.0,46,666.0,square1,j,0.177,0,V,8.0
V8,10.0,56.0,58.0,67.0,75.0,58,724.0,square2,f,0.156,1,V,8.0
V8,11.0,50.0,61.0,69.0,74.0,74,798.0,square4,i,0.297,3,V,8.0
V8,12.0,59.0,59.0,69.0,77.0,77,875.0,square4,i,0.169,3,V,8.0
V8,13.0,50.0,56.0,72.0,77.0,77,952.0,square4,i,0.261,3,V,8.0
V8,14.0,48.0,55.0,65.0,80.0,48,1000.0,square1,j,0.266,0,V,8.0
V8,15.0,48.0,58.0,65.0,76.0,76,1076.0,square4,i,0.132,3,V,8.0
V8,16.0,49.0,58.0,67.0,75.0,75,1151.0,square4,i,0.37,3,V,8.0
V8,17.0,51.0,56.0,68.0,76.0,76,1227.0,square4,i,0.586,3,V,8.0
V8,18.0,52.0,63.0,69.0,80.0,80,1307.0,square4,i,0.295,3,V,8.0
V8,19.0,54.0,54.0,71.0,79.0,71,1378.0,square3,r,0.249,2,V,8.0
V8,20.0,48.0,53.0,62.0,77.0,48,1426.0,square1,j,0.095,0,V,8.0
V8,21.0,44.0,61.0,66.0,77.0,77,1503.0,square4,i,0.31,3,V,8.0
V8,22.0,52.0,58.0,64.0,78.0,58,1561.0,square2,f,0.462,1,V,8.0
V8,23.0,50.0,49.0,67.0,79.0,79,1640.0,square4,i,0.315,3,V,8.0
V8,24.0,49.0,59.0,69.0,74.0,69,1709.0,square3,r,0.301,2,V,8.0
V8,25.0,46.0,61.0,65.0,81.0,81,1790.0,square4,i,0.196,3,V,8.0
V8,26.0,49.0,58.0,63.0,35.0,35,1825.0,square4,i,0.178,3,V,8.0
V8,27.0,48.0,51.0,66.0,41.0,66,1891.0,square3,r,0.417,2,V,8.0
V8,28.0,46.0,55.0,65.0,38.0,46,1937.0,square1,j,0.324,0,V,8.0
V8,29.0,47.0,58.0,69.0,40.0,58,1995.0,square2,f,0.088,1,V,8.0
V8,30.0,42.0,55.0,67.0,43.0,67,2062.0,square3,r,0.232,2,V,8.0
V8,31.0,49.0,56.0,64.0,36.0,64,2126.0,square3,r,0.113,2,V,8.0
V8,32.0,49.0,55.0,69.0,38.0,69,2195.0,square3,r,0.564,2,V,8.0
V8,33.0,44.0,52.0,65.0,48.0,65,2260.0,square3,r,0.301,2,V,8.0
V8,34.0,44.0,57.0,70.0,45.0,70,2330.0,square3,r,0.329,2,V,8.0
V8,35.0,44.0,54.0,68.0,38.0,44,2374.0,square1,j,0.24,0,V,8.0
V8,36.0,45.0,56.0,64.0,40.0,56,2430.0,square2,f,0.105,1,V,8.0
V8,37.0,47.0,57.0,66.0,37.0,37,2467.0,square4,i,0.366,3,V,8.0
V8,38.0,49.0,50.0,66.0,37.0,50,2517.0,square2,f,0.315,1,V,8.0
V8,39.0,51.0,56.0,61.0,39.0,61,2578.0,square3,r,0.191,2,V,8.0
V8,40.0,47.0,59.0,66.0,41.0,66,2644.0,square3,r,0.115,2,V,8.0
V8,41.0,42.0,56.0,69.0,42.0,69,2713.0,square3,r,0.03,2,V,8.0
V8,42.0,47.0,57.0,72.0,35.0,72,2785.0,square3,r,1.011,2,V,8.0
V8,43.0,47.0,57.0,63.0,44.0,63,2848.0,square3,r,0.315,2,V,8.0
V8,44.0,45.0,58.0,67.0,42.0,45,2893.0,square1,j,0.603,0,V,8.0
V8,45.0,44.0,56.0,66.0,43.0,56,2949.0,square2,f,0.334,1,V,8.0
V8,46.0,46.0,53.0,70.0,37.0,37,2986.0,square4,i,0.21,3,V,8.0
V8,47.0,54.0,53.0,71.0,41.0,71,3057.0,square3,r,0.014,2,V,8.0
V8,48.0,49.0,53.0,69.0,37.0,69,3126.0,square3,r,0.03,2,V,8.0
V8,49.0,39.0,57.0,65.0,47.0,65,3191.0,square3,r,0.557,2,V,8.0
V8,50.0,48.0,55.0,65.0,41.0,65,3256.0,square3,r,0.272,2,V,8.0
V8,51.0,45.0,61.0,68.0,43.0,45,3301.0,square1,j,0.328,0,V,8.0
V8,52.0,53.0,52.0,68.0,37.0,37,3338.0,square4,i,0.231,3,V,8.0
V8,53.0,47.0,55.0,66.0,46.0,55,3393.0,square2,f,0.473,1,V,8.0
V8,54.0,49.0,53.0,61.0,39.0,61,3454.0,square3,r,0.311,2,V,8.0
V8,55.0,53.0,70.0,55.0,72.0,55,3509.0,square3,r,0.428,2,V,8.0
V8,56.0,57.0,63.0,48.0,73.0,57,3566.0,square1,j,0.415,0,V,8.0
V8,57.0,53.0,71.0,45.0,80.0,53,3619.0,square1,j,0.312,0,V,8.0
V8,58.0,57.0,69.0,52.0,73.0,69,3688.0,square2,f,0.363,1,V,8.0
V8,59.0,58.0,67.0,54.0,73.0,67,3755.0,square2,f,0.277,1,V,8.0
V8,60.0,55.0,66.0,47.0,76.0,66,3821.0,square2,f,0.135,1,V,8.0
V8,61.0,56.0,65.0,54.0,72.0,65,3886.0,square2,f,0.111,1,V,8.0
V8,62.0,56.0,65.0,49.0,75.0,65,3951.0,square2,f,0.528,1,V,8.0
V8,63.0,61.0,65.0,44.0,78.0,65,4016.0,square2,f,0.262,1,V,8.0
V8,64.0,54.0,66.0,48.0,75.0,66,4082.0,square2,f,0.411,1,V,8.0
V8,65.0,59.0,65.0,46.0,79.0,65,4147.0,square2,f,0.283,1,V,8.0
V8,66.0,51.0,62.0,46.0,73.0,62,4209.0,square2,f,0.298,1,V,8.0
V8,67.0,60.0,70.0,45.0,76.0,60,4269.0,square1,j,0.482,0,V,8.0
V8,68.0,63.0,64.0,47.0,73.0,63,4332.0,square1,j,0.349,0,V,8.0
V8,69.0,58.0,66.0,43.0,77.0,58,4390.0,square1,j,0.32,0,V,8.0
V8,70.0,59.0,65.0,49.0,73.0,65,4455.0,square2,f,0.338,1,V,8.0
V8,71.0,60.0,64.0,49.0,79.0,64,4519.0,square2,f,0.111,1,V,8.0
V8,72.0,96.0,68.0,78.0,67.0,68,4587.0,square2,f,0.358,1,V,8.0
V8,73.0,96.0,68.0,79.0,64.0,68,4655.0,square2,f,0.247,1,V,8.0
V8,74.0,92.0,67.0,81.0,62.0,67,4722.0,square2,f,0.297,1,V,8.0
V8,75.0,96.0,72.0,83.0,62.0,72,4794.0,square2,f,0.332,1,V,8.0
V8,76.0,94.0,70.0,77.0,57.0,70,4864.0,square2,f,0.295,1,V,8.0
V8,77.0,91.0,68.0,81.0,59.0,68,4932.0,square2,f,0.279,1,V,8.0
V8,78.0,90.0,73.0,80.0,63.0,73,5005.0,square2,f,0.145,1,V,8.0
V8,79.0,90.0,73.0,83.0,61.0,73,5078.0,square2,f,0.353,1,V,8.0
V8,80.0,95.0,75.0,81.0,66.0,75,5153.0,square2,f,0.534,1,V,8.0
V8,81.0,92.0,72.0,81.0,57.0,81,5234.0,square3,r,0.162,2,V,8.0
V8,82.0,91.0,71.0,80.0,61.0,80,5314.0,square3,r,0.205,2,V,8.0
V8,83.0,90.0,66.0,83.0,62.0,83,5397.0,square3,r,0.108,2,V,8.0
V8,84.0,93.0,67.0,87.0,65.0,87,5484.0,square3,r,0.009,2,V,8.0
V8,85.0,85.0,70.0,80.0,62.0,80,5564.0,square3,r,0.089,2,V,8.0
V8,86.0,84.0,72.0,85.0,62.0,84,5648.0,square1,j,0.562,0,V,8.0
V8,87.0,91.0,68.0,82.0,65.0,91,5739.0,square1,j,0.063,0,V,8.0
V8,88.0,93.0,67.0,83.0,61.0,93,5832.0,square1,j,0.031,0,V,8.0
V8,89.0,95.0,68.0,78.0,66.0,95,5927.0,square1,j,0.858,0,V,8.0
V8,90.0,91.0,73.0,80.0,60.0,91,6018.0,square1,j,0.336,0,V,8.0
V8,91.0,93.0,68.0,81.0,64.0,93,6111.0,square1,j,0.2,0,V,8.0
V8,92.0,90.0,75.0,82.0,67.0,67,6178.0,square4,i,0.238,3,V,8.0
V8,93.0,92.0,70.0,82.0,66.0,92,6270.0,square1,j,0.096,0,V,8.0
V8,94.0,90.0,71.0,78.0,63.0,90,6360.0,square1,j,0.603,0,V,8.0
V8,95.0,88.0,65.0,78.0,63.0,88,6448.0,square1,j,0.487,0,V,8.0
V8,96.0,89.0,72.0,85.0,62.0,89,6537.0,square1,j,0.296,0,V,8.0
V8,97.0,92.0,72.0,77.0,67.0,72,6609.0,square2,f,0.296,1,V,8.0
V8,98.0,86.0,63.0,82.0,62.0,86,6695.0,square1,j,0.371,0,V,8.0
V8,99.0,90.0,66.0,75.0,61.0,90,6785.0,square1,j,0.556,0,V,8.0
V11,0.0,42.0,67.0,57.0,49.0,49,49.0,square4,r,1.364,3,V,11.0
V11,1.0,42.0,71.0,60.0,53.0,60,109.0,square3,j,0.056,2,V,11.0
V11,2.0,45.0,76.0,58.0,51.0,76,185.0,square2,i,0.026,1,V,11.0
V11,3.0,44.0,65.0,60.0,49.0,44,229.0,square1,f,0.001,0,V,11.0
V11,4.0,46.0,73.0,64.0,51.0,73,302.0,square2,i,0.329,1,V,11.0
V11,5.0,47.0,67.0,58.0,54.0,67,369.0,square2,i,0.392,1,V,11.0
V11,6.0,43.0,68.0,58.0,50.0,68,437.0,square2,i,0.214,1,V,11.0
V11,7.0,42.0,67.0,60.0,58.0,60,497.0,square3,j,0.037,2,V,11.0
V11,8.0,44.0,67.0,60.0,53.0,44,541.0,square1,f,0.349,0,V,11.0
V11,9.0,44.0,67.0,59.0,54.0,54,595.0,square4,r,0.275,3,V,11.0
V11,10.0,49.0,76.0,57.0,52.0,76,671.0,square2,i,0.303,1,V,11.0
V11,11.0,45.0,71.0,58.0,51.0,71,742.0,square2,i,0.267,1,V,11.0
V11,12.0,45.0,72.0,58.0,56.0,72,814.0,square2,i,0.445,1,V,11.0
V11,13.0,49.0,67.0,63.0,54.0,67,881.0,square2,i,0.271,1,V,11.0
V11,14.0,50.0,75.0,57.0,48.0,57,938.0,square3,j,0.294,2,V,11.0
V11,15.0,40.0,71.0,61.0,51.0,71,1009.0,square2,i,0.233,1,V,11.0
V11,16.0,47.0,72.0,56.0,54.0,72,1081.0,square2,i,0.278,1,V,11.0
V11,17.0,40.0,71.0,61.0,46.0,40,1121.0,square1,f,0.196,0,V,11.0
V11,18.0,44.0,69.0,59.0,51.0,51,1172.0,square4,r,0.036,3,V,11.0
V11,19.0,44.0,73.0,59.0,47.0,73,1245.0,square2,i,0.032,1,V,11.0
V11,20.0,47.0,69.0,64.0,54.0,69,1314.0,square2,i,0.715,1,V,11.0
V11,21.0,78.0,49.0,70.0,65.0,49,1363.0,square2,i,0.463,1,V,11.0
V11,22.0,78.0,56.0,73.0,62.0,73,1436.0,square3,j,0.022,2,V,11.0
V11,23.0,84.0,54.0,71.0,65.0,71,1507.0,square3,j,0.223,2,V,11.0
V11,24.0,80.0,55.0,72.0,67.0,72,1579.0,square3,j,0.558,2,V,11.0
V11,25.0,80.0,55.0,75.0,63.0,75,1654.0,square3,j,0.097,2,V,11.0
V11,26.0,80.0,56.0,67.0,62.0,67,1721.0,square3,j,1.273,2,V,11.0
V11,27.0,80.0,51.0,68.0,62.0,68,1789.0,square3,j,0.245,2,V,11.0
V11,28.0,79.0,57.0,67.0,57.0,57,1846.0,square4,r,0.866,3,V,11.0
V11,29.0,79.0,50.0,67.0,62.0,79,1925.0,square1,f,0.233,0,V,11.0
V11,30.0,88.0,54.0,74.0,61.0,88,2013.0,square1,f,0.255,0,V,11.0
V11,31.0,81.0,51.0,75.0,63.0,81,2094.0,square1,f,0.297,0,V,11.0
V11,32.0,76.0,51.0,69.0,65.0,76,2170.0,square1,f,0.304,0,V,11.0
V11,33.0,78.0,54.0,72.0,64.0,78,2248.0,square1,f,0.602,0,V,11.0
V11,34.0,77.0,53.0,71.0,62.0,71,2319.0,square3,j,0.415,2,V,11.0
V11,35.0,74.0,59.0,75.0,62.0,59,2378.0,square2,i,0.35,1,V,11.0
V11,36.0,79.0,50.0,72.0,62.0,79,2457.0,square1,f,0.381,0,V,11.0
V11,37.0,74.0,54.0,68.0,62.0,74,2531.0,square1,f,0.213,0,V,11.0
V11,38.0,80.0,57.0,65.0,58.0,80,2611.0,square1,f,0.259,0,V,11.0
V11,39.0,73.0,52.0,75.0,66.0,73,2684.0,square1,f,0.447,0,V,11.0
V11,40.0,82.0,57.0,71.0,57.0,57,2741.0,square4,r,0.237,3,V,11.0
V11,41.0,78.0,53.0,73.0,64.0,73,2814.0,square3,j,0.309,2,V,11.0
V11,42.0,72.0,56.0,67.0,59.0,67,2881.0,square3,j,0.362,2,V,11.0
V11,43.0,81.0,54.0,73.0,63.0,81,2962.0,square1,f,0.314,0,V,11.0
V11,44.0,76.0,54.0,75.0,59.0,76,3038.0,square1,f,0.264,0,V,11.0
V11,45.0,79.0,59.0,71.0,64.0,59,3097.0,square2,i,0.304,1,V,11.0
V11,46.0,80.0,55.0,67.0,57.0,57,3154.0,square4,r,0.858,3,V,11.0
V11,47.0,84.0,53.0,75.0,56.0,84,3238.0,square1,f,0.474,0,V,11.0
V11,48.0,83.0,57.0,71.0,60.0,83,3321.0,square1,f,0.144,0,V,11.0
V11,49.0,79.0,52.0,71.0,60.0,79,3400.0,square1,f,0.124,0,V,11.0
V11,50.0,76.0,50.0,69.0,60.0,76,3476.0,square1,f,0.182,0,V,11.0
V11,51.0,79.0,54.0,72.0,57.0,72,3548.0,square3,j,0.485,2,V,11.0
V11,52.0,80.0,54.0,72.0,64.0,80,3628.0,square1,f,0.332,0,V,11.0
V11,53.0,35.0,50.0,55.0,69.0,50,3678.0,square2,i,0.439,1,V,11.0
V11,54.0,45.0,48.0,55.0,73.0,45,3723.0,square1,f,0.435,0,V,11.0
V11,55.0,43.0,53.0,58.0,70.0,58,3781.0,square3,j,0.587,2,V,11.0
V11,56.0,40.0,46.0,60.0,62.0,62,3843.0,square4,r,0.357,3,V,11.0
V11,57.0,44.0,46.0,53.0,71.0,46,3889.0,square2,i,0.372,1,V,11.0
V11,58.0,44.0,52.0,55.0,68.0,68,3957.0,square4,r,0.262,3,V,11.0
V11,59.0,44.0,44.0,57.0,66.0,66,4023.0,square4,r,0.273,3,V,11.0
V11,60.0,40.0,46.0,57.0,62.0,62,4085.0,square4,r,0.283,3,V,11.0
V11,61.0,42.0,52.0,58.0,62.0,58,4143.0,square3,j,0.288,2,V,11.0
V11,62.0,40.0,49.0,56.0,71.0,40,4183.0,square1,f,0.421,0,V,11.0
V11,63.0,40.0,54.0,60.0,66.0,54,4237.0,square2,i,0.27,1,V,11.0
V11,64.0,41.0,43.0,51.0,66.0,66,4303.0,square4,r,0.304,3,V,11.0
V11,65.0,39.0,48.0,59.0,66.0,66,4369.0,square4,r,0.262,3,V,11.0
V11,66.0,40.0,48.0,59.0,69.0,69,4438.0,square4,r,0.307,3,V,11.0
V11,67.0,46.0,45.0,58.0,69.0,69,4507.0,square4,r,0.391,3,V,11.0
V11,68.0,41.0,50.0,56.0,69.0,69,4576.0,square4,r,0.309,3,V,11.0
V11,69.0,48.0,49.0,57.0,71.0,71,4647.0,square4,r,0.236,3,V,11.0
V11,70.0,41.0,47.0,58.0,65.0,58,4705.0,square3,j,0.369,2,V,11.0
V11,71.0,37.0,46.0,58.0,60.0,60,4765.0,square4,r,0.237,3,V,11.0
V11,72.0,41.0,47.0,54.0,65.0,65,4830.0,square4,r,0.405,3,V,11.0
V11,73.0,42.0,47.0,60.0,67.0,67,4897.0,square4,r,0.336,3,V,11.0
V11,74.0,43.0,49.0,57.0,64.0,64,4961.0,square4,r,0.338,3,V,11.0
V11,75.0,38.0,46.0,57.0,66.0,66,5027.0,square4,r,0.497,3,V,11.0
V11,76.0,42.0,50.0,58.0,68.0,50,5077.0,square2,i,0.228,1,V,11.0
V11,77.0,36.0,49.0,58.0,64.0,36,5113.0,square1,f,0.429,0,V,11.0
V11,78.0,40.0,50.0,56.0,67.0,56,5169.0,square3,j,0.569,2,V,11.0
V11,79.0,39.0,48.0,56.0,67.0,67,5236.0,square4,r,0.305,3,V,11.0
V11,80.0,51.0,33.0,30.0,45.0,45,5281.0,square4,r,0.207,3,V,11.0
V11,81.0,49.0,31.0,23.0,48.0,31,5312.0,square2,i,0.571,1,V,11.0
V11,82.0,55.0,30.0,25.0,42.0,55,5367.0,square1,f,0.415,0,V,11.0
V11,83.0,50.0,33.0,27.0,48.0,27,5394.0,square3,j,0.263,2,V,11.0
V11,84.0,52.0,34.0,25.0,43.0,52,5446.0,square1,f,0.323,0,V,11.0
V11,85.0,49.0,28.0,28.0,44.0,49,5495.0,square1,f,0.372,0,V,11.0
V11,86.0,57.0,29.0,27.0,48.0,48,5543.0,square4,r,0.15,3,V,11.0
V11,87.0,49.0,29.0,21.0,38.0,29,5572.0,square2,i,0.272,1,V,11.0
V11,88.0,55.0,32.0,29.0,46.0,55,5627.0,square1,f,0.303,0,V,11.0
V11,89.0,50.0,28.0,23.0,43.0,43,5670.0,square4,r,0.443,3,V,11.0
V11,90.0,54.0,34.0,32.0,41.0,32,5702.0,square3,j,0.312,2,V,11.0
V11,91.0,50.0,34.0,26.0,44.0,50,5752.0,square1,f,0.281,0,V,11.0
V11,92.0,51.0,31.0,27.0,50.0,51,5803.0,square1,f,0.415,0,V,11.0
V11,93.0,49.0,38.0,28.0,42.0,49,5852.0,square1,f,0.37,0,V,11.0
V11,94.0,50.0,29.0,25.0,46.0,29,5881.0,square2,i,0.195,1,V,11.0
V11,95.0,51.0,36.0,22.0,40.0,22,5903.0,square3,j,0.338,2,V,11.0
V11,96.0,52.0,34.0,32.0,45.0,52,5955.0,square1,f,0.266,0,V,11.0
V11,97.0,53.0,27.0,32.0,44.0,53,6008.0,square1,f,0.405,0,V,11.0
V11,98.0,60.0,31.0,25.0,48.0,60,6068.0,square1,f,0.498,0,V,11.0
V11,99.0,53.0,33.0,23.0,42.0,53,6121.0,square1,f,0.606,0,V,11.0
V3,0.0,62.0,45.0,70.0,53.0,45,45.0,square2,r,0.437,1,V,3.0
V3,1.0,63.0,47.0,76.0,60.0,63,108.0,square1,j,0.348,0,V,3.0
V3,2.0,65.0,54.0,73.0,57.0,57,165.0,square4,f,0.395,3,V,3.0
V3,3.0,68.0,51.0,71.0,51.0,68,233.0,square1,j,0.283,0,V,3.0
V3,4.0,61.0,49.0,75.0,53.0,61,294.0,square1,j,0.497,0,V,3.0
V3,5.0,65.0,47.0,74.0,50.0,74,368.0,square3,i,0.399,2,V,3.0
V3,6.0,61.0,51.0,72.0,57.0,72,440.0,square3,i,0.465,2,V,3.0
V3,7.0,67.0,49.0,75.0,55.0,75,515.0,square3,i,0.6,2,V,3.0
V3,8.0,64.0,48.0,76.0,56.0,76,591.0,square3,i,0.5,2,V,3.0
V3,9.0,67.0,49.0,71.0,56.0,71,662.0,square3,i,0.519,2,V,3.0
V3,10.0,65.0,50.0,71.0,56.0,71,733.0,square3,i,0.541,2,V,3.0
V3,11.0,63.0,43.0,78.0,58.0,78,811.0,square3,i,0.417,2,V,3.0
V3,12.0,66.0,53.0,73.0,54.0,73,884.0,square3,i,0.318,2,V,3.0
V3,13.0,64.0,46.0,78.0,51.0,46,930.0,square2,r,0.268,1,V,3.0
V3,14.0,67.0,51.0,71.0,58.0,58,988.0,square4,f,0.178,3,V,3.0
V3,15.0,61.0,50.0,73.0,54.0,61,1049.0,square1,j,0.234,0,V,3.0
V3,16.0,64.0,52.0,74.0,54.0,74,1123.0,square3,i,0.262,2,V,3.0
V3,17.0,61.0,48.0,74.0,55.0,74,1197.0,square3,i,0.3,2,V,3.0
V3,18.0,65.0,50.0,70.0,59.0,70,1267.0,square3,i,0.363,2,V,3.0
V3,19.0,64.0,52.0,76.0,56.0,76,1343.0,square3,i,0.396,2,V,3.0
V3,20.0,64.0,50.0,69.0,58.0,69,1412.0,square3,i,0.305,2,V,3.0
V3,21.0,66.0,50.0,72.0,56.0,66,1478.0,square1,j,0.285,0,V,3.0
V3,22.0,43.0,48.0,40.0,62.0,48,1526.0,square2,r,0.244,1,V,3.0
V3,23.0,41.0,51.0,35.0,59.0,59,1585.0,square4,f,0.195,3,V,3.0
V3,24.0,51.0,51.0,37.0,60.0,37,1622.0,square3,i,0.445,2,V,3.0
V3,25.0,45.0,53.0,36.0,57.0,57,1679.0,square4,f,0.315,3,V,3.0
V3,26.0,44.0,51.0,38.0,59.0,44,1723.0,square1,j,0.128,0,V,3.0
V3,27.0,43.0,51.0,34.0,66.0,51,1774.0,square2,r,0.094,1,V,3.0
V3,28.0,47.0,51.0,40.0,67.0,67,1841.0,square4,f,0.024,3,V,3.0
V3,29.0,42.0,55.0,35.0,65.0,65,1906.0,square4,f,1.181,3,V,3.0
V3,30.0,49.0,54.0,36.0,62.0,62,1968.0,square4,f,0.267,3,V,3.0
V3,31.0,50.0,53.0,42.0,66.0,66,2034.0,square4,f,0.328,3,V,3.0
V3,32.0,47.0,53.0,34.0,58.0,58,2092.0,square4,f,0.195,3,V,3.0
V3,33.0,45.0,56.0,34.0,62.0,62,2154.0,square4,f,0.177,3,V,3.0
V3,34.0,48.0,54.0,38.0,64.0,64,2218.0,square4,f,0.466,3,V,3.0
V3,35.0,39.0,55.0,42.0,65.0,39,2257.0,square1,j,0.315,0,V,3.0
V3,36.0,46.0,57.0,41.0,63.0,41,2298.0,square3,i,0.255,2,V,3.0
V3,37.0,43.0,54.0,41.0,65.0,54,2352.0,square2,r,0.25,1,V,3.0
V3,38.0,47.0,52.0,37.0,63.0,63,2415.0,square4,f,0.317,3,V,3.0
V3,39.0,47.0,53.0,38.0,55.0,55,2470.0,square4,f,0.3,3,V,3.0
V3,40.0,41.0,54.0,39.0,64.0,64,2534.0,square4,f,0.431,3,V,3.0
V3,41.0,48.0,52.0,38.0,64.0,64,2598.0,square4,f,0.451,3,V,3.0
V3,42.0,45.0,50.0,34.0,63.0,63,2661.0,square4,f,0.514,3,V,3.0
V3,43.0,44.0,50.0,34.0,62.0,62,2723.0,square4,f,0.404,3,V,3.0
V3,44.0,47.0,55.0,39.0,65.0,65,2788.0,square4,f,0.311,3,V,3.0
V3,45.0,45.0,55.0,31.0,63.0,63,2851.0,square4,f,0.308,3,V,3.0
V3,46.0,42.0,52.0,38.0,64.0,64,2915.0,square4,f,0.447,3,V,3.0
V3,47.0,44.0,53.0,37.0,55.0,55,2970.0,square4,f,0.277,3,V,3.0
V3,48.0,44.0,49.0,37.0,58.0,44,3014.0,square1,j,0.23,0,V,3.0
V3,49.0,48.0,58.0,35.0,54.0,58,3072.0,square2,r,0.287,1,V,3.0
V3,50.0,42.0,28.0,30.0,52.0,28,3100.0,square2,r,0.322,1,V,3.0
V3,51.0,46.0,29.0,32.0,51.0,51,3151.0,square4,f,0.251,3,V,3.0
V3,52.0,37.0,20.0,36.0,50.0,36,3187.0,square3,i,0.108,2,V,3.0
V3,53.0,44.0,22.0,34.0,55.0,44,3231.0,square1,j,0.356,0,V,3.0
V3,54.0,37.0,27.0,26.0,50.0,50,3281.0,square4,f,0.361,3,V,3.0
V3,55.0,41.0,21.0,39.0,53.0,53,3334.0,square4,f,0.158,3,V,3.0
V3,56.0,40.0,20.0,38.0,51.0,51,3385.0,square4,f,1.161,3,V,3.0
V3,57.0,44.0,28.0,31.0,57.0,31,3416.0,square3,i,0.276,2,V,3.0
V3,58.0,46.0,20.0,28.0,49.0,20,3436.0,square2,r,0.283,1,V,3.0
V3,59.0,44.0,24.0,30.0,55.0,44,3480.0,square1,j,0.297,0,V,3.0
V3,60.0,42.0,29.0,29.0,51.0,51,3531.0,square4,f,0.33,3,V,3.0
V3,61.0,41.0,21.0,30.0,46.0,46,3577.0,square4,f,0.311,3,V,3.0
V3,62.0,41.0,27.0,31.0,49.0,49,3626.0,square4,f,0.276,3,V,3.0
V3,63.0,42.0,27.0,34.0,51.0,51,3677.0,square4,f,0.621,3,V,3.0
V3,64.0,41.0,24.0,30.0,47.0,47,3724.0,square4,f,0.282,3,V,3.0
V3,65.0,36.0,18.0,34.0,48.0,48,3772.0,square4,f,0.513,3,V,3.0
V3,66.0,39.0,28.0,35.0,45.0,45,3817.0,square4,f,0.001,3,V,3.0
V3,67.0,42.0,21.0,32.0,46.0,46,3863.0,square4,f,0.15,3,V,3.0
V3,68.0,40.0,24.0,35.0,53.0,40,3903.0,square1,j,0.349,0,V,3.0
V3,69.0,48.0,23.0,34.0,50.0,34,3937.0,square3,i,0.349,2,V,3.0
V3,70.0,40.0,27.0,31.0,49.0,27,3964.0,square2,r,0.316,1,V,3.0
V3,71.0,41.0,23.0,28.0,51.0,51,4015.0,square4,f,0.407,3,V,3.0
V3,72.0,42.0,25.0,33.0,55.0,55,4070.0,square4,f,0.32,3,V,3.0
V3,73.0,41.0,24.0,35.0,55.0,55,4125.0,square4,f,0.295,3,V,3.0
V3,74.0,38.0,26.0,28.0,53.0,53,4178.0,square4,f,0.289,3,V,3.0
V3,75.0,54.0,39.0,69.0,50.0,50,4228.0,square4,f,0.081,3,V,3.0
V3,76.0,55.0,42.0,64.0,53.0,53,4281.0,square4,f,0.116,3,V,3.0
V3,77.0,59.0,37.0,66.0,44.0,44,4325.0,square4,f,0.492,3,V,3.0
V3,78.0,58.0,38.0,60.0,46.0,58,4383.0,square1,j,0.417,0,V,3.0
V3,79.0,54.0,35.0,66.0,49.0,54,4437.0,square1,j,0.351,0,V,3.0
V3,80.0,60.0,36.0,68.0,44.0,60,4497.0,square1,j,0.231,0,V,3.0
V3,81.0,55.0,38.0,66.0,51.0,55,4552.0,square1,j,0.262,0,V,3.0
V3,82.0,57.0,47.0,64.0,50.0,50,4602.0,square4,f,0.285,3,V,3.0
V3,83.0,57.0,37.0,63.0,45.0,57,4659.0,square1,j,0.241,0,V,3.0
V3,84.0,54.0,40.0,65.0,53.0,53,4712.0,square4,f,0.272,3,V,3.0
V3,85.0,58.0,41.0,63.0,48.0,58,4770.0,square1,j,0.062,0,V,3.0
V3,86.0,53.0,38.0,57.0,49.0,53,4823.0,square1,j,0.336,0,V,3.0
V3,87.0,49.0,42.0,60.0,43.0,49,4872.0,square1,j,0.195,0,V,3.0
V3,88.0,56.0,35.0,70.0,46.0,35,4907.0,square2,r,0.466,1,V,3.0
V3,89.0,58.0,39.0,63.0,52.0,63,4970.0,square3,i,0.277,2,V,3.0
V3,90.0,59.0,43.0,63.0,45.0,63,5033.0,square3,i,0.501,2,V,3.0
V3,91.0,54.0,37.0,69.0,49.0,69,5102.0,square3,i,0.278,2,V,3.0
V3,92.0,56.0,41.0,61.0,47.0,61,5163.0,square3,i,0.371,2,V,3.0
V3,93.0,58.0,35.0,68.0,47.0,68,5231.0,square3,i,0.37,2,V,3.0
V3,94.0,61.0,37.0,67.0,51.0,51,5282.0,square4,f,0.595,3,V,3.0
V3,95.0,57.0,32.0,64.0,47.0,64,5346.0,square3,i,0.197,2,V,3.0
V3,96.0,53.0,38.0,63.0,48.0,63,5409.0,square3,i,0.361,2,V,3.0
V3,97.0,57.0,44.0,71.0,50.0,71,5480.0,square3,i,0.277,2,V,3.0
V3,98.0,56.0,39.0,70.0,47.0,70,5550.0,square3,i,0.339,2,V,3.0
V3,99.0,62.0,40.0,67.0,49.0,67,5617.0,square3,i,0.714,2,V,3.0
