block,Trial,square1,square2,square3,square4,currPoints,totalPoints,square,choiceKey.keys,choiceKey.rt,armNum,blockType,blockNum
prac,0.0,100.0,0.0,0.0,0.0,0.0,0.0,square4,,,3,p,0.0
prac,1.0,100.0,0.0,0.0,0.0,0.0,0.0,square3,,,2,p,0.0
prac,2.0,100.0,0.0,0.0,0.0,0.0,0.0,square2,,,1,p,0.0
prac,3.0,100.0,0.0,0.0,0.0,100.0,100.0,square1,,,0,p,0.0
prac,4.0,100.0,0.0,0.0,0.0,100.0,200.0,square1,,,0,p,0.0
prac,5.0,100.0,0.0,0.0,0.0,100.0,300.0,square1,,,0,p,0.0
prac,6.0,100.0,0.0,0.0,0.0,100.0,400.0,square1,,,0,p,0.0
prac,7.0,100.0,0.0,0.0,0.0,100.0,500.0,square1,,,0,p,0.0
prac,8.0,100.0,0.0,0.0,0.0,100.0,600.0,square1,,,0,p,0.0
prac,9.0,100.0,0.0,0.0,0.0,100.0,700.0,square1,,,0,p,0.0
S1,0.0,72.0,58.0,70.0,66.0,70.0,70.0,square3,j,0.164,2,S,1.0
S1,1.0,75.0,64.0,66.0,69.0,75.0,145.0,square1,r,0.359,0,S,1.0
S1,2.0,75.0,62.0,62.0,79.0,79.0,224.0,square4,f,0.17,3,S,1.0
S1,3.0,68.0,62.0,63.0,69.0,62.0,286.0,square2,i,0.036,1,S,1.0
S1,4.0,82.0,63.0,64.0,73.0,73.0,359.0,square4,f,0.165,3,S,1.0
S1,5.0,66.0,70.0,65.0,73.0,73.0,432.0,square4,f,0.071,3,S,1.0
S1,6.0,73.0,65.0,62.0,65.0,73.0,505.0,square1,r,0.314,0,S,1.0
S1,7.0,70.0,61.0,65.0,66.0,61.0,566.0,square2,i,0.034,1,S,1.0
S1,8.0,78.0,63.0,67.0,68.0,67.0,633.0,square3,j,0.337,2,S,1.0
S1,9.0,74.0,67.0,66.0,68.0,68.0,701.0,square4,f,0.164,3,S,1.0
S1,10.0,73.0,59.0,68.0,68.0,68.0,769.0,square4,f,0.063,3,S,1.0
S1,11.0,76.0,65.0,62.0,81.0,81.0,850.0,square4,f,0.035,3,S,1.0
S1,12.0,77.0,66.0,69.0,63.0,63.0,913.0,square4,f,0.01,3,S,1.0
S1,13.0,75.0,63.0,68.0,73.0,73.0,986.0,square4,f,0.134,3,S,1.0
S1,14.0,67.0,60.0,67.0,69.0,69.0,1055.0,square4,f,0.119,3,S,1.0
S1,15.0,70.0,63.0,69.0,73.0,73.0,1128.0,square4,f,0.129,3,S,1.0
S1,16.0,69.0,61.0,69.0,69.0,69.0,1197.0,square4,f,0.067,3,S,1.0
S1,17.0,73.0,68.0,67.0,73.0,73.0,1270.0,square1,r,0.171,0,S,1.0
S1,18.0,70.0,58.0,73.0,66.0,66.0,1336.0,square4,f,0.228,3,S,1.0
S1,19.0,75.0,58.0,62.0,68.0,62.0,1398.0,square3,j,0.366,2,S,1.0
S1,20.0,76.0,58.0,72.0,67.0,58.0,1456.0,square2,i,0.2,1,S,1.0
S1,21.0,69.0,66.0,66.0,67.0,67.0,1523.0,square4,f,0.01,3,S,1.0
S1,22.0,70.0,68.0,65.0,65.0,65.0,1588.0,square4,f,0.001,3,S,1.0
S1,23.0,71.0,60.0,64.0,64.0,64.0,1652.0,square4,f,0.037,3,S,1.0
S1,24.0,70.0,72.0,62.0,67.0,67.0,1719.0,square4,f,0.13,3,S,1.0
S1,25.0,68.0,60.0,70.0,65.0,65.0,1784.0,square4,f,0.001,3,S,1.0
S1,26.0,76.0,64.0,72.0,69.0,69.0,1853.0,square4,f,0.182,3,S,1.0
S1,27.0,71.0,56.0,70.0,65.0,65.0,1918.0,square4,f,0.273,3,S,1.0
S1,28.0,67.0,67.0,71.0,76.0,76.0,1994.0,square4,f,0.258,3,S,1.0
S1,29.0,78.0,64.0,64.0,74.0,74.0,2068.0,square4,f,0.158,3,S,1.0
S1,30.0,74.0,63.0,65.0,71.0,71.0,2139.0,square4,f,0.088,3,S,1.0
S1,31.0,78.0,58.0,69.0,69.0,69.0,2208.0,square4,f,0.2,3,S,1.0
S1,32.0,71.0,67.0,68.0,60.0,60.0,2268.0,square4,f,0.144,3,S,1.0
S1,33.0,68.0,63.0,65.0,73.0,73.0,2341.0,square4,f,0.182,3,S,1.0
S1,34.0,71.0,62.0,74.0,73.0,73.0,2414.0,square4,f,0.013,3,S,1.0
S1,35.0,75.0,59.0,67.0,77.0,77.0,2491.0,square4,f,0.12,3,S,1.0
S1,36.0,77.0,60.0,66.0,67.0,67.0,2558.0,square4,f,0.058,3,S,1.0
S1,37.0,69.0,60.0,69.0,75.0,75.0,2633.0,square4,f,0.17,3,S,1.0
S1,38.0,77.0,64.0,62.0,70.0,70.0,2703.0,square4,f,0.134,3,S,1.0
S1,39.0,72.0,66.0,69.0,65.0,65.0,2768.0,square4,f,0.036,3,S,1.0
S1,40.0,69.0,63.0,66.0,69.0,69.0,2837.0,square4,f,0.324,3,S,1.0
S1,41.0,72.0,62.0,70.0,70.0,70.0,2907.0,square4,f,0.181,3,S,1.0
S1,42.0,78.0,60.0,63.0,62.0,62.0,2969.0,square4,f,0.158,3,S,1.0
S1,43.0,71.0,62.0,67.0,73.0,73.0,3042.0,square4,f,0.034,3,S,1.0
S1,44.0,75.0,63.0,69.0,73.0,73.0,3115.0,square4,f,0.014,3,S,1.0
S1,45.0,66.0,60.0,68.0,73.0,73.0,3188.0,square4,f,0.003,3,S,1.0
S1,46.0,74.0,67.0,69.0,71.0,71.0,3259.0,square4,f,0.0,3,S,1.0
S1,47.0,71.0,66.0,68.0,70.0,70.0,3329.0,square4,f,0.257,3,S,1.0
S1,48.0,72.0,75.0,71.0,77.0,77.0,3406.0,square4,f,0.001,3,S,1.0
S1,49.0,65.0,57.0,66.0,75.0,75.0,3481.0,square4,f,0.151,3,S,1.0
S2,0.0,62.0,57.0,71.0,74.0,71.0,71.0,square3,i,0.237,2,S,2.0
S2,1.0,64.0,59.0,72.0,67.0,67.0,138.0,square4,j,0.421,3,S,2.0
S2,2.0,68.0,57.0,75.0,68.0,68.0,206.0,square1,f,0.06,0,S,2.0
S2,3.0,69.0,57.0,80.0,70.0,57.0,263.0,square2,r,0.044,1,S,2.0
S2,4.0,66.0,60.0,74.0,68.0,74.0,337.0,square3,i,0.153,2,S,2.0
S2,5.0,63.0,62.0,77.0,72.0,72.0,409.0,square4,j,0.258,3,S,2.0
S2,6.0,69.0,61.0,75.0,74.0,69.0,478.0,square1,f,0.001,0,S,2.0
S2,7.0,74.0,66.0,79.0,72.0,66.0,544.0,square2,r,0.093,1,S,2.0
S2,8.0,81.0,65.0,76.0,72.0,76.0,620.0,square3,i,0.332,2,S,2.0
S2,9.0,70.0,66.0,78.0,70.0,70.0,690.0,square4,j,0.235,3,S,2.0
S2,10.0,70.0,72.0,70.0,74.0,70.0,760.0,square1,f,0.501,0,S,2.0
S2,11.0,64.0,66.0,72.0,67.0,66.0,826.0,square2,r,0.221,1,S,2.0
S2,12.0,66.0,57.0,70.0,67.0,70.0,896.0,square3,i,0.291,2,S,2.0
S2,13.0,68.0,68.0,71.0,73.0,71.0,967.0,square3,i,0.325,2,S,2.0
S2,14.0,70.0,63.0,77.0,71.0,77.0,1044.0,square3,i,0.128,2,S,2.0
S2,15.0,64.0,66.0,75.0,66.0,75.0,1119.0,square3,i,0.066,2,S,2.0
S2,16.0,67.0,61.0,73.0,70.0,73.0,1192.0,square3,i,0.193,2,S,2.0
S2,17.0,65.0,58.0,71.0,75.0,71.0,1263.0,square3,i,0.174,2,S,2.0
S2,18.0,72.0,64.0,81.0,61.0,81.0,1344.0,square3,i,0.255,2,S,2.0
S2,19.0,60.0,63.0,72.0,65.0,60.0,1404.0,square1,f,0.222,0,S,2.0
S2,20.0,68.0,56.0,71.0,70.0,56.0,1460.0,square2,r,0.335,1,S,2.0
S2,21.0,65.0,65.0,74.0,71.0,71.0,1531.0,square4,j,0.287,3,S,2.0
S2,22.0,69.0,62.0,77.0,72.0,77.0,1608.0,square3,i,0.098,2,S,2.0
S2,23.0,64.0,71.0,74.0,65.0,74.0,1682.0,square3,i,0.046,2,S,2.0
S2,24.0,66.0,62.0,78.0,70.0,78.0,1760.0,square3,i,0.022,2,S,2.0
S2,25.0,67.0,69.0,76.0,66.0,76.0,1836.0,square3,i,0.061,2,S,2.0
S2,26.0,65.0,63.0,74.0,69.0,74.0,1910.0,square3,i,0.169,2,S,2.0
S2,27.0,68.0,64.0,67.0,68.0,67.0,1977.0,square3,i,0.12,2,S,2.0
S2,28.0,61.0,52.0,71.0,68.0,71.0,2048.0,square3,i,0.041,2,S,2.0
S2,29.0,67.0,64.0,73.0,69.0,73.0,2121.0,square3,i,0.194,2,S,2.0
S2,30.0,67.0,53.0,77.0,67.0,77.0,2198.0,square3,i,0.202,2,S,2.0
S2,31.0,67.0,69.0,69.0,68.0,69.0,2267.0,square3,i,0.155,2,S,2.0
S2,32.0,71.0,63.0,73.0,70.0,73.0,2340.0,square3,i,0.182,2,S,2.0
S2,33.0,61.0,65.0,68.0,71.0,68.0,2408.0,square3,i,0.121,2,S,2.0
S2,34.0,66.0,55.0,78.0,68.0,78.0,2486.0,square3,i,0.228,2,S,2.0
S2,35.0,60.0,57.0,66.0,66.0,66.0,2552.0,square3,i,0.235,2,S,2.0
S2,36.0,64.0,63.0,73.0,72.0,73.0,2625.0,square3,i,0.059,2,S,2.0
S2,37.0,65.0,62.0,75.0,68.0,75.0,2700.0,square3,i,0.098,2,S,2.0
S2,38.0,69.0,57.0,71.0,62.0,71.0,2771.0,square3,i,0.08,2,S,2.0
S2,39.0,72.0,66.0,74.0,74.0,74.0,2845.0,square3,i,0.046,2,S,2.0
S2,40.0,66.0,63.0,76.0,59.0,76.0,2921.0,square3,i,0.185,2,S,2.0
S2,41.0,74.0,64.0,67.0,76.0,67.0,2988.0,square3,i,0.251,2,S,2.0
S2,42.0,62.0,67.0,72.0,68.0,72.0,3060.0,square3,i,0.001,2,S,2.0
S2,43.0,69.0,63.0,75.0,71.0,75.0,3135.0,square3,i,0.294,2,S,2.0
S2,44.0,72.0,60.0,74.0,67.0,74.0,3209.0,square3,i,0.001,2,S,2.0
S2,45.0,69.0,63.0,76.0,73.0,76.0,3285.0,square3,i,0.208,2,S,2.0
S2,46.0,64.0,71.0,75.0,72.0,75.0,3360.0,square3,i,0.203,2,S,2.0
S2,47.0,75.0,62.0,75.0,69.0,75.0,3435.0,square3,i,0.057,2,S,2.0
S2,48.0,66.0,65.0,74.0,68.0,74.0,3509.0,square3,i,0.245,2,S,2.0
S2,49.0,67.0,64.0,72.0,76.0,72.0,3581.0,square3,i,0.196,2,S,2.0
S12,0.0,38.0,42.0,30.0,42.0,42.0,42.0,square2,f,0.413,1,S,12.0
S12,1.0,30.0,42.0,28.0,37.0,28.0,70.0,square3,r,0.286,2,S,12.0
S12,2.0,34.0,41.0,38.0,43.0,34.0,104.0,square1,j,0.16,0,S,12.0
S12,3.0,38.0,51.0,38.0,38.0,38.0,142.0,square4,i,0.141,3,S,12.0
S12,4.0,32.0,37.0,33.0,45.0,37.0,179.0,square2,f,0.061,1,S,12.0
S12,5.0,38.0,52.0,36.0,35.0,52.0,231.0,square2,f,0.044,1,S,12.0
S12,6.0,30.0,43.0,30.0,38.0,30.0,261.0,square3,r,0.087,2,S,12.0
S12,7.0,38.0,39.0,30.0,39.0,39.0,300.0,square4,i,0.175,3,S,12.0
S12,8.0,37.0,49.0,35.0,38.0,49.0,349.0,square2,f,0.375,1,S,12.0
S12,9.0,37.0,44.0,29.0,38.0,37.0,386.0,square1,j,0.014,0,S,12.0
S12,10.0,35.0,42.0,30.0,45.0,42.0,428.0,square2,f,0.036,1,S,12.0
S12,11.0,34.0,45.0,36.0,32.0,45.0,473.0,square2,f,0.108,1,S,12.0
S12,12.0,33.0,45.0,35.0,42.0,45.0,518.0,square2,f,0.054,1,S,12.0
S12,13.0,36.0,36.0,29.0,40.0,36.0,554.0,square2,f,0.199,1,S,12.0
S12,14.0,36.0,49.0,32.0,42.0,49.0,603.0,square2,f,0.058,1,S,12.0
S12,15.0,35.0,43.0,35.0,46.0,43.0,646.0,square2,f,0.163,1,S,12.0
S12,16.0,39.0,48.0,41.0,43.0,48.0,694.0,square2,f,0.091,1,S,12.0
S12,17.0,35.0,47.0,27.0,38.0,47.0,741.0,square2,f,0.074,1,S,12.0
S12,18.0,37.0,51.0,33.0,33.0,51.0,792.0,square2,f,0.171,1,S,12.0
S12,19.0,41.0,42.0,33.0,36.0,42.0,834.0,square2,f,0.115,1,S,12.0
S12,20.0,34.0,44.0,26.0,41.0,44.0,878.0,square2,f,0.144,1,S,12.0
S12,21.0,35.0,37.0,29.0,35.0,37.0,915.0,square2,f,0.043,1,S,12.0
S12,22.0,37.0,48.0,31.0,41.0,48.0,963.0,square2,f,0.054,1,S,12.0
S12,23.0,36.0,43.0,27.0,45.0,43.0,1006.0,square2,f,0.216,1,S,12.0
S12,24.0,39.0,48.0,38.0,38.0,48.0,1054.0,square2,f,0.045,1,S,12.0
S12,25.0,31.0,43.0,30.0,40.0,43.0,1097.0,square2,f,0.157,1,S,12.0
S12,26.0,35.0,48.0,34.0,33.0,48.0,1145.0,square2,f,0.056,1,S,12.0
S12,27.0,46.0,46.0,28.0,38.0,46.0,1191.0,square2,f,0.174,1,S,12.0
S12,28.0,32.0,37.0,32.0,40.0,37.0,1228.0,square2,f,0.203,1,S,12.0
S12,29.0,38.0,41.0,32.0,44.0,41.0,1269.0,square2,f,0.161,1,S,12.0
S12,30.0,32.0,48.0,29.0,42.0,48.0,1317.0,square2,f,0.178,1,S,12.0
S12,31.0,34.0,46.0,30.0,42.0,46.0,1363.0,square2,f,0.183,1,S,12.0
S12,32.0,39.0,43.0,41.0,40.0,43.0,1406.0,square2,f,0.095,1,S,12.0
S12,33.0,36.0,47.0,33.0,46.0,47.0,1453.0,square2,f,0.02,1,S,12.0
S12,34.0,36.0,41.0,34.0,41.0,41.0,1494.0,square2,f,0.001,1,S,12.0
S12,35.0,34.0,42.0,31.0,43.0,42.0,1536.0,square2,f,0.26,1,S,12.0
S12,36.0,39.0,43.0,26.0,33.0,43.0,1579.0,square2,f,0.001,1,S,12.0
S12,37.0,39.0,49.0,30.0,42.0,49.0,1628.0,square2,f,0.283,1,S,12.0
S12,38.0,33.0,47.0,36.0,41.0,47.0,1675.0,square2,f,0.176,1,S,12.0
S12,39.0,29.0,46.0,35.0,36.0,46.0,1721.0,square2,f,0.055,1,S,12.0
S12,40.0,39.0,39.0,29.0,36.0,39.0,1760.0,square2,f,0.194,1,S,12.0
S12,41.0,33.0,44.0,31.0,40.0,44.0,1804.0,square2,f,0.298,1,S,12.0
S12,42.0,34.0,46.0,25.0,37.0,46.0,1850.0,square2,f,0.11,1,S,12.0
S12,43.0,37.0,42.0,30.0,42.0,42.0,1892.0,square2,f,0.095,1,S,12.0
S12,44.0,33.0,49.0,36.0,39.0,49.0,1941.0,square2,f,0.001,1,S,12.0
S12,45.0,35.0,40.0,30.0,47.0,40.0,1981.0,square2,f,0.089,1,S,12.0
S12,46.0,40.0,41.0,29.0,35.0,41.0,2022.0,square2,f,0.15,1,S,12.0
S12,47.0,32.0,42.0,28.0,43.0,42.0,2064.0,square2,f,0.059,1,S,12.0
S12,48.0,43.0,47.0,31.0,38.0,47.0,2111.0,square2,f,0.004,1,S,12.0
S12,49.0,37.0,41.0,35.0,40.0,41.0,2152.0,square2,f,0.053,1,S,12.0
S8,0.0,58.0,60.0,52.0,45.0,52.0,52.0,square3,j,0.334,2,S,8.0
S8,1.0,55.0,57.0,56.0,52.0,55.0,107.0,square1,f,0.075,0,S,8.0
S8,2.0,54.0,58.0,58.0,49.0,49.0,156.0,square4,r,0.181,3,S,8.0
S8,3.0,55.0,62.0,52.0,53.0,62.0,218.0,square2,i,0.244,1,S,8.0
S8,4.0,55.0,60.0,49.0,51.0,55.0,273.0,square1,f,0.241,0,S,8.0
S8,5.0,48.0,63.0,61.0,49.0,61.0,334.0,square3,j,0.253,2,S,8.0
S8,6.0,58.0,63.0,59.0,55.0,55.0,389.0,square4,r,0.103,3,S,8.0
S8,7.0,56.0,53.0,49.0,51.0,53.0,442.0,square2,i,0.214,1,S,8.0
S8,8.0,61.0,63.0,66.0,49.0,66.0,508.0,square3,j,0.215,2,S,8.0
S8,9.0,60.0,59.0,53.0,47.0,60.0,568.0,square1,f,0.269,0,S,8.0
S8,10.0,55.0,63.0,52.0,55.0,55.0,623.0,square4,r,0.264,3,S,8.0
S8,11.0,62.0,60.0,54.0,50.0,60.0,683.0,square2,i,0.01,1,S,8.0
S8,12.0,58.0,64.0,51.0,52.0,51.0,734.0,square3,j,0.17,2,S,8.0
S8,13.0,62.0,59.0,53.0,53.0,53.0,787.0,square3,j,0.193,2,S,8.0
S8,14.0,51.0,62.0,61.0,54.0,61.0,848.0,square3,j,0.138,2,S,8.0
S8,15.0,56.0,68.0,56.0,50.0,68.0,916.0,square2,i,0.033,1,S,8.0
S8,16.0,58.0,64.0,56.0,50.0,64.0,980.0,square2,i,0.001,1,S,8.0
S8,17.0,64.0,63.0,60.0,42.0,63.0,1043.0,square2,i,0.174,1,S,8.0
S8,18.0,54.0,64.0,57.0,55.0,64.0,1107.0,square2,i,0.159,1,S,8.0
S8,19.0,56.0,53.0,57.0,53.0,53.0,1160.0,square2,i,0.02,1,S,8.0
S8,20.0,59.0,64.0,56.0,49.0,64.0,1224.0,square2,i,0.151,1,S,8.0
S8,21.0,54.0,59.0,55.0,48.0,59.0,1283.0,square2,i,0.193,1,S,8.0
S8,22.0,63.0,63.0,59.0,49.0,49.0,1332.0,square4,r,0.38,3,S,8.0
S8,23.0,59.0,60.0,48.0,52.0,59.0,1391.0,square1,f,0.127,0,S,8.0
S8,24.0,55.0,53.0,60.0,50.0,50.0,1441.0,square4,r,0.137,3,S,8.0
S8,25.0,57.0,60.0,55.0,54.0,57.0,1498.0,square1,f,0.158,0,S,8.0
S8,26.0,62.0,66.0,57.0,58.0,66.0,1564.0,square2,i,0.199,1,S,8.0
S8,27.0,58.0,55.0,52.0,48.0,55.0,1619.0,square2,i,0.119,1,S,8.0
S8,28.0,53.0,59.0,53.0,55.0,59.0,1678.0,square2,i,0.078,1,S,8.0
S8,29.0,60.0,58.0,57.0,53.0,58.0,1736.0,square2,i,0.093,1,S,8.0
S8,30.0,57.0,67.0,52.0,56.0,67.0,1803.0,square2,i,0.02,1,S,8.0
S8,31.0,60.0,58.0,52.0,50.0,58.0,1861.0,square2,i,0.122,1,S,8.0
S8,32.0,54.0,61.0,56.0,57.0,61.0,1922.0,square2,i,0.099,1,S,8.0
S8,33.0,66.0,64.0,63.0,52.0,64.0,1986.0,square2,i,0.126,1,S,8.0
S8,34.0,54.0,65.0,66.0,56.0,65.0,2051.0,square2,i,0.123,1,S,8.0
S8,35.0,54.0,62.0,61.0,48.0,62.0,2113.0,square2,i,0.096,1,S,8.0
S8,36.0,53.0,63.0,54.0,55.0,63.0,2176.0,square2,i,0.081,1,S,8.0
S8,37.0,64.0,58.0,57.0,51.0,58.0,2234.0,square2,i,0.193,1,S,8.0
S8,38.0,68.0,65.0,59.0,57.0,65.0,2299.0,square2,i,0.073,1,S,8.0
S8,39.0,64.0,65.0,51.0,55.0,65.0,2364.0,square2,i,0.024,1,S,8.0
S8,40.0,63.0,61.0,57.0,47.0,61.0,2425.0,square2,i,0.001,1,S,8.0
S8,41.0,65.0,58.0,55.0,49.0,58.0,2483.0,square2,i,0.107,1,S,8.0
S8,42.0,52.0,60.0,51.0,56.0,60.0,2543.0,square2,i,0.084,1,S,8.0
S8,43.0,63.0,57.0,48.0,50.0,57.0,2600.0,square2,i,0.075,1,S,8.0
S8,44.0,59.0,63.0,53.0,53.0,63.0,2663.0,square2,i,0.172,1,S,8.0
S8,45.0,62.0,62.0,60.0,53.0,62.0,2725.0,square2,i,0.12,1,S,8.0
S8,46.0,56.0,62.0,57.0,60.0,62.0,2787.0,square2,i,0.221,1,S,8.0
S8,47.0,60.0,63.0,58.0,56.0,63.0,2850.0,square2,i,0.028,1,S,8.0
S8,48.0,59.0,63.0,49.0,53.0,63.0,2913.0,square2,i,0.237,1,S,8.0
S8,49.0,67.0,67.0,59.0,55.0,67.0,2980.0,square2,i,0.104,1,S,8.0
S10,0.0,72.0,76.0,80.0,64.0,72.0,72.0,square1,i,0.12,0,S,10.0
S10,1.0,76.0,75.0,74.0,65.0,75.0,147.0,square2,r,0.105,1,S,10.0
S10,2.0,70.0,72.0,79.0,74.0,79.0,226.0,square3,f,0.062,2,S,10.0
S10,3.0,69.0,77.0,76.0,68.0,68.0,294.0,square4,j,0.096,3,S,10.0
S10,4.0,72.0,79.0,77.0,70.0,77.0,371.0,square3,f,0.271,2,S,10.0
S10,5.0,68.0,74.0,72.0,64.0,74.0,445.0,square2,r,0.182,1,S,10.0
S10,6.0,70.0,77.0,72.0,62.0,70.0,515.0,square1,i,0.084,0,S,10.0
S10,7.0,78.0,81.0,80.0,74.0,80.0,595.0,square3,f,0.345,2,S,10.0
S10,8.0,78.0,78.0,82.0,66.0,82.0,677.0,square3,f,0.055,2,S,10.0
S10,9.0,69.0,76.0,77.0,65.0,77.0,754.0,square3,f,0.01,2,S,10.0
S10,10.0,72.0,78.0,72.0,75.0,72.0,826.0,square3,f,0.226,2,S,10.0
S10,11.0,71.0,76.0,78.0,66.0,66.0,892.0,square4,j,0.195,3,S,10.0
S10,12.0,73.0,83.0,79.0,69.0,79.0,971.0,square3,f,0.099,2,S,10.0
S10,13.0,68.0,77.0,65.0,65.0,65.0,1036.0,square3,f,0.114,2,S,10.0
S10,14.0,69.0,84.0,79.0,65.0,79.0,1115.0,square3,f,0.032,2,S,10.0
S10,15.0,72.0,84.0,70.0,71.0,70.0,1185.0,square3,f,0.052,2,S,10.0
S10,16.0,79.0,80.0,82.0,67.0,82.0,1267.0,square3,f,0.167,2,S,10.0
S10,17.0,69.0,83.0,75.0,70.0,75.0,1342.0,square3,f,0.001,2,S,10.0
S10,18.0,69.0,75.0,69.0,68.0,69.0,1411.0,square3,f,0.026,2,S,10.0
S10,19.0,70.0,83.0,73.0,66.0,73.0,1484.0,square3,f,0.124,2,S,10.0
S10,20.0,69.0,83.0,75.0,66.0,75.0,1559.0,square3,f,0.026,2,S,10.0
S10,21.0,77.0,70.0,75.0,70.0,75.0,1634.0,square3,f,0.125,2,S,10.0
S10,22.0,73.0,77.0,81.0,69.0,81.0,1715.0,square3,f,0.148,2,S,10.0
S10,23.0,73.0,78.0,70.0,65.0,70.0,1785.0,square3,f,0.001,2,S,10.0
S10,24.0,70.0,80.0,75.0,66.0,75.0,1860.0,square3,f,0.237,2,S,10.0
S10,25.0,70.0,80.0,73.0,72.0,73.0,1933.0,square3,f,0.068,2,S,10.0
S10,26.0,73.0,75.0,73.0,75.0,73.0,2006.0,square3,f,0.061,2,S,10.0
S10,27.0,77.0,81.0,83.0,66.0,83.0,2089.0,square3,f,0.134,2,S,10.0
S10,28.0,73.0,79.0,79.0,73.0,79.0,2168.0,square3,f,0.147,2,S,10.0
S10,29.0,73.0,79.0,72.0,69.0,72.0,2240.0,square3,f,0.036,2,S,10.0
S10,30.0,71.0,85.0,79.0,69.0,79.0,2319.0,square3,f,0.032,2,S,10.0
S10,31.0,71.0,85.0,83.0,66.0,83.0,2402.0,square3,f,0.011,2,S,10.0
S10,32.0,78.0,79.0,77.0,65.0,77.0,2479.0,square3,f,0.184,2,S,10.0
S10,33.0,83.0,79.0,72.0,68.0,72.0,2551.0,square3,f,0.186,2,S,10.0
S10,34.0,68.0,74.0,79.0,72.0,79.0,2630.0,square3,f,0.156,2,S,10.0
S10,35.0,70.0,83.0,79.0,67.0,79.0,2709.0,square3,f,0.128,2,S,10.0
S10,36.0,67.0,76.0,75.0,72.0,75.0,2784.0,square3,f,0.531,2,S,10.0
S10,37.0,76.0,82.0,79.0,60.0,79.0,2863.0,square3,f,0.159,2,S,10.0
S10,38.0,72.0,75.0,69.0,68.0,69.0,2932.0,square3,f,0.013,2,S,10.0
S10,39.0,73.0,78.0,76.0,70.0,76.0,3008.0,square3,f,0.001,2,S,10.0
S10,40.0,76.0,77.0,66.0,60.0,66.0,3074.0,square3,f,0.138,2,S,10.0
S10,41.0,74.0,83.0,73.0,67.0,73.0,3147.0,square3,f,0.049,2,S,10.0
S10,42.0,72.0,69.0,80.0,63.0,80.0,3227.0,square3,f,0.167,2,S,10.0
S10,43.0,69.0,74.0,72.0,68.0,72.0,3299.0,square3,f,0.169,2,S,10.0
S10,44.0,67.0,76.0,70.0,65.0,70.0,3369.0,square3,f,0.309,2,S,10.0
S10,45.0,76.0,81.0,74.0,72.0,74.0,3443.0,square3,f,0.134,2,S,10.0
S10,46.0,76.0,79.0,76.0,66.0,76.0,3519.0,square3,f,0.017,2,S,10.0
S10,47.0,67.0,81.0,84.0,60.0,84.0,3603.0,square3,f,0.048,2,S,10.0
S10,48.0,73.0,83.0,75.0,66.0,75.0,3678.0,square3,f,0.152,2,S,10.0
S10,49.0,66.0,77.0,74.0,71.0,74.0,3752.0,square3,f,1.329,2,S,10.0
S5,0.0,90.0,70.0,79.0,84.0,79.0,79.0,square3,i,0.322,2,S,5.0
S5,1.0,92.0,77.0,83.0,81.0,81.0,160.0,square4,r,0.169,3,S,5.0
S5,2.0,83.0,72.0,81.0,76.0,72.0,232.0,square2,f,0.205,1,S,5.0
S5,3.0,87.0,72.0,79.0,81.0,87.0,319.0,square1,j,0.057,0,S,5.0
S5,4.0,86.0,81.0,78.0,72.0,72.0,391.0,square4,r,0.009,3,S,5.0
S5,5.0,89.0,70.0,79.0,83.0,79.0,470.0,square3,i,0.103,2,S,5.0
S5,6.0,86.0,69.0,81.0,81.0,81.0,551.0,square4,r,0.044,3,S,5.0
S5,7.0,82.0,72.0,86.0,80.0,86.0,637.0,square3,i,0.125,2,S,5.0
S5,8.0,84.0,67.0,80.0,77.0,77.0,714.0,square4,r,0.054,3,S,5.0
S5,9.0,92.0,80.0,86.0,84.0,92.0,806.0,square1,j,0.051,0,S,5.0
S5,10.0,82.0,71.0,80.0,80.0,82.0,888.0,square1,j,0.0,0,S,5.0
S5,11.0,80.0,75.0,79.0,75.0,79.0,967.0,square3,i,0.126,2,S,5.0
S5,12.0,84.0,75.0,80.0,82.0,84.0,1051.0,square1,j,0.001,0,S,5.0
S5,13.0,85.0,74.0,74.0,81.0,74.0,1125.0,square3,i,0.14,2,S,5.0
S5,14.0,81.0,79.0,85.0,81.0,81.0,1206.0,square1,j,0.154,0,S,5.0
S5,15.0,81.0,75.0,76.0,77.0,76.0,1282.0,square3,i,0.159,2,S,5.0
S5,16.0,86.0,74.0,78.0,74.0,86.0,1368.0,square1,j,0.183,0,S,5.0
S5,17.0,81.0,77.0,81.0,77.0,81.0,1449.0,square1,j,0.137,0,S,5.0
S5,18.0,87.0,70.0,84.0,82.0,87.0,1536.0,square1,j,0.123,0,S,5.0
S5,19.0,84.0,76.0,83.0,76.0,84.0,1620.0,square1,j,0.001,0,S,5.0
S5,20.0,79.0,78.0,82.0,76.0,79.0,1699.0,square1,j,0.076,0,S,5.0
S5,21.0,86.0,68.0,80.0,72.0,68.0,1767.0,square2,f,1.12,1,S,5.0
S5,22.0,93.0,80.0,85.0,84.0,93.0,1860.0,square1,j,0.045,0,S,5.0
S5,23.0,87.0,73.0,76.0,70.0,87.0,1947.0,square1,j,0.21,0,S,5.0
S5,24.0,85.0,69.0,81.0,78.0,85.0,2032.0,square1,j,0.022,0,S,5.0
S5,25.0,89.0,77.0,77.0,76.0,89.0,2121.0,square1,j,0.001,0,S,5.0
S5,26.0,84.0,71.0,81.0,75.0,84.0,2205.0,square1,j,0.072,0,S,5.0
S5,27.0,84.0,75.0,82.0,71.0,84.0,2289.0,square1,j,0.191,0,S,5.0
S5,28.0,83.0,72.0,82.0,78.0,83.0,2372.0,square1,j,0.06,0,S,5.0
S5,29.0,91.0,67.0,79.0,74.0,91.0,2463.0,square1,j,0.025,0,S,5.0
S5,30.0,82.0,69.0,81.0,77.0,82.0,2545.0,square1,j,0.126,0,S,5.0
S5,31.0,82.0,72.0,80.0,78.0,82.0,2627.0,square1,j,0.148,0,S,5.0
S5,32.0,83.0,73.0,91.0,80.0,83.0,2710.0,square1,j,0.001,0,S,5.0
S5,33.0,83.0,68.0,85.0,78.0,83.0,2793.0,square1,j,0.141,0,S,5.0
S5,34.0,89.0,79.0,83.0,77.0,89.0,2882.0,square1,j,0.096,0,S,5.0
S5,35.0,88.0,72.0,79.0,80.0,88.0,2970.0,square1,j,0.033,0,S,5.0
S5,36.0,90.0,74.0,84.0,76.0,90.0,3060.0,square1,j,0.051,0,S,5.0
S5,37.0,85.0,75.0,80.0,82.0,85.0,3145.0,square1,j,0.129,0,S,5.0
S5,38.0,78.0,74.0,85.0,79.0,78.0,3223.0,square1,j,0.037,0,S,5.0
S5,39.0,87.0,73.0,87.0,85.0,87.0,3310.0,square1,j,0.016,0,S,5.0
S5,40.0,83.0,67.0,81.0,80.0,83.0,3393.0,square1,j,0.001,0,S,5.0
S5,41.0,82.0,69.0,88.0,80.0,82.0,3475.0,square1,j,0.189,0,S,5.0
S5,42.0,85.0,78.0,91.0,80.0,85.0,3560.0,square1,j,0.077,0,S,5.0
S5,43.0,89.0,74.0,78.0,74.0,89.0,3649.0,square1,j,0.001,0,S,5.0
S5,44.0,90.0,74.0,77.0,85.0,90.0,3739.0,square1,j,0.001,0,S,5.0
S5,45.0,89.0,68.0,81.0,78.0,89.0,3828.0,square1,j,0.134,0,S,5.0
S5,46.0,86.0,70.0,86.0,68.0,86.0,3914.0,square1,j,0.166,0,S,5.0
S5,47.0,90.0,77.0,85.0,84.0,90.0,4004.0,square1,j,0.15,0,S,5.0
S5,48.0,76.0,66.0,82.0,79.0,76.0,4080.0,square1,j,0.153,0,S,5.0
S5,49.0,84.0,73.0,82.0,75.0,84.0,4164.0,square1,j,0.001,0,S,5.0
V12,0.0,47.0,30.0,38.0,55.0,47.0,47.0,square1,i,0.479,0,V,12.0
V12,1.0,46.0,33.0,39.0,57.0,39.0,86.0,square3,f,0.08,2,V,12.0
V12,2.0,51.0,29.0,42.0,52.0,29.0,115.0,square2,r,0.236,1,V,12.0
V12,3.0,52.0,30.0,38.0,62.0,62.0,177.0,square4,j,0.093,3,V,12.0
V12,4.0,48.0,30.0,39.0,62.0,30.0,207.0,square2,r,0.187,1,V,12.0
V12,5.0,55.0,34.0,43.0,61.0,61.0,268.0,square4,j,0.134,3,V,12.0
V12,6.0,45.0,35.0,42.0,56.0,56.0,324.0,square4,j,0.036,3,V,12.0
V12,7.0,48.0,29.0,35.0,57.0,57.0,381.0,square4,j,0.134,3,V,12.0
V12,8.0,46.0,33.0,38.0,59.0,59.0,440.0,square4,j,0.001,3,V,12.0
V12,9.0,44.0,31.0,42.0,56.0,56.0,496.0,square4,j,0.004,3,V,12.0
V12,10.0,48.0,34.0,45.0,55.0,55.0,551.0,square4,j,0.026,3,V,12.0
V12,11.0,45.0,32.0,41.0,55.0,55.0,606.0,square4,j,0.019,3,V,12.0
V12,12.0,52.0,26.0,42.0,57.0,57.0,663.0,square4,j,0.215,3,V,12.0
V12,13.0,56.0,31.0,41.0,54.0,54.0,717.0,square4,j,0.058,3,V,12.0
V12,14.0,44.0,34.0,40.0,64.0,44.0,761.0,square1,i,0.09,0,V,12.0
V12,15.0,48.0,32.0,39.0,61.0,39.0,800.0,square3,f,0.093,2,V,12.0
V12,16.0,49.0,33.0,37.0,58.0,33.0,833.0,square2,r,0.118,1,V,12.0
V12,17.0,45.0,33.0,43.0,57.0,57.0,890.0,square4,j,0.092,3,V,12.0
V12,18.0,45.0,28.0,40.0,58.0,58.0,948.0,square4,j,0.001,3,V,12.0
V12,19.0,42.0,33.0,43.0,59.0,59.0,1007.0,square4,j,0.127,3,V,12.0
V12,20.0,46.0,30.0,38.0,62.0,62.0,1069.0,square4,j,0.159,3,V,12.0
V12,21.0,46.0,35.0,40.0,55.0,55.0,1124.0,square4,j,0.042,3,V,12.0
V12,22.0,46.0,34.0,36.0,63.0,63.0,1187.0,square4,j,0.001,3,V,12.0
V12,23.0,54.0,34.0,42.0,56.0,56.0,1243.0,square4,j,0.031,3,V,12.0
V12,24.0,44.0,30.0,41.0,59.0,59.0,1302.0,square4,j,0.048,3,V,12.0
V12,25.0,49.0,33.0,37.0,64.0,64.0,1366.0,square4,j,0.05,3,V,12.0
V12,26.0,52.0,34.0,39.0,57.0,57.0,1423.0,square4,j,0.143,3,V,12.0
V12,27.0,50.0,26.0,37.0,55.0,55.0,1478.0,square4,j,0.048,3,V,12.0
V12,28.0,41.0,29.0,46.0,21.0,21.0,1499.0,square4,j,0.014,3,V,12.0
V12,29.0,41.0,28.0,51.0,20.0,41.0,1540.0,square1,i,0.235,0,V,12.0
V12,30.0,32.0,31.0,46.0,22.0,31.0,1571.0,square2,r,0.139,1,V,12.0
V12,31.0,38.0,28.0,45.0,22.0,45.0,1616.0,square3,f,0.151,2,V,12.0
V12,32.0,35.0,27.0,44.0,16.0,44.0,1660.0,square3,f,0.207,2,V,12.0
V12,33.0,39.0,29.0,49.0,21.0,49.0,1709.0,square3,f,0.029,2,V,12.0
V12,34.0,39.0,28.0,49.0,15.0,49.0,1758.0,square3,f,0.086,2,V,12.0
V12,35.0,36.0,29.0,50.0,17.0,50.0,1808.0,square3,f,0.114,2,V,12.0
V12,36.0,41.0,28.0,48.0,12.0,48.0,1856.0,square3,f,0.001,2,V,12.0
V12,37.0,34.0,29.0,46.0,25.0,46.0,1902.0,square3,f,0.072,2,V,12.0
V12,38.0,38.0,28.0,51.0,19.0,51.0,1953.0,square3,f,0.155,2,V,12.0
V12,39.0,39.0,31.0,45.0,13.0,45.0,1998.0,square3,f,0.116,2,V,12.0
V12,40.0,35.0,28.0,46.0,26.0,46.0,2044.0,square3,f,0.039,2,V,12.0
V12,41.0,38.0,27.0,46.0,20.0,46.0,2090.0,square3,f,0.047,2,V,12.0
V12,42.0,40.0,26.0,50.0,23.0,50.0,2140.0,square3,f,0.063,2,V,12.0
V12,43.0,33.0,30.0,45.0,18.0,45.0,2185.0,square3,f,0.113,2,V,12.0
V12,44.0,39.0,31.0,46.0,22.0,46.0,2231.0,square3,f,0.146,2,V,12.0
V12,45.0,32.0,26.0,42.0,20.0,42.0,2273.0,square3,f,0.05,2,V,12.0
V12,46.0,36.0,29.0,43.0,24.0,43.0,2316.0,square3,f,0.083,2,V,12.0
V12,47.0,37.0,30.0,46.0,21.0,46.0,2362.0,square3,f,0.065,2,V,12.0
V12,48.0,37.0,27.0,44.0,19.0,44.0,2406.0,square3,f,0.198,2,V,12.0
V12,49.0,36.0,33.0,55.0,16.0,55.0,2461.0,square3,f,0.158,2,V,12.0
V12,50.0,45.0,28.0,44.0,18.0,44.0,2505.0,square3,f,0.107,2,V,12.0
V12,51.0,35.0,32.0,49.0,19.0,49.0,2554.0,square3,f,0.027,2,V,12.0
V12,52.0,36.0,56.0,31.0,52.0,31.0,2585.0,square3,f,0.118,2,V,12.0
V12,53.0,36.0,57.0,29.0,45.0,29.0,2614.0,square3,f,0.052,2,V,12.0
V12,54.0,38.0,61.0,28.0,51.0,38.0,2652.0,square1,i,0.136,0,V,12.0
V12,55.0,35.0,60.0,29.0,47.0,35.0,2687.0,square1,i,0.381,0,V,12.0
V12,56.0,34.0,62.0,29.0,46.0,62.0,2749.0,square2,r,0.096,1,V,12.0
V12,57.0,43.0,57.0,32.0,46.0,46.0,2795.0,square4,j,0.118,3,V,12.0
V12,58.0,40.0,59.0,32.0,50.0,50.0,2845.0,square4,j,0.001,3,V,12.0
V12,59.0,41.0,62.0,33.0,48.0,62.0,2907.0,square2,r,0.096,1,V,12.0
V12,60.0,36.0,61.0,32.0,49.0,61.0,2968.0,square2,r,0.132,1,V,12.0
V12,61.0,39.0,56.0,32.0,44.0,56.0,3024.0,square2,r,0.149,1,V,12.0
V12,62.0,39.0,57.0,30.0,46.0,57.0,3081.0,square2,r,0.205,1,V,12.0
V12,63.0,42.0,53.0,29.0,46.0,53.0,3134.0,square2,r,0.167,1,V,12.0
V12,64.0,35.0,57.0,32.0,50.0,57.0,3191.0,square2,r,0.015,1,V,12.0
V12,65.0,44.0,58.0,32.0,49.0,58.0,3249.0,square2,r,0.009,1,V,12.0
V12,66.0,44.0,56.0,29.0,52.0,56.0,3305.0,square2,r,0.066,1,V,12.0
V12,67.0,41.0,60.0,30.0,49.0,60.0,3365.0,square2,r,0.192,1,V,12.0
V12,68.0,42.0,58.0,32.0,45.0,58.0,3423.0,square2,r,0.185,1,V,12.0
V12,69.0,36.0,60.0,33.0,50.0,60.0,3483.0,square2,r,0.066,1,V,12.0
V12,70.0,36.0,57.0,27.0,46.0,57.0,3540.0,square2,r,0.141,1,V,12.0
V12,71.0,41.0,59.0,32.0,48.0,59.0,3599.0,square2,r,0.166,1,V,12.0
V12,72.0,34.0,59.0,31.0,49.0,59.0,3658.0,square2,r,0.16,1,V,12.0
V12,73.0,71.0,53.0,65.0,49.0,53.0,3711.0,square2,r,0.105,1,V,12.0
V12,74.0,69.0,49.0,63.0,45.0,49.0,3760.0,square2,r,0.195,1,V,12.0
V12,75.0,72.0,51.0,56.0,46.0,51.0,3811.0,square2,r,0.198,1,V,12.0
V12,76.0,72.0,48.0,58.0,43.0,48.0,3859.0,square2,r,0.031,1,V,12.0
V12,77.0,74.0,57.0,59.0,44.0,57.0,3916.0,square2,r,0.028,1,V,12.0
V12,78.0,69.0,55.0,63.0,50.0,55.0,3971.0,square2,r,0.022,1,V,12.0
V12,79.0,73.0,53.0,58.0,43.0,53.0,4024.0,square2,r,0.188,1,V,12.0
V12,80.0,71.0,47.0,65.0,40.0,47.0,4071.0,square2,r,0.143,1,V,12.0
V12,81.0,66.0,49.0,57.0,40.0,49.0,4120.0,square2,r,0.174,1,V,12.0
V12,82.0,71.0,53.0,57.0,48.0,53.0,4173.0,square2,r,0.168,1,V,12.0
V12,83.0,70.0,50.0,56.0,49.0,50.0,4223.0,square2,r,0.106,1,V,12.0
V12,84.0,69.0,45.0,64.0,43.0,45.0,4268.0,square2,r,0.185,1,V,12.0
V12,85.0,64.0,48.0,54.0,42.0,48.0,4316.0,square2,r,0.024,1,V,12.0
V12,86.0,71.0,49.0,63.0,44.0,49.0,4365.0,square2,r,0.292,1,V,12.0
V12,87.0,72.0,52.0,55.0,42.0,52.0,4417.0,square2,r,0.207,1,V,12.0
V12,88.0,64.0,48.0,59.0,44.0,48.0,4465.0,square2,r,0.204,1,V,12.0
V12,89.0,69.0,48.0,62.0,45.0,48.0,4513.0,square2,r,0.07,1,V,12.0
V12,90.0,68.0,56.0,60.0,42.0,68.0,4581.0,square1,i,0.186,0,V,12.0
V12,91.0,69.0,52.0,62.0,45.0,69.0,4650.0,square1,i,0.018,0,V,12.0
V12,92.0,65.0,50.0,64.0,47.0,65.0,4715.0,square1,i,0.027,0,V,12.0
V12,93.0,68.0,51.0,62.0,43.0,68.0,4783.0,square1,i,0.19,0,V,12.0
V12,94.0,68.0,52.0,60.0,38.0,68.0,4851.0,square1,i,0.027,0,V,12.0
V12,95.0,71.0,52.0,58.0,47.0,71.0,4922.0,square1,i,0.041,0,V,12.0
V12,96.0,66.0,49.0,59.0,44.0,66.0,4988.0,square1,i,0.089,0,V,12.0
V12,97.0,74.0,47.0,54.0,47.0,74.0,5062.0,square1,i,0.145,0,V,12.0
V12,98.0,68.0,43.0,64.0,41.0,68.0,5130.0,square1,i,0.2,0,V,12.0
V12,99.0,71.0,53.0,62.0,44.0,71.0,5201.0,square1,i,1.099,0,V,12.0
V4,0.0,63.0,38.0,47.0,55.0,47.0,47.0,square3,i,0.531,2,V,4.0
V4,1.0,66.0,42.0,43.0,59.0,66.0,113.0,square1,r,0.024,0,V,4.0
V4,2.0,66.0,39.0,57.0,59.0,59.0,172.0,square4,f,0.073,3,V,4.0
V4,3.0,66.0,37.0,51.0,59.0,37.0,209.0,square2,j,0.071,1,V,4.0
V4,4.0,69.0,37.0,50.0,55.0,69.0,278.0,square1,r,0.17,0,V,4.0
V4,5.0,64.0,44.0,46.0,62.0,46.0,324.0,square3,i,0.018,2,V,4.0
V4,6.0,75.0,43.0,49.0,57.0,43.0,367.0,square2,j,0.126,1,V,4.0
V4,7.0,62.0,41.0,52.0,59.0,59.0,426.0,square4,f,0.019,3,V,4.0
V4,8.0,65.0,41.0,44.0,60.0,65.0,491.0,square1,r,0.227,0,V,4.0
V4,9.0,68.0,35.0,44.0,64.0,68.0,559.0,square1,r,0.022,0,V,4.0
V4,10.0,67.0,44.0,48.0,61.0,61.0,620.0,square4,f,0.066,3,V,4.0
V4,11.0,61.0,40.0,48.0,56.0,56.0,676.0,square4,f,0.062,3,V,4.0
V4,12.0,68.0,41.0,49.0,55.0,68.0,744.0,square1,r,0.051,0,V,4.0
V4,13.0,63.0,42.0,47.0,60.0,63.0,807.0,square1,r,0.013,0,V,4.0
V4,14.0,63.0,40.0,51.0,55.0,63.0,870.0,square1,r,0.248,0,V,4.0
V4,15.0,62.0,41.0,52.0,62.0,62.0,932.0,square1,r,0.006,0,V,4.0
V4,16.0,69.0,37.0,47.0,60.0,69.0,1001.0,square1,r,0.193,0,V,4.0
V4,17.0,66.0,40.0,48.0,56.0,66.0,1067.0,square1,r,0.172,0,V,4.0
V4,18.0,67.0,43.0,47.0,59.0,67.0,1134.0,square1,r,0.203,0,V,4.0
V4,19.0,64.0,42.0,51.0,59.0,64.0,1198.0,square1,r,0.247,0,V,4.0
V4,20.0,67.0,40.0,47.0,58.0,67.0,1265.0,square1,r,0.001,0,V,4.0
V4,21.0,60.0,41.0,50.0,59.0,60.0,1325.0,square1,r,0.135,0,V,4.0
V4,22.0,66.0,43.0,54.0,55.0,66.0,1391.0,square1,r,0.184,0,V,4.0
V4,23.0,67.0,37.0,50.0,62.0,67.0,1458.0,square1,r,0.207,0,V,4.0
V4,24.0,67.0,37.0,49.0,60.0,60.0,1518.0,square4,f,0.133,3,V,4.0
V4,25.0,67.0,39.0,55.0,52.0,55.0,1573.0,square3,i,0.035,2,V,4.0
V4,26.0,64.0,39.0,51.0,63.0,39.0,1612.0,square2,j,0.027,1,V,4.0
V4,27.0,68.0,36.0,55.0,60.0,60.0,1672.0,square4,f,0.226,3,V,4.0
V4,28.0,67.0,40.0,46.0,54.0,46.0,1718.0,square3,i,0.11,2,V,4.0
V4,29.0,67.0,41.0,50.0,57.0,67.0,1785.0,square1,r,0.151,0,V,4.0
V4,30.0,66.0,39.0,49.0,53.0,66.0,1851.0,square1,r,0.171,0,V,4.0
V4,31.0,70.0,38.0,48.0,58.0,70.0,1921.0,square1,r,0.089,0,V,4.0
V4,32.0,63.0,40.0,53.0,61.0,63.0,1984.0,square1,r,0.217,0,V,4.0
V4,33.0,66.0,41.0,51.0,56.0,66.0,2050.0,square1,r,0.312,0,V,4.0
V4,34.0,64.0,39.0,46.0,57.0,64.0,2114.0,square1,r,0.045,0,V,4.0
V4,35.0,69.0,36.0,50.0,58.0,69.0,2183.0,square1,r,0.04,0,V,4.0
V4,36.0,60.0,43.0,53.0,54.0,60.0,2243.0,square1,r,0.048,0,V,4.0
V4,37.0,52.0,78.0,68.0,66.0,52.0,2295.0,square1,r,0.112,0,V,4.0
V4,38.0,44.0,81.0,68.0,62.0,68.0,2363.0,square3,i,0.042,2,V,4.0
V4,39.0,59.0,71.0,70.0,63.0,70.0,2433.0,square3,i,0.163,2,V,4.0
V4,40.0,53.0,77.0,73.0,59.0,73.0,2506.0,square3,i,0.001,2,V,4.0
V4,41.0,53.0,76.0,74.0,66.0,76.0,2582.0,square2,j,0.115,1,V,4.0
V4,42.0,51.0,79.0,73.0,59.0,59.0,2641.0,square4,f,0.004,3,V,4.0
V4,43.0,48.0,76.0,68.0,65.0,68.0,2709.0,square3,i,0.059,2,V,4.0
V4,44.0,57.0,83.0,78.0,63.0,83.0,2792.0,square2,j,0.001,1,V,4.0
V4,45.0,54.0,74.0,69.0,61.0,74.0,2866.0,square2,j,0.026,1,V,4.0
V4,46.0,53.0,85.0,66.0,62.0,85.0,2951.0,square2,j,0.088,1,V,4.0
V4,47.0,56.0,83.0,68.0,57.0,83.0,3034.0,square2,j,0.016,1,V,4.0
V4,48.0,49.0,74.0,73.0,59.0,74.0,3108.0,square2,j,0.19,1,V,4.0
V4,49.0,54.0,74.0,70.0,60.0,74.0,3182.0,square2,j,0.049,1,V,4.0
V4,50.0,47.0,83.0,69.0,60.0,83.0,3265.0,square2,j,0.078,1,V,4.0
V4,51.0,54.0,78.0,73.0,56.0,78.0,3343.0,square2,j,0.1,1,V,4.0
V4,52.0,52.0,76.0,71.0,58.0,76.0,3419.0,square2,j,0.187,1,V,4.0
V4,53.0,51.0,82.0,76.0,63.0,82.0,3501.0,square2,j,0.176,1,V,4.0
V4,54.0,57.0,76.0,69.0,64.0,76.0,3577.0,square2,j,0.135,1,V,4.0
V4,55.0,49.0,75.0,68.0,59.0,75.0,3652.0,square2,j,0.117,1,V,4.0
V4,56.0,55.0,81.0,66.0,65.0,81.0,3733.0,square2,j,0.15,1,V,4.0
V4,57.0,58.0,80.0,72.0,63.0,72.0,3805.0,square3,i,0.02,2,V,4.0
V4,58.0,49.0,81.0,66.0,62.0,81.0,3886.0,square2,j,0.119,1,V,4.0
V4,59.0,57.0,78.0,73.0,59.0,78.0,3964.0,square2,j,0.184,1,V,4.0
V4,60.0,48.0,79.0,66.0,59.0,59.0,4023.0,square4,f,0.047,3,V,4.0
V4,61.0,53.0,80.0,72.0,60.0,53.0,4076.0,square1,r,0.002,0,V,4.0
V4,62.0,53.0,79.0,70.0,61.0,79.0,4155.0,square2,j,0.128,1,V,4.0
V4,63.0,81.0,66.0,90.0,66.0,66.0,4221.0,square2,j,0.094,1,V,4.0
V4,64.0,80.0,64.0,85.0,76.0,85.0,4306.0,square3,i,0.181,2,V,4.0
V4,65.0,77.0,61.0,92.0,74.0,74.0,4380.0,square4,f,0.206,3,V,4.0
V4,66.0,89.0,65.0,91.0,73.0,89.0,4469.0,square1,r,0.029,0,V,4.0
V4,67.0,86.0,64.0,92.0,70.0,86.0,4555.0,square1,r,0.164,0,V,4.0
V4,68.0,82.0,60.0,91.0,77.0,82.0,4637.0,square1,r,0.053,0,V,4.0
V4,69.0,78.0,69.0,90.0,70.0,90.0,4727.0,square3,i,0.292,2,V,4.0
V4,70.0,85.0,64.0,95.0,73.0,95.0,4822.0,square3,i,0.14,2,V,4.0
V4,71.0,85.0,61.0,88.0,69.0,88.0,4910.0,square3,i,0.195,2,V,4.0
V4,72.0,86.0,63.0,87.0,75.0,87.0,4997.0,square3,i,0.155,2,V,4.0
V4,73.0,86.0,69.0,92.0,70.0,92.0,5089.0,square3,i,0.024,2,V,4.0
V4,74.0,81.0,62.0,90.0,69.0,90.0,5179.0,square3,i,0.138,2,V,4.0
V4,75.0,83.0,66.0,88.0,74.0,88.0,5267.0,square3,i,0.0,2,V,4.0
V4,76.0,80.0,64.0,92.0,75.0,92.0,5359.0,square3,i,0.618,2,V,4.0
V4,77.0,81.0,65.0,91.0,74.0,91.0,5450.0,square3,i,0.102,2,V,4.0
V4,78.0,78.0,70.0,89.0,73.0,89.0,5539.0,square3,i,0.0,2,V,4.0
V4,79.0,84.0,66.0,85.0,75.0,85.0,5624.0,square3,i,0.05,2,V,4.0
V4,80.0,83.0,65.0,93.0,74.0,93.0,5717.0,square3,i,0.173,2,V,4.0
V4,81.0,86.0,59.0,91.0,74.0,91.0,5808.0,square3,i,0.158,2,V,4.0
V4,82.0,87.0,64.0,92.0,73.0,64.0,5872.0,square2,j,0.172,1,V,4.0
V4,83.0,83.0,68.0,86.0,70.0,70.0,5942.0,square4,f,0.211,3,V,4.0
V4,84.0,82.0,62.0,87.0,73.0,82.0,6024.0,square1,r,0.0,0,V,4.0
V4,85.0,85.0,61.0,90.0,70.0,90.0,6114.0,square3,i,0.015,2,V,4.0
V4,86.0,84.0,66.0,97.0,71.0,97.0,6211.0,square3,i,0.141,2,V,4.0
V4,87.0,82.0,64.0,87.0,71.0,87.0,6298.0,square3,i,0.098,2,V,4.0
V4,88.0,80.0,67.0,93.0,72.0,93.0,6391.0,square3,i,0.177,2,V,4.0
V4,89.0,78.0,64.0,92.0,75.0,92.0,6483.0,square3,i,0.028,2,V,4.0
V4,90.0,75.0,66.0,88.0,72.0,88.0,6571.0,square3,i,0.192,2,V,4.0
V4,91.0,82.0,59.0,91.0,76.0,91.0,6662.0,square3,i,0.015,2,V,4.0
V4,92.0,84.0,62.0,91.0,70.0,91.0,6753.0,square3,i,0.142,2,V,4.0
V4,93.0,80.0,61.0,94.0,76.0,94.0,6847.0,square3,i,0.111,2,V,4.0
V4,94.0,83.0,64.0,88.0,72.0,88.0,6935.0,square3,i,0.144,2,V,4.0
V4,95.0,82.0,60.0,94.0,69.0,94.0,7029.0,square3,i,0.001,2,V,4.0
V4,96.0,84.0,63.0,92.0,72.0,92.0,7121.0,square3,i,0.001,2,V,4.0
V4,97.0,84.0,62.0,85.0,70.0,85.0,7206.0,square3,i,0.073,2,V,4.0
V4,98.0,81.0,64.0,93.0,72.0,93.0,7299.0,square3,i,0.119,2,V,4.0
V4,99.0,80.0,61.0,92.0,75.0,92.0,7391.0,square3,i,0.051,2,V,4.0
V5,0.0,46.0,21.0,37.0,28.0,46.0,46.0,square1,i,0.3,0,V,5.0
V5,1.0,43.0,27.0,36.0,31.0,31.0,77.0,square4,r,0.034,3,V,5.0
V5,2.0,50.0,18.0,43.0,32.0,18.0,95.0,square2,f,0.013,1,V,5.0
V5,3.0,53.0,23.0,36.0,34.0,36.0,131.0,square3,j,0.001,2,V,5.0
V5,4.0,52.0,19.0,38.0,34.0,52.0,183.0,square1,i,0.046,0,V,5.0
V5,5.0,50.0,22.0,41.0,29.0,50.0,233.0,square1,i,0.001,0,V,5.0
V5,6.0,52.0,19.0,40.0,33.0,52.0,285.0,square1,i,0.012,0,V,5.0
V5,7.0,48.0,24.0,36.0,27.0,48.0,333.0,square1,i,0.16,0,V,5.0
V5,8.0,50.0,24.0,35.0,33.0,50.0,383.0,square1,i,0.173,0,V,5.0
V5,9.0,48.0,25.0,39.0,34.0,48.0,431.0,square1,i,0.2,0,V,5.0
V5,10.0,52.0,19.0,32.0,34.0,52.0,483.0,square1,i,0.008,0,V,5.0
V5,11.0,48.0,22.0,32.0,32.0,48.0,531.0,square1,i,0.179,0,V,5.0
V5,12.0,47.0,17.0,43.0,29.0,47.0,578.0,square1,i,0.085,0,V,5.0
V5,13.0,46.0,21.0,42.0,29.0,46.0,624.0,square1,i,0.026,0,V,5.0
V5,14.0,47.0,28.0,42.0,28.0,47.0,671.0,square1,i,0.043,0,V,5.0
V5,15.0,50.0,29.0,38.0,36.0,50.0,721.0,square1,i,0.099,0,V,5.0
V5,16.0,49.0,24.0,36.0,34.0,49.0,770.0,square1,i,0.195,0,V,5.0
V5,17.0,50.0,20.0,38.0,35.0,50.0,820.0,square1,i,0.092,0,V,5.0
V5,18.0,49.0,22.0,46.0,29.0,49.0,869.0,square1,i,0.098,0,V,5.0
V5,19.0,46.0,23.0,40.0,31.0,46.0,915.0,square1,i,0.124,0,V,5.0
V5,20.0,51.0,22.0,41.0,28.0,51.0,966.0,square1,i,0.073,0,V,5.0
V5,21.0,51.0,26.0,36.0,31.0,51.0,1017.0,square1,i,0.048,0,V,5.0
V5,22.0,47.0,18.0,41.0,28.0,47.0,1064.0,square1,i,0.057,0,V,5.0
V5,23.0,52.0,20.0,36.0,29.0,52.0,1116.0,square1,i,0.13,0,V,5.0
V5,24.0,51.0,21.0,41.0,34.0,51.0,1167.0,square1,i,0.048,0,V,5.0
V5,25.0,50.0,20.0,41.0,27.0,50.0,1217.0,square1,i,0.023,0,V,5.0
V5,26.0,49.0,29.0,37.0,28.0,49.0,1266.0,square1,i,0.162,0,V,5.0
V5,27.0,10.0,13.0,42.0,32.0,10.0,1276.0,square1,i,0.25,0,V,5.0
V5,28.0,9.0,19.0,40.0,27.0,9.0,1285.0,square1,i,0.209,0,V,5.0
V5,29.0,17.0,17.0,38.0,29.0,17.0,1302.0,square1,i,0.053,0,V,5.0
V5,30.0,8.0,18.0,36.0,29.0,8.0,1310.0,square1,i,0.09,0,V,5.0
V5,31.0,16.0,24.0,34.0,29.0,16.0,1326.0,square1,i,0.02,0,V,5.0
V5,32.0,9.0,17.0,35.0,31.0,9.0,1335.0,square1,i,0.001,0,V,5.0
V5,33.0,11.0,19.0,36.0,28.0,11.0,1346.0,square1,i,0.026,0,V,5.0
V5,34.0,10.0,19.0,38.0,28.0,28.0,1374.0,square4,r,0.03,3,V,5.0
V5,35.0,5.0,23.0,40.0,34.0,23.0,1397.0,square2,f,0.157,1,V,5.0
V5,36.0,17.0,20.0,36.0,31.0,36.0,1433.0,square3,j,0.018,2,V,5.0
V5,37.0,12.0,13.0,36.0,30.0,36.0,1469.0,square3,j,0.095,2,V,5.0
V5,38.0,14.0,24.0,35.0,27.0,27.0,1496.0,square4,r,0.194,3,V,5.0
V5,39.0,13.0,20.0,39.0,32.0,39.0,1535.0,square3,j,0.105,2,V,5.0
V5,40.0,9.0,15.0,37.0,24.0,37.0,1572.0,square3,j,0.101,2,V,5.0
V5,41.0,9.0,14.0,38.0,31.0,38.0,1610.0,square3,j,0.087,2,V,5.0
V5,42.0,14.0,17.0,43.0,31.0,43.0,1653.0,square3,j,0.182,2,V,5.0
V5,43.0,10.0,18.0,39.0,23.0,39.0,1692.0,square3,j,0.046,2,V,5.0
V5,44.0,10.0,20.0,33.0,32.0,33.0,1725.0,square3,j,0.113,2,V,5.0
V5,45.0,16.0,17.0,37.0,29.0,37.0,1762.0,square3,j,0.223,2,V,5.0
V5,46.0,9.0,22.0,37.0,25.0,37.0,1799.0,square3,j,0.001,2,V,5.0
V5,47.0,10.0,22.0,35.0,26.0,10.0,1809.0,square1,i,0.127,0,V,5.0
V5,48.0,11.0,16.0,39.0,23.0,39.0,1848.0,square3,j,0.075,2,V,5.0
V5,49.0,13.0,16.0,33.0,27.0,33.0,1881.0,square3,j,0.084,2,V,5.0
V5,50.0,12.0,16.0,39.0,24.0,39.0,1920.0,square3,j,0.103,2,V,5.0
V5,51.0,10.0,21.0,43.0,28.0,43.0,1963.0,square3,j,0.166,2,V,5.0
V5,52.0,8.0,15.0,36.0,28.0,36.0,1999.0,square3,j,0.166,2,V,5.0
V5,53.0,38.0,20.0,31.0,54.0,31.0,2030.0,square3,j,0.185,2,V,5.0
V5,54.0,39.0,20.0,35.0,51.0,35.0,2065.0,square3,j,0.034,2,V,5.0
V5,55.0,41.0,21.0,27.0,50.0,27.0,2092.0,square3,j,0.115,2,V,5.0
V5,56.0,39.0,23.0,28.0,49.0,23.0,2115.0,square2,f,0.046,1,V,5.0
V5,57.0,36.0,28.0,29.0,59.0,59.0,2174.0,square4,r,0.17,3,V,5.0
V5,58.0,38.0,22.0,28.0,49.0,49.0,2223.0,square4,r,0.029,3,V,5.0
V5,59.0,44.0,23.0,30.0,51.0,51.0,2274.0,square4,r,0.001,3,V,5.0
V5,60.0,43.0,21.0,31.0,48.0,48.0,2322.0,square4,r,0.005,3,V,5.0
V5,61.0,39.0,24.0,35.0,50.0,50.0,2372.0,square4,r,0.061,3,V,5.0
V5,62.0,38.0,25.0,31.0,52.0,52.0,2424.0,square4,r,0.109,3,V,5.0
V5,63.0,41.0,14.0,31.0,52.0,52.0,2476.0,square4,r,0.165,3,V,5.0
V5,64.0,43.0,23.0,30.0,51.0,51.0,2527.0,square4,r,0.12,3,V,5.0
V5,65.0,41.0,23.0,35.0,52.0,52.0,2579.0,square4,r,0.027,3,V,5.0
V5,66.0,41.0,17.0,33.0,47.0,47.0,2626.0,square4,r,0.275,3,V,5.0
V5,67.0,44.0,23.0,32.0,49.0,49.0,2675.0,square4,r,0.0,3,V,5.0
V5,68.0,44.0,24.0,31.0,44.0,44.0,2719.0,square4,r,0.168,3,V,5.0
V5,69.0,43.0,28.0,27.0,48.0,48.0,2767.0,square4,r,0.051,3,V,5.0
V5,70.0,38.0,22.0,26.0,50.0,50.0,2817.0,square4,r,0.152,3,V,5.0
V5,71.0,41.0,29.0,26.0,53.0,53.0,2870.0,square4,r,0.188,3,V,5.0
V5,72.0,40.0,20.0,28.0,51.0,51.0,2921.0,square4,r,0.104,3,V,5.0
V5,73.0,59.0,44.0,51.0,35.0,35.0,2956.0,square4,r,0.026,3,V,5.0
V5,74.0,60.0,38.0,55.0,43.0,43.0,2999.0,square4,r,0.001,3,V,5.0
V5,75.0,63.0,45.0,50.0,37.0,37.0,3036.0,square4,r,0.271,3,V,5.0
V5,76.0,62.0,42.0,50.0,37.0,50.0,3086.0,square3,j,0.102,2,V,5.0
V5,77.0,57.0,37.0,52.0,35.0,52.0,3138.0,square3,j,0.096,2,V,5.0
V5,78.0,66.0,45.0,54.0,37.0,45.0,3183.0,square2,f,0.129,1,V,5.0
V5,79.0,64.0,37.0,48.0,35.0,37.0,3220.0,square2,f,0.116,1,V,5.0
V5,80.0,63.0,40.0,56.0,38.0,63.0,3283.0,square1,i,0.3,0,V,5.0
V5,81.0,62.0,41.0,54.0,32.0,62.0,3345.0,square1,i,0.018,0,V,5.0
V5,82.0,58.0,41.0,59.0,39.0,58.0,3403.0,square1,i,0.003,0,V,5.0
V5,83.0,66.0,46.0,54.0,35.0,66.0,3469.0,square1,i,0.188,0,V,5.0
V5,84.0,67.0,44.0,52.0,33.0,52.0,3521.0,square3,j,0.173,2,V,5.0
V5,85.0,67.0,45.0,46.0,36.0,46.0,3567.0,square3,j,0.012,2,V,5.0
V5,86.0,65.0,44.0,51.0,38.0,65.0,3632.0,square1,i,0.092,0,V,5.0
V5,87.0,64.0,49.0,48.0,35.0,64.0,3696.0,square1,i,0.104,0,V,5.0
V5,88.0,68.0,47.0,56.0,36.0,68.0,3764.0,square1,i,0.217,0,V,5.0
V5,89.0,60.0,42.0,57.0,32.0,60.0,3824.0,square1,i,0.03,0,V,5.0
V5,90.0,59.0,43.0,53.0,34.0,59.0,3883.0,square1,i,0.032,0,V,5.0
V5,91.0,64.0,43.0,51.0,34.0,64.0,3947.0,square1,i,0.19,0,V,5.0
V5,92.0,65.0,41.0,57.0,38.0,65.0,4012.0,square1,i,0.208,0,V,5.0
V5,93.0,59.0,48.0,54.0,40.0,40.0,4052.0,square4,r,0.107,3,V,5.0
V5,94.0,66.0,44.0,53.0,43.0,44.0,4096.0,square2,f,0.066,1,V,5.0
V5,95.0,63.0,43.0,50.0,40.0,63.0,4159.0,square1,i,0.136,0,V,5.0
V5,96.0,62.0,44.0,50.0,33.0,62.0,4221.0,square1,i,0.119,0,V,5.0
V5,97.0,64.0,49.0,55.0,37.0,64.0,4285.0,square1,i,0.093,0,V,5.0
V5,98.0,65.0,44.0,53.0,36.0,53.0,4338.0,square3,j,0.261,2,V,5.0
V5,99.0,65.0,42.0,55.0,35.0,65.0,4403.0,square1,i,0.077,0,V,5.0
