block,Trial,square1,square2,square3,square4,currPoints,totalPoints,square,choiceKey.keys,choiceKey.rt,armNum,blockType,blockNum
prac,0.0,100.0,0.0,0.0,0.0,0.0,0.0,square3,,,2,p,0.0
prac,1.0,100.0,0.0,0.0,0.0,0.0,0.0,square2,,,1,p,0.0
prac,2.0,100.0,0.0,0.0,0.0,100.0,100.0,square1,,,0,p,0.0
prac,3.0,100.0,0.0,0.0,0.0,100.0,200.0,square1,,,0,p,0.0
prac,4.0,100.0,0.0,0.0,0.0,100.0,300.0,square1,,,0,p,0.0
prac,5.0,100.0,0.0,0.0,0.0,100.0,400.0,square1,,,0,p,0.0
prac,6.0,100.0,0.0,0.0,0.0,100.0,500.0,square1,,,0,p,0.0
prac,7.0,100.0,0.0,0.0,0.0,0.0,500.0,square4,,,3,p,0.0
prac,8.0,100.0,0.0,0.0,0.0,100.0,600.0,square1,,,0,p,0.0
prac,9.0,100.0,0.0,0.0,0.0,100.0,700.0,square1,,,0,p,0.0
V3,0.0,62.0,45.0,70.0,53.0,45.0,45.0,square2,r,0.5843,1,V,3.0
V3,1.0,63.0,47.0,76.0,60.0,47.0,92.0,square2,r,0.2611,1,V,3.0
V3,2.0,65.0,54.0,73.0,57.0,57.0,149.0,square4,f,0.2,3,V,3.0
V3,3.0,68.0,51.0,71.0,51.0,51.0,200.0,square2,r,0.1668,1,V,3.0
V3,4.0,61.0,49.0,75.0,53.0,61.0,261.0,square1,i,0.0996,0,V,3.0
V3,5.0,65.0,47.0,74.0,50.0,74.0,335.0,square3,j,0.0614,2,V,3.0
V3,6.0,61.0,51.0,72.0,57.0,72.0,407.0,square3,j,0.2512,2,V,3.0
V3,7.0,67.0,49.0,75.0,55.0,75.0,482.0,square3,j,0.1332,2,V,3.0
V3,8.0,64.0,48.0,76.0,56.0,48.0,530.0,square2,r,0.067,1,V,3.0
V3,9.0,67.0,49.0,71.0,56.0,71.0,601.0,square3,j,0.2778,2,V,3.0
V3,10.0,65.0,50.0,71.0,56.0,71.0,672.0,square3,j,0.3346,2,V,3.0
V3,11.0,63.0,43.0,78.0,58.0,63.0,735.0,square1,i,0.2472,0,V,3.0
V3,12.0,66.0,53.0,73.0,54.0,73.0,808.0,square3,j,0.0573,2,V,3.0
V3,13.0,64.0,46.0,78.0,51.0,78.0,886.0,square3,j,0.2203,2,V,3.0
V3,14.0,67.0,51.0,71.0,58.0,71.0,957.0,square3,j,0.1046,2,V,3.0
V3,15.0,61.0,50.0,73.0,54.0,54.0,1011.0,square4,f,0.0998,3,V,3.0
V3,16.0,64.0,52.0,74.0,54.0,74.0,1085.0,square3,j,0.7469,2,V,3.0
V3,17.0,61.0,48.0,74.0,55.0,48.0,1133.0,square2,r,0.0499,1,V,3.0
V3,18.0,65.0,50.0,70.0,59.0,65.0,1198.0,square1,i,0.2763,0,V,3.0
V3,19.0,64.0,52.0,76.0,56.0,76.0,1274.0,square3,j,0.0162,2,V,3.0
V3,20.0,64.0,50.0,69.0,58.0,69.0,1343.0,square3,j,0.0015,2,V,3.0
V3,21.0,66.0,50.0,72.0,56.0,72.0,1415.0,square3,j,0.1835,2,V,3.0
V3,22.0,43.0,48.0,40.0,62.0,62.0,1477.0,square4,f,0.3012,3,V,3.0
V3,23.0,41.0,51.0,35.0,59.0,59.0,1536.0,square4,f,0.1497,3,V,3.0
V3,24.0,51.0,51.0,37.0,60.0,37.0,1573.0,square3,j,0.5011,2,V,3.0
V3,25.0,45.0,53.0,36.0,57.0,53.0,1626.0,square2,r,0.1574,1,V,3.0
V3,26.0,44.0,51.0,38.0,59.0,44.0,1670.0,square1,i,0.1801,0,V,3.0
V3,27.0,43.0,51.0,34.0,66.0,66.0,1736.0,square4,f,0.1848,3,V,3.0
V3,28.0,47.0,51.0,40.0,67.0,67.0,1803.0,square4,f,0.2171,3,V,3.0
V3,29.0,42.0,55.0,35.0,65.0,65.0,1868.0,square4,f,0.1329,3,V,3.0
V3,30.0,49.0,54.0,36.0,62.0,62.0,1930.0,square4,f,0.2349,3,V,3.0
V3,31.0,50.0,53.0,42.0,66.0,66.0,1996.0,square4,f,0.1415,3,V,3.0
V3,32.0,47.0,53.0,34.0,58.0,58.0,2054.0,square4,f,0.2169,3,V,3.0
V3,33.0,45.0,56.0,34.0,62.0,56.0,2110.0,square2,r,0.2018,1,V,3.0
V3,34.0,48.0,54.0,38.0,64.0,48.0,2158.0,square1,i,0.1425,0,V,3.0
V3,35.0,39.0,55.0,42.0,65.0,55.0,2213.0,square2,r,0.1018,1,V,3.0
V3,36.0,46.0,57.0,41.0,63.0,63.0,2276.0,square4,f,0.0004,3,V,3.0
V3,37.0,43.0,54.0,41.0,65.0,41.0,2317.0,square3,j,0.5169,2,V,3.0
V3,38.0,47.0,52.0,37.0,63.0,63.0,2380.0,square4,f,0.3501,3,V,3.0
V3,39.0,47.0,53.0,38.0,55.0,55.0,2435.0,square4,f,0.0193,3,V,3.0
V3,40.0,41.0,54.0,39.0,64.0,64.0,2499.0,square4,f,0.2715,3,V,3.0
V3,41.0,48.0,52.0,38.0,64.0,64.0,2563.0,square4,f,0.2666,3,V,3.0
V3,42.0,45.0,50.0,34.0,63.0,63.0,2626.0,square4,f,0.197,3,V,3.0
V3,43.0,44.0,50.0,34.0,62.0,62.0,2688.0,square4,f,0.1294,3,V,3.0
V3,44.0,47.0,55.0,39.0,65.0,65.0,2753.0,square4,f,0.2412,3,V,3.0
V3,45.0,45.0,55.0,31.0,63.0,63.0,2816.0,square4,f,0.0121,3,V,3.0
V3,46.0,42.0,52.0,38.0,64.0,64.0,2880.0,square4,f,0.2727,3,V,3.0
V3,47.0,44.0,53.0,37.0,55.0,55.0,2935.0,square4,f,0.0336,3,V,3.0
V3,48.0,44.0,49.0,37.0,58.0,49.0,2984.0,square2,r,0.1676,1,V,3.0
V3,49.0,48.0,58.0,35.0,54.0,48.0,3032.0,square1,i,0.0372,0,V,3.0
V3,50.0,42.0,28.0,30.0,52.0,52.0,3084.0,square4,f,0.1136,3,V,3.0
V3,51.0,46.0,29.0,32.0,51.0,32.0,3116.0,square3,j,0.0829,2,V,3.0
V3,52.0,37.0,20.0,36.0,50.0,50.0,3166.0,square4,f,0.15,3,V,3.0
V3,53.0,44.0,22.0,34.0,55.0,55.0,3221.0,square4,f,0.0416,3,V,3.0
V3,54.0,37.0,27.0,26.0,50.0,50.0,3271.0,square4,f,0.1418,3,V,3.0
V3,55.0,41.0,21.0,39.0,53.0,53.0,3324.0,square4,f,0.1999,3,V,3.0
V3,56.0,40.0,20.0,38.0,51.0,51.0,3375.0,square4,f,0.21,3,V,3.0
V3,57.0,44.0,28.0,31.0,57.0,57.0,3432.0,square4,f,0.1273,3,V,3.0
V3,58.0,46.0,20.0,28.0,49.0,49.0,3481.0,square4,f,0.0003,3,V,3.0
V3,59.0,44.0,24.0,30.0,55.0,24.0,3505.0,square2,r,0.2839,1,V,3.0
V3,60.0,42.0,29.0,29.0,51.0,29.0,3534.0,square2,r,0.037,1,V,3.0
V3,61.0,41.0,21.0,30.0,46.0,41.0,3575.0,square1,i,0.1451,0,V,3.0
V3,62.0,41.0,27.0,31.0,49.0,41.0,3616.0,square1,i,0.1769,0,V,3.0
V3,63.0,42.0,27.0,34.0,51.0,51.0,3667.0,square4,f,0.0834,3,V,3.0
V3,64.0,41.0,24.0,30.0,47.0,47.0,3714.0,square4,f,0.1001,3,V,3.0
V3,65.0,36.0,18.0,34.0,48.0,48.0,3762.0,square4,f,0.0667,3,V,3.0
V3,66.0,39.0,28.0,35.0,45.0,45.0,3807.0,square4,f,0.0005,3,V,3.0
V3,67.0,42.0,21.0,32.0,46.0,46.0,3853.0,square4,f,0.0093,3,V,3.0
V3,68.0,40.0,24.0,35.0,53.0,53.0,3906.0,square4,f,0.1667,3,V,3.0
V3,69.0,48.0,23.0,34.0,50.0,50.0,3956.0,square4,f,0.1005,3,V,3.0
V3,70.0,40.0,27.0,31.0,49.0,49.0,4005.0,square4,f,0.1732,3,V,3.0
V3,71.0,41.0,23.0,28.0,51.0,51.0,4056.0,square4,f,0.15,3,V,3.0
V3,72.0,42.0,25.0,33.0,55.0,55.0,4111.0,square4,f,0.0587,3,V,3.0
V3,73.0,41.0,24.0,35.0,55.0,35.0,4146.0,square3,j,0.217,2,V,3.0
V3,74.0,38.0,26.0,28.0,53.0,28.0,4174.0,square3,j,0.0503,2,V,3.0
V3,75.0,54.0,39.0,69.0,50.0,50.0,4224.0,square4,f,0.1663,3,V,3.0
V3,76.0,55.0,42.0,64.0,53.0,53.0,4277.0,square4,f,0.0003,3,V,3.0
V3,77.0,59.0,37.0,66.0,44.0,44.0,4321.0,square4,f,0.0892,3,V,3.0
V3,78.0,58.0,38.0,60.0,46.0,46.0,4367.0,square4,f,0.0829,3,V,3.0
V3,79.0,54.0,35.0,66.0,49.0,49.0,4416.0,square4,f,0.0834,3,V,3.0
V3,80.0,60.0,36.0,68.0,44.0,44.0,4460.0,square4,f,0.2142,3,V,3.0
V3,81.0,55.0,38.0,66.0,51.0,51.0,4511.0,square4,f,0.1166,3,V,3.0
V3,82.0,57.0,47.0,64.0,50.0,50.0,4561.0,square4,f,0.2029,3,V,3.0
V3,83.0,57.0,37.0,63.0,45.0,45.0,4606.0,square4,f,0.0003,3,V,3.0
V3,84.0,54.0,40.0,65.0,53.0,53.0,4659.0,square4,f,0.0003,3,V,3.0
V3,85.0,58.0,41.0,63.0,48.0,48.0,4707.0,square4,f,0.2181,3,V,3.0
V3,86.0,53.0,38.0,57.0,49.0,49.0,4756.0,square4,f,0.2537,3,V,3.0
V3,87.0,49.0,42.0,60.0,43.0,60.0,4816.0,square3,j,0.0888,2,V,3.0
V3,88.0,56.0,35.0,70.0,46.0,70.0,4886.0,square3,j,0.2665,2,V,3.0
V3,89.0,58.0,39.0,63.0,52.0,63.0,4949.0,square3,j,0.05,2,V,3.0
V3,90.0,59.0,43.0,63.0,45.0,63.0,5012.0,square3,j,0.0003,2,V,3.0
V3,91.0,54.0,37.0,69.0,49.0,69.0,5081.0,square3,j,0.1011,2,V,3.0
V3,92.0,56.0,41.0,61.0,47.0,61.0,5142.0,square3,j,0.05,2,V,3.0
V3,93.0,58.0,35.0,68.0,47.0,68.0,5210.0,square3,j,0.0892,2,V,3.0
V3,94.0,61.0,37.0,67.0,51.0,67.0,5277.0,square3,j,0.0025,2,V,3.0
V3,95.0,57.0,32.0,64.0,47.0,64.0,5341.0,square3,j,0.0071,2,V,3.0
V3,96.0,53.0,38.0,63.0,48.0,63.0,5404.0,square3,j,0.1576,2,V,3.0
V3,97.0,57.0,44.0,71.0,50.0,71.0,5475.0,square3,j,0.1554,2,V,3.0
V3,98.0,56.0,39.0,70.0,47.0,70.0,5545.0,square3,j,0.1295,2,V,3.0
V3,99.0,62.0,40.0,67.0,49.0,67.0,5612.0,square3,j,0.1295,2,V,3.0
V11,0.0,42.0,67.0,57.0,49.0,57.0,57.0,square3,r,1.0897,2,V,11.0
V11,1.0,42.0,71.0,60.0,53.0,71.0,128.0,square2,f,0.3552,1,V,11.0
V11,2.0,45.0,76.0,58.0,51.0,45.0,173.0,square1,j,0.2427,0,V,11.0
V11,3.0,44.0,65.0,60.0,49.0,49.0,222.0,square4,i,0.1732,3,V,11.0
V11,4.0,46.0,73.0,64.0,51.0,73.0,295.0,square2,f,0.1802,1,V,11.0
V11,5.0,47.0,67.0,58.0,54.0,67.0,362.0,square2,f,0.1133,1,V,11.0
V11,6.0,43.0,68.0,58.0,50.0,68.0,430.0,square2,f,0.0674,1,V,11.0
V11,7.0,42.0,67.0,60.0,58.0,67.0,497.0,square2,f,0.093,1,V,11.0
V11,8.0,44.0,67.0,60.0,53.0,67.0,564.0,square2,f,0.1668,1,V,11.0
V11,9.0,44.0,67.0,59.0,54.0,67.0,631.0,square2,f,0.1667,1,V,11.0
V11,10.0,49.0,76.0,57.0,52.0,76.0,707.0,square2,f,0.0186,1,V,11.0
V11,11.0,45.0,71.0,58.0,51.0,71.0,778.0,square2,f,0.0547,1,V,11.0
V11,12.0,45.0,72.0,58.0,56.0,72.0,850.0,square2,f,0.0095,1,V,11.0
V11,13.0,49.0,67.0,63.0,54.0,67.0,917.0,square2,f,0.1344,1,V,11.0
V11,14.0,50.0,75.0,57.0,48.0,75.0,992.0,square2,f,0.1836,1,V,11.0
V11,15.0,40.0,71.0,61.0,51.0,71.0,1063.0,square2,f,0.0499,1,V,11.0
V11,16.0,47.0,72.0,56.0,54.0,72.0,1135.0,square2,f,0.0552,1,V,11.0
V11,17.0,40.0,71.0,61.0,46.0,71.0,1206.0,square2,f,0.0017,1,V,11.0
V11,18.0,44.0,69.0,59.0,51.0,69.0,1275.0,square2,f,0.1748,1,V,11.0
V11,19.0,44.0,73.0,59.0,47.0,73.0,1348.0,square2,f,0.1501,1,V,11.0
V11,20.0,47.0,69.0,64.0,54.0,69.0,1417.0,square2,f,0.1954,1,V,11.0
V11,21.0,78.0,49.0,70.0,65.0,70.0,1487.0,square3,r,0.0733,2,V,11.0
V11,22.0,78.0,56.0,73.0,62.0,73.0,1560.0,square3,r,0.0003,2,V,11.0
V11,23.0,84.0,54.0,71.0,65.0,71.0,1631.0,square3,r,0.0499,2,V,11.0
V11,24.0,80.0,55.0,72.0,67.0,72.0,1703.0,square3,r,0.1561,2,V,11.0
V11,25.0,80.0,55.0,75.0,63.0,75.0,1778.0,square3,r,0.1467,2,V,11.0
V11,26.0,80.0,56.0,67.0,62.0,67.0,1845.0,square3,r,0.0833,2,V,11.0
V11,27.0,80.0,51.0,68.0,62.0,68.0,1913.0,square3,r,0.1333,2,V,11.0
V11,28.0,79.0,57.0,67.0,57.0,67.0,1980.0,square3,r,0.1834,2,V,11.0
V11,29.0,79.0,50.0,67.0,62.0,50.0,2030.0,square2,f,0.0835,1,V,11.0
V11,30.0,88.0,54.0,74.0,61.0,74.0,2104.0,square3,r,0.0758,2,V,11.0
V11,31.0,81.0,51.0,75.0,63.0,51.0,2155.0,square2,f,0.1419,1,V,11.0
V11,32.0,76.0,51.0,69.0,65.0,69.0,2224.0,square3,r,0.0131,2,V,11.0
V11,33.0,78.0,54.0,72.0,64.0,72.0,2296.0,square3,r,0.0002,2,V,11.0
V11,34.0,77.0,53.0,71.0,62.0,62.0,2358.0,square4,i,0.0391,3,V,11.0
V11,35.0,74.0,59.0,75.0,62.0,62.0,2420.0,square4,i,0.0501,3,V,11.0
V11,36.0,79.0,50.0,72.0,62.0,62.0,2482.0,square4,i,0.0462,3,V,11.0
V11,37.0,74.0,54.0,68.0,62.0,62.0,2544.0,square4,i,0.0252,3,V,11.0
V11,38.0,80.0,57.0,65.0,58.0,58.0,2602.0,square4,i,0.0005,3,V,11.0
V11,39.0,73.0,52.0,75.0,66.0,73.0,2675.0,square1,j,0.0756,0,V,11.0
V11,40.0,82.0,57.0,71.0,57.0,82.0,2757.0,square1,j,0.0607,0,V,11.0
V11,41.0,78.0,53.0,73.0,64.0,78.0,2835.0,square1,j,0.0393,0,V,11.0
V11,42.0,72.0,56.0,67.0,59.0,72.0,2907.0,square1,j,0.1167,0,V,11.0
V11,43.0,81.0,54.0,73.0,63.0,81.0,2988.0,square1,j,0.1666,0,V,11.0
V11,44.0,76.0,54.0,75.0,59.0,76.0,3064.0,square1,j,0.1992,0,V,11.0
V11,45.0,79.0,59.0,71.0,64.0,79.0,3143.0,square1,j,0.1429,0,V,11.0
V11,46.0,80.0,55.0,67.0,57.0,80.0,3223.0,square1,j,0.0328,0,V,11.0
V11,47.0,84.0,53.0,75.0,56.0,84.0,3307.0,square1,j,0.0416,0,V,11.0
V11,48.0,83.0,57.0,71.0,60.0,83.0,3390.0,square1,j,0.1895,0,V,11.0
V11,49.0,79.0,52.0,71.0,60.0,79.0,3469.0,square1,j,0.0336,0,V,11.0
V11,50.0,76.0,50.0,69.0,60.0,76.0,3545.0,square1,j,0.0626,0,V,11.0
V11,51.0,79.0,54.0,72.0,57.0,79.0,3624.0,square1,j,0.0669,0,V,11.0
V11,52.0,80.0,54.0,72.0,64.0,80.0,3704.0,square1,j,0.1501,0,V,11.0
V11,53.0,35.0,50.0,55.0,69.0,35.0,3739.0,square1,j,0.0832,0,V,11.0
V11,54.0,45.0,48.0,55.0,73.0,45.0,3784.0,square1,j,0.2053,0,V,11.0
V11,55.0,43.0,53.0,58.0,70.0,43.0,3827.0,square1,j,0.1667,0,V,11.0
V11,56.0,40.0,46.0,60.0,62.0,60.0,3887.0,square3,r,0.2164,2,V,11.0
V11,57.0,44.0,46.0,53.0,71.0,53.0,3940.0,square3,r,0.6364,2,V,11.0
V11,58.0,44.0,52.0,55.0,68.0,52.0,3992.0,square2,f,0.0402,1,V,11.0
V11,59.0,44.0,44.0,57.0,66.0,66.0,4058.0,square4,i,0.1392,3,V,11.0
V11,60.0,40.0,46.0,57.0,62.0,62.0,4120.0,square4,i,0.1332,3,V,11.0
V11,61.0,42.0,52.0,58.0,62.0,62.0,4182.0,square4,i,0.1626,3,V,11.0
V11,62.0,40.0,49.0,56.0,71.0,71.0,4253.0,square4,i,0.0175,3,V,11.0
V11,63.0,40.0,54.0,60.0,66.0,66.0,4319.0,square4,i,0.0499,3,V,11.0
V11,64.0,41.0,43.0,51.0,66.0,66.0,4385.0,square4,i,0.1299,3,V,11.0
V11,65.0,39.0,48.0,59.0,66.0,66.0,4451.0,square4,i,0.1167,3,V,11.0
V11,66.0,40.0,48.0,59.0,69.0,69.0,4520.0,square4,i,0.0021,3,V,11.0
V11,67.0,46.0,45.0,58.0,69.0,69.0,4589.0,square4,i,0.0549,3,V,11.0
V11,68.0,41.0,50.0,56.0,69.0,56.0,4645.0,square3,r,0.1666,2,V,11.0
V11,69.0,48.0,49.0,57.0,71.0,49.0,4694.0,square2,f,0.1519,1,V,11.0
V11,70.0,41.0,47.0,58.0,65.0,41.0,4735.0,square1,j,0.0549,0,V,11.0
V11,71.0,37.0,46.0,58.0,60.0,60.0,4795.0,square4,i,0.1169,3,V,11.0
V11,72.0,41.0,47.0,54.0,65.0,65.0,4860.0,square4,i,0.067,3,V,11.0
V11,73.0,42.0,47.0,60.0,67.0,67.0,4927.0,square4,i,0.0129,3,V,11.0
V11,74.0,43.0,49.0,57.0,64.0,64.0,4991.0,square4,i,0.0666,3,V,11.0
V11,75.0,38.0,46.0,57.0,66.0,38.0,5029.0,square1,j,0.0362,0,V,11.0
V11,76.0,42.0,50.0,58.0,68.0,68.0,5097.0,square4,i,0.0003,3,V,11.0
V11,77.0,36.0,49.0,58.0,64.0,64.0,5161.0,square4,i,0.0689,3,V,11.0
V11,78.0,40.0,50.0,56.0,67.0,67.0,5228.0,square4,i,0.0175,3,V,11.0
V11,79.0,39.0,48.0,56.0,67.0,67.0,5295.0,square4,i,0.0517,3,V,11.0
V11,80.0,51.0,33.0,30.0,45.0,45.0,5340.0,square4,i,0.0859,3,V,11.0
V11,81.0,49.0,31.0,23.0,48.0,48.0,5388.0,square4,i,0.1112,3,V,11.0
V11,82.0,55.0,30.0,25.0,42.0,25.0,5413.0,square3,r,0.1036,2,V,11.0
V11,83.0,50.0,33.0,27.0,48.0,33.0,5446.0,square2,f,0.1001,1,V,11.0
V11,84.0,52.0,34.0,25.0,43.0,52.0,5498.0,square1,j,0.0018,0,V,11.0
V11,85.0,49.0,28.0,28.0,44.0,49.0,5547.0,square1,j,0.0836,0,V,11.0
V11,86.0,57.0,29.0,27.0,48.0,57.0,5604.0,square1,j,0.0968,0,V,11.0
V11,87.0,49.0,29.0,21.0,38.0,49.0,5653.0,square1,j,0.162,0,V,11.0
V11,88.0,55.0,32.0,29.0,46.0,46.0,5699.0,square4,i,0.0046,3,V,11.0
V11,89.0,50.0,28.0,23.0,43.0,43.0,5742.0,square4,i,0.373,3,V,11.0
V11,90.0,54.0,34.0,32.0,41.0,54.0,5796.0,square1,j,0.0996,0,V,11.0
V11,91.0,50.0,34.0,26.0,44.0,50.0,5846.0,square1,j,0.1999,0,V,11.0
V11,92.0,51.0,31.0,27.0,50.0,50.0,5896.0,square4,i,0.0832,3,V,11.0
V11,93.0,49.0,38.0,28.0,42.0,49.0,5945.0,square1,j,0.2667,0,V,11.0
V11,94.0,50.0,29.0,25.0,46.0,50.0,5995.0,square1,j,0.0781,0,V,11.0
V11,95.0,51.0,36.0,22.0,40.0,22.0,6017.0,square3,r,0.2667,2,V,11.0
V11,96.0,52.0,34.0,32.0,45.0,52.0,6069.0,square1,j,0.163,0,V,11.0
V11,97.0,53.0,27.0,32.0,44.0,53.0,6122.0,square1,j,0.2334,0,V,11.0
V11,98.0,60.0,31.0,25.0,48.0,60.0,6182.0,square1,j,0.0668,0,V,11.0
V11,99.0,53.0,33.0,23.0,42.0,53.0,6235.0,square1,j,0.1335,0,V,11.0
V9,0.0,20.0,29.0,37.0,45.0,29.0,29.0,square2,r,0.7166,1,V,9.0
V9,1.0,21.0,32.0,39.0,45.0,39.0,68.0,square3,j,0.3168,2,V,9.0
V9,2.0,16.0,27.0,41.0,48.0,48.0,116.0,square4,f,0.2668,3,V,9.0
V9,3.0,20.0,30.0,42.0,50.0,20.0,136.0,square1,i,0.0455,0,V,9.0
V9,4.0,22.0,34.0,37.0,47.0,34.0,170.0,square2,r,0.1,1,V,9.0
V9,5.0,17.0,32.0,38.0,49.0,49.0,219.0,square4,f,0.0515,3,V,9.0
V9,6.0,17.0,25.0,39.0,47.0,39.0,258.0,square3,j,0.2047,2,V,9.0
V9,7.0,22.0,28.0,33.0,48.0,48.0,306.0,square4,f,0.0999,3,V,9.0
V9,8.0,20.0,24.0,34.0,41.0,41.0,347.0,square4,f,0.0681,3,V,9.0
V9,9.0,20.0,33.0,30.0,51.0,51.0,398.0,square4,f,0.0209,3,V,9.0
V9,10.0,21.0,35.0,38.0,50.0,38.0,436.0,square3,j,0.0002,2,V,9.0
V9,11.0,19.0,29.0,44.0,45.0,45.0,481.0,square4,f,0.0834,3,V,9.0
V9,12.0,27.0,24.0,38.0,54.0,54.0,535.0,square4,f,0.0664,3,V,9.0
V9,13.0,15.0,26.0,37.0,50.0,50.0,585.0,square4,f,0.1064,3,V,9.0
V9,14.0,24.0,26.0,39.0,42.0,26.0,611.0,square2,r,0.1333,1,V,9.0
V9,15.0,26.0,27.0,43.0,49.0,49.0,660.0,square4,f,0.1872,3,V,9.0
V9,16.0,19.0,30.0,42.0,49.0,49.0,709.0,square4,f,0.1288,3,V,9.0
V9,17.0,21.0,30.0,34.0,49.0,21.0,730.0,square1,i,0.0834,0,V,9.0
V9,18.0,25.0,33.0,41.0,51.0,51.0,781.0,square4,f,0.0589,3,V,9.0
V9,19.0,17.0,31.0,41.0,45.0,45.0,826.0,square4,f,0.1001,3,V,9.0
V9,20.0,19.0,31.0,34.0,49.0,49.0,875.0,square4,f,0.0716,3,V,9.0
V9,21.0,23.0,29.0,37.0,48.0,48.0,923.0,square4,f,0.0884,3,V,9.0
V9,22.0,15.0,32.0,36.0,48.0,48.0,971.0,square4,f,0.1502,3,V,9.0
V9,23.0,25.0,33.0,39.0,47.0,47.0,1018.0,square4,f,0.1532,3,V,9.0
V9,24.0,21.0,30.0,38.0,52.0,38.0,1056.0,square3,j,0.2401,2,V,9.0
V9,25.0,25.0,29.0,42.0,48.0,48.0,1104.0,square4,f,0.0688,3,V,9.0
V9,26.0,22.0,29.0,39.0,47.0,47.0,1151.0,square4,f,0.1834,3,V,9.0
V9,27.0,17.0,31.0,45.0,41.0,41.0,1192.0,square4,f,0.139,3,V,9.0
V9,28.0,29.0,28.0,43.0,43.0,43.0,1235.0,square4,f,0.1334,3,V,9.0
V9,29.0,20.0,31.0,43.0,49.0,49.0,1284.0,square4,f,0.0336,3,V,9.0
V9,30.0,23.0,33.0,39.0,48.0,39.0,1323.0,square3,j,0.1019,2,V,9.0
V9,31.0,20.0,27.0,38.0,53.0,20.0,1343.0,square1,i,0.1502,0,V,9.0
V9,32.0,23.0,29.0,37.0,49.0,29.0,1372.0,square2,r,0.15,1,V,9.0
V9,33.0,24.0,33.0,37.0,49.0,49.0,1421.0,square4,f,0.0665,3,V,9.0
V9,34.0,43.0,58.0,48.0,30.0,30.0,1451.0,square4,f,0.1602,3,V,9.0
V9,35.0,48.0,59.0,45.0,34.0,34.0,1485.0,square4,f,0.1748,3,V,9.0
V9,36.0,39.0,56.0,54.0,32.0,32.0,1517.0,square4,f,0.0665,3,V,9.0
V9,37.0,40.0,57.0,50.0,35.0,50.0,1567.0,square3,j,0.1276,2,V,9.0
V9,38.0,49.0,62.0,51.0,33.0,51.0,1618.0,square3,j,0.0167,2,V,9.0
V9,39.0,45.0,61.0,48.0,34.0,48.0,1666.0,square3,j,0.0667,2,V,9.0
V9,40.0,40.0,65.0,51.0,29.0,51.0,1717.0,square3,j,0.0551,2,V,9.0
V9,41.0,44.0,57.0,50.0,38.0,50.0,1767.0,square3,j,0.0669,2,V,9.0
V9,42.0,40.0,57.0,49.0,33.0,49.0,1816.0,square3,j,0.0685,2,V,9.0
V9,43.0,42.0,64.0,54.0,35.0,54.0,1870.0,square3,j,0.0543,2,V,9.0
V9,44.0,44.0,55.0,49.0,39.0,49.0,1919.0,square3,j,0.1335,2,V,9.0
V9,45.0,37.0,66.0,51.0,35.0,51.0,1970.0,square3,j,0.1167,2,V,9.0
V9,46.0,40.0,59.0,51.0,32.0,51.0,2021.0,square3,j,0.0993,2,V,9.0
V9,47.0,38.0,62.0,57.0,31.0,57.0,2078.0,square3,j,0.1332,2,V,9.0
V9,48.0,43.0,61.0,54.0,34.0,54.0,2132.0,square3,j,0.2165,2,V,9.0
V9,49.0,43.0,61.0,49.0,40.0,49.0,2181.0,square3,j,0.1358,2,V,9.0
V9,50.0,37.0,58.0,51.0,32.0,51.0,2232.0,square3,j,0.1334,2,V,9.0
V9,51.0,44.0,63.0,48.0,39.0,48.0,2280.0,square3,j,0.1513,2,V,9.0
V9,52.0,35.0,65.0,48.0,30.0,48.0,2328.0,square3,j,0.1427,2,V,9.0
V9,53.0,43.0,59.0,48.0,39.0,48.0,2376.0,square3,j,0.2336,2,V,9.0
V9,54.0,43.0,59.0,52.0,30.0,52.0,2428.0,square3,j,0.1335,2,V,9.0
V9,55.0,41.0,58.0,51.0,34.0,34.0,2462.0,square4,f,0.2166,3,V,9.0
V9,56.0,44.0,63.0,50.0,33.0,50.0,2512.0,square3,j,0.19,2,V,9.0
V9,57.0,42.0,60.0,49.0,32.0,49.0,2561.0,square3,j,0.1001,2,V,9.0
V9,58.0,44.0,62.0,57.0,30.0,57.0,2618.0,square3,j,0.1335,2,V,9.0
V9,59.0,45.0,61.0,45.0,31.0,45.0,2663.0,square3,j,0.1501,2,V,9.0
V9,60.0,43.0,63.0,53.0,33.0,53.0,2716.0,square3,j,0.1169,2,V,9.0
V9,61.0,39.0,56.0,55.0,31.0,55.0,2771.0,square3,j,0.1167,2,V,9.0
V9,62.0,39.0,61.0,50.0,34.0,50.0,2821.0,square3,j,0.0055,2,V,9.0
V9,63.0,44.0,57.0,48.0,36.0,48.0,2869.0,square3,j,0.1002,2,V,9.0
V9,64.0,40.0,60.0,58.0,35.0,58.0,2927.0,square3,j,0.0999,2,V,9.0
V9,65.0,42.0,60.0,54.0,38.0,42.0,2969.0,square1,i,0.2335,0,V,9.0
V9,66.0,41.0,60.0,54.0,37.0,60.0,3029.0,square2,r,0.0171,1,V,9.0
V9,67.0,43.0,61.0,54.0,40.0,61.0,3090.0,square2,r,0.1251,1,V,9.0
V9,68.0,45.0,40.0,26.0,18.0,40.0,3130.0,square2,r,0.0051,1,V,9.0
V9,69.0,50.0,41.0,29.0,20.0,41.0,3171.0,square2,r,0.0739,1,V,9.0
V9,70.0,43.0,36.0,27.0,15.0,36.0,3207.0,square2,r,0.0502,1,V,9.0
V9,71.0,44.0,40.0,28.0,18.0,40.0,3247.0,square2,r,0.0002,1,V,9.0
V9,72.0,42.0,38.0,27.0,18.0,18.0,3265.0,square4,f,0.1333,3,V,9.0
V9,73.0,46.0,33.0,25.0,19.0,25.0,3290.0,square3,j,0.0336,2,V,9.0
V9,74.0,47.0,40.0,28.0,20.0,47.0,3337.0,square1,i,0.1832,0,V,9.0
V9,75.0,39.0,39.0,27.0,25.0,39.0,3376.0,square1,i,0.1267,0,V,9.0
V9,76.0,50.0,31.0,29.0,23.0,50.0,3426.0,square1,i,0.0166,0,V,9.0
V9,77.0,44.0,37.0,28.0,13.0,44.0,3470.0,square1,i,0.1959,0,V,9.0
V9,78.0,43.0,36.0,23.0,17.0,43.0,3513.0,square1,i,0.0336,0,V,9.0
V9,79.0,42.0,36.0,28.0,24.0,42.0,3555.0,square1,i,0.0334,0,V,9.0
V9,80.0,47.0,35.0,30.0,14.0,47.0,3602.0,square1,i,0.0408,0,V,9.0
V9,81.0,46.0,33.0,29.0,18.0,29.0,3631.0,square3,j,0.0003,2,V,9.0
V9,82.0,46.0,35.0,28.0,18.0,46.0,3677.0,square1,i,0.0254,0,V,9.0
V9,83.0,47.0,41.0,32.0,15.0,41.0,3718.0,square2,r,0.2,1,V,9.0
V9,84.0,45.0,38.0,31.0,18.0,18.0,3736.0,square4,f,0.0335,3,V,9.0
V9,85.0,42.0,35.0,30.0,21.0,30.0,3766.0,square3,j,0.05,2,V,9.0
V9,86.0,49.0,39.0,23.0,18.0,23.0,3789.0,square3,j,0.042,2,V,9.0
V9,87.0,49.0,39.0,27.0,16.0,49.0,3838.0,square1,i,0.0774,0,V,9.0
V9,88.0,45.0,38.0,25.0,14.0,45.0,3883.0,square1,i,0.0329,0,V,9.0
V9,89.0,45.0,32.0,28.0,19.0,45.0,3928.0,square1,i,0.1165,0,V,9.0
V9,90.0,44.0,35.0,29.0,20.0,44.0,3972.0,square1,i,0.0602,0,V,9.0
V9,91.0,42.0,38.0,32.0,16.0,42.0,4014.0,square1,i,0.2334,0,V,9.0
V9,92.0,45.0,36.0,23.0,20.0,45.0,4059.0,square1,i,0.0751,0,V,9.0
V9,93.0,45.0,35.0,26.0,18.0,45.0,4104.0,square1,i,0.0499,0,V,9.0
V9,94.0,44.0,37.0,27.0,13.0,44.0,4148.0,square1,i,0.0499,0,V,9.0
V9,95.0,46.0,36.0,25.0,20.0,25.0,4173.0,square3,j,0.0757,2,V,9.0
V9,96.0,43.0,39.0,27.0,16.0,43.0,4216.0,square1,i,0.0536,0,V,9.0
V9,97.0,48.0,39.0,30.0,16.0,39.0,4255.0,square2,r,0.0003,1,V,9.0
V9,98.0,49.0,40.0,26.0,20.0,20.0,4275.0,square4,f,0.1169,3,V,9.0
V9,99.0,49.0,41.0,27.0,18.0,49.0,4324.0,square1,i,0.1264,0,V,9.0
S12,0.0,38.0,42.0,30.0,42.0,38.0,38.0,square1,r,1.3501,0,S,12.0
S12,1.0,30.0,42.0,28.0,37.0,42.0,80.0,square2,f,0.1334,1,S,12.0
S12,2.0,34.0,41.0,38.0,43.0,43.0,123.0,square4,j,0.0039,3,S,12.0
S12,3.0,38.0,51.0,38.0,38.0,38.0,161.0,square3,i,0.1002,2,S,12.0
S12,4.0,32.0,37.0,33.0,45.0,45.0,206.0,square4,j,0.2666,3,S,12.0
S12,5.0,38.0,52.0,36.0,35.0,35.0,241.0,square4,j,0.1167,3,S,12.0
S12,6.0,30.0,43.0,30.0,38.0,38.0,279.0,square4,j,0.2161,3,S,12.0
S12,7.0,38.0,39.0,30.0,39.0,39.0,318.0,square4,j,0.1834,3,S,12.0
S12,8.0,37.0,49.0,35.0,38.0,38.0,356.0,square4,j,0.149,3,S,12.0
S12,9.0,37.0,44.0,29.0,38.0,38.0,394.0,square4,j,0.1833,3,S,12.0
S12,10.0,35.0,42.0,30.0,45.0,45.0,439.0,square4,j,0.0368,3,S,12.0
S12,11.0,34.0,45.0,36.0,32.0,32.0,471.0,square4,j,0.0494,3,S,12.0
S12,12.0,33.0,45.0,35.0,42.0,42.0,513.0,square4,j,0.1327,3,S,12.0
S12,13.0,36.0,36.0,29.0,40.0,40.0,553.0,square4,j,0.3667,3,S,12.0
S12,14.0,36.0,49.0,32.0,42.0,42.0,595.0,square4,j,0.0502,3,S,12.0
S12,15.0,35.0,43.0,35.0,46.0,46.0,641.0,square4,j,0.1167,3,S,12.0
S12,16.0,39.0,48.0,41.0,43.0,48.0,689.0,square2,f,0.0335,1,S,12.0
S12,17.0,35.0,47.0,27.0,38.0,47.0,736.0,square2,f,0.1052,1,S,12.0
S12,18.0,37.0,51.0,33.0,33.0,51.0,787.0,square2,f,0.1296,1,S,12.0
S12,19.0,41.0,42.0,33.0,36.0,42.0,829.0,square2,f,0.1215,1,S,12.0
S12,20.0,34.0,44.0,26.0,41.0,44.0,873.0,square2,f,0.1695,1,S,12.0
S12,21.0,35.0,37.0,29.0,35.0,37.0,910.0,square2,f,0.1682,1,S,12.0
S12,22.0,37.0,48.0,31.0,41.0,37.0,947.0,square1,r,0.0003,0,S,12.0
S12,23.0,36.0,43.0,27.0,45.0,27.0,974.0,square3,i,0.155,2,S,12.0
S12,24.0,39.0,48.0,38.0,38.0,48.0,1022.0,square2,f,0.0043,1,S,12.0
S12,25.0,31.0,43.0,30.0,40.0,31.0,1053.0,square1,r,0.0004,0,S,12.0
S12,26.0,35.0,48.0,34.0,33.0,48.0,1101.0,square2,f,0.1238,1,S,12.0
S12,27.0,46.0,46.0,28.0,38.0,38.0,1139.0,square4,j,0.1239,3,S,12.0
S12,28.0,32.0,37.0,32.0,40.0,37.0,1176.0,square2,f,0.05,1,S,12.0
S12,29.0,38.0,41.0,32.0,44.0,41.0,1217.0,square2,f,0.0835,1,S,12.0
S12,30.0,32.0,48.0,29.0,42.0,48.0,1265.0,square2,f,0.2837,1,S,12.0
S12,31.0,34.0,46.0,30.0,42.0,46.0,1311.0,square2,f,0.0335,1,S,12.0
S12,32.0,39.0,43.0,41.0,40.0,43.0,1354.0,square2,f,0.2953,1,S,12.0
S12,33.0,36.0,47.0,33.0,46.0,47.0,1401.0,square2,f,0.0832,1,S,12.0
S12,34.0,36.0,41.0,34.0,41.0,41.0,1442.0,square2,f,0.1665,1,S,12.0
S12,35.0,34.0,42.0,31.0,43.0,42.0,1484.0,square2,f,0.0502,1,S,12.0
S12,36.0,39.0,43.0,26.0,33.0,43.0,1527.0,square2,f,0.6287,1,S,12.0
S12,37.0,39.0,49.0,30.0,42.0,49.0,1576.0,square2,f,0.0004,1,S,12.0
S12,38.0,33.0,47.0,36.0,41.0,47.0,1623.0,square2,f,0.206,1,S,12.0
S12,39.0,29.0,46.0,35.0,36.0,46.0,1669.0,square2,f,0.1667,1,S,12.0
S12,40.0,39.0,39.0,29.0,36.0,39.0,1708.0,square2,f,0.1333,1,S,12.0
S12,41.0,33.0,44.0,31.0,40.0,44.0,1752.0,square2,f,0.1616,1,S,12.0
S12,42.0,34.0,46.0,25.0,37.0,46.0,1798.0,square2,f,0.0668,1,S,12.0
S12,43.0,37.0,42.0,30.0,42.0,42.0,1840.0,square2,f,0.0835,1,S,12.0
S12,44.0,33.0,49.0,36.0,39.0,49.0,1889.0,square2,f,0.0002,1,S,12.0
S12,45.0,35.0,40.0,30.0,47.0,40.0,1929.0,square2,f,0.1667,1,S,12.0
S12,46.0,40.0,41.0,29.0,35.0,41.0,1970.0,square2,f,0.1668,1,S,12.0
S12,47.0,32.0,42.0,28.0,43.0,42.0,2012.0,square2,f,0.0002,1,S,12.0
S12,48.0,43.0,47.0,31.0,38.0,47.0,2059.0,square2,f,0.0167,1,S,12.0
S12,49.0,37.0,41.0,35.0,40.0,41.0,2100.0,square2,f,0.1501,1,S,12.0
S1,0.0,72.0,58.0,70.0,66.0,58.0,58.0,square2,r,0.6445,1,S,1.0
S1,1.0,75.0,64.0,66.0,69.0,69.0,127.0,square4,f,0.0004,3,S,1.0
S1,2.0,75.0,62.0,62.0,79.0,62.0,189.0,square3,j,0.2167,2,S,1.0
S1,3.0,68.0,62.0,63.0,69.0,68.0,257.0,square1,i,0.15,0,S,1.0
S1,4.0,82.0,63.0,64.0,73.0,73.0,330.0,square4,f,0.0502,3,S,1.0
S1,5.0,66.0,70.0,65.0,73.0,65.0,395.0,square3,j,0.0667,2,S,1.0
S1,6.0,73.0,65.0,62.0,65.0,73.0,468.0,square1,i,0.6501,0,S,1.0
S1,7.0,70.0,61.0,65.0,66.0,61.0,529.0,square2,r,0.5341,1,S,1.0
S1,8.0,78.0,63.0,67.0,68.0,68.0,597.0,square4,f,0.0003,3,S,1.0
S1,9.0,74.0,67.0,66.0,68.0,68.0,665.0,square4,f,0.1273,3,S,1.0
S1,10.0,73.0,59.0,68.0,68.0,73.0,738.0,square1,i,0.1836,0,S,1.0
S1,11.0,76.0,65.0,62.0,81.0,76.0,814.0,square1,i,0.0834,0,S,1.0
S1,12.0,77.0,66.0,69.0,63.0,63.0,877.0,square4,f,0.0394,3,S,1.0
S1,13.0,75.0,63.0,68.0,73.0,75.0,952.0,square1,i,0.1788,0,S,1.0
S1,14.0,67.0,60.0,67.0,69.0,67.0,1019.0,square1,i,0.0406,0,S,1.0
S1,15.0,70.0,63.0,69.0,73.0,69.0,1088.0,square3,j,0.0334,2,S,1.0
S1,16.0,69.0,61.0,69.0,69.0,69.0,1157.0,square3,j,0.3046,2,S,1.0
S1,17.0,73.0,68.0,67.0,73.0,67.0,1224.0,square3,j,0.1669,2,S,1.0
S1,18.0,70.0,58.0,73.0,66.0,58.0,1282.0,square2,r,0.0834,1,S,1.0
S1,19.0,75.0,58.0,62.0,68.0,75.0,1357.0,square1,i,0.0335,0,S,1.0
S1,20.0,76.0,58.0,72.0,67.0,76.0,1433.0,square1,i,0.0695,0,S,1.0
S1,21.0,69.0,66.0,66.0,67.0,67.0,1500.0,square4,f,0.0333,3,S,1.0
S1,22.0,70.0,68.0,65.0,65.0,70.0,1570.0,square1,i,0.0172,0,S,1.0
S1,23.0,71.0,60.0,64.0,64.0,71.0,1641.0,square1,i,0.1284,0,S,1.0
S1,24.0,70.0,72.0,62.0,67.0,70.0,1711.0,square1,i,0.1333,0,S,1.0
S1,25.0,68.0,60.0,70.0,65.0,68.0,1779.0,square1,i,0.0963,0,S,1.0
S1,26.0,76.0,64.0,72.0,69.0,76.0,1855.0,square1,i,0.1002,0,S,1.0
S1,27.0,71.0,56.0,70.0,65.0,71.0,1926.0,square1,i,0.0431,0,S,1.0
S1,28.0,67.0,67.0,71.0,76.0,67.0,1993.0,square1,i,0.0003,0,S,1.0
S1,29.0,78.0,64.0,64.0,74.0,78.0,2071.0,square1,i,0.15,0,S,1.0
S1,30.0,74.0,63.0,65.0,71.0,74.0,2145.0,square1,i,0.2167,0,S,1.0
S1,31.0,78.0,58.0,69.0,69.0,78.0,2223.0,square1,i,0.0501,0,S,1.0
S1,32.0,71.0,67.0,68.0,60.0,71.0,2294.0,square1,i,0.0355,0,S,1.0
S1,33.0,68.0,63.0,65.0,73.0,68.0,2362.0,square1,i,0.067,0,S,1.0
S1,34.0,71.0,62.0,74.0,73.0,71.0,2433.0,square1,i,0.1533,0,S,1.0
S1,35.0,75.0,59.0,67.0,77.0,75.0,2508.0,square1,i,0.0003,0,S,1.0
S1,36.0,77.0,60.0,66.0,67.0,77.0,2585.0,square1,i,0.1502,0,S,1.0
S1,37.0,69.0,60.0,69.0,75.0,69.0,2654.0,square1,i,0.2001,0,S,1.0
S1,38.0,77.0,64.0,62.0,70.0,77.0,2731.0,square1,i,0.0003,0,S,1.0
S1,39.0,72.0,66.0,69.0,65.0,72.0,2803.0,square1,i,0.1834,0,S,1.0
S1,40.0,69.0,63.0,66.0,69.0,69.0,2872.0,square1,i,0.0333,0,S,1.0
S1,41.0,72.0,62.0,70.0,70.0,72.0,2944.0,square1,i,0.0044,0,S,1.0
S1,42.0,78.0,60.0,63.0,62.0,78.0,3022.0,square1,i,0.0061,0,S,1.0
S1,43.0,71.0,62.0,67.0,73.0,71.0,3093.0,square1,i,0.0267,0,S,1.0
S1,44.0,75.0,63.0,69.0,73.0,75.0,3168.0,square1,i,0.1829,0,S,1.0
S1,45.0,66.0,60.0,68.0,73.0,66.0,3234.0,square1,i,0.0367,0,S,1.0
S1,46.0,74.0,67.0,69.0,71.0,74.0,3308.0,square1,i,0.1443,0,S,1.0
S1,47.0,71.0,66.0,68.0,70.0,71.0,3379.0,square1,i,0.0998,0,S,1.0
S1,48.0,72.0,75.0,71.0,77.0,72.0,3451.0,square1,i,0.4335,0,S,1.0
S1,49.0,65.0,57.0,66.0,75.0,65.0,3516.0,square1,i,0.0768,0,S,1.0
S10,0.0,72.0,76.0,80.0,64.0,64.0,64.0,square4,r,0.8166,3,S,10.0
S10,1.0,76.0,75.0,74.0,65.0,76.0,140.0,square1,f,0.002,0,S,10.0
S10,2.0,70.0,72.0,79.0,74.0,72.0,212.0,square2,j,0.1002,1,S,10.0
S10,3.0,69.0,77.0,76.0,68.0,76.0,288.0,square3,i,0.0002,2,S,10.0
S10,4.0,72.0,79.0,77.0,70.0,72.0,360.0,square1,f,0.6668,0,S,10.0
S10,5.0,68.0,74.0,72.0,64.0,72.0,432.0,square3,i,0.0004,2,S,10.0
S10,6.0,70.0,77.0,72.0,62.0,70.0,502.0,square1,f,0.0499,0,S,10.0
S10,7.0,78.0,81.0,80.0,74.0,80.0,582.0,square3,i,0.0835,2,S,10.0
S10,8.0,78.0,78.0,82.0,66.0,82.0,664.0,square3,i,0.2834,2,S,10.0
S10,9.0,69.0,76.0,77.0,65.0,76.0,740.0,square2,j,0.0764,1,S,10.0
S10,10.0,72.0,78.0,72.0,75.0,75.0,815.0,square4,r,0.0826,3,S,10.0
S10,11.0,71.0,76.0,78.0,66.0,76.0,891.0,square2,j,0.0003,1,S,10.0
S10,12.0,73.0,83.0,79.0,69.0,83.0,974.0,square2,j,0.278,1,S,10.0
S10,13.0,68.0,77.0,65.0,65.0,77.0,1051.0,square2,j,0.066,1,S,10.0
S10,14.0,69.0,84.0,79.0,65.0,84.0,1135.0,square2,j,0.0004,1,S,10.0
S10,15.0,72.0,84.0,70.0,71.0,71.0,1206.0,square4,r,0.0333,3,S,10.0
S10,16.0,79.0,80.0,82.0,67.0,82.0,1288.0,square3,i,0.0336,2,S,10.0
S10,17.0,69.0,83.0,75.0,70.0,83.0,1371.0,square2,j,0.0166,1,S,10.0
S10,18.0,69.0,75.0,69.0,68.0,75.0,1446.0,square2,j,0.117,1,S,10.0
S10,19.0,70.0,83.0,73.0,66.0,70.0,1516.0,square1,f,0.0766,0,S,10.0
S10,20.0,69.0,83.0,75.0,66.0,83.0,1599.0,square2,j,0.2168,1,S,10.0
S10,21.0,77.0,70.0,75.0,70.0,70.0,1669.0,square2,j,0.1233,1,S,10.0
S10,22.0,73.0,77.0,81.0,69.0,77.0,1746.0,square2,j,0.0334,1,S,10.0
S10,23.0,73.0,78.0,70.0,65.0,78.0,1824.0,square2,j,0.0004,1,S,10.0
S10,24.0,70.0,80.0,75.0,66.0,80.0,1904.0,square2,j,0.1835,1,S,10.0
S10,25.0,70.0,80.0,73.0,72.0,80.0,1984.0,square2,j,0.1834,1,S,10.0
S10,26.0,73.0,75.0,73.0,75.0,75.0,2059.0,square2,j,0.0406,1,S,10.0
S10,27.0,77.0,81.0,83.0,66.0,81.0,2140.0,square2,j,0.0363,1,S,10.0
S10,28.0,73.0,79.0,79.0,73.0,79.0,2219.0,square2,j,0.0668,1,S,10.0
S10,29.0,73.0,79.0,72.0,69.0,79.0,2298.0,square2,j,0.1869,1,S,10.0
S10,30.0,71.0,85.0,79.0,69.0,85.0,2383.0,square2,j,0.0555,1,S,10.0
S10,31.0,71.0,85.0,83.0,66.0,83.0,2466.0,square3,i,0.1464,2,S,10.0
S10,32.0,78.0,79.0,77.0,65.0,79.0,2545.0,square2,j,0.0668,1,S,10.0
S10,33.0,83.0,79.0,72.0,68.0,79.0,2624.0,square2,j,0.0603,1,S,10.0
S10,34.0,68.0,74.0,79.0,72.0,79.0,2703.0,square3,i,0.1667,2,S,10.0
S10,35.0,70.0,83.0,79.0,67.0,79.0,2782.0,square3,i,0.2001,2,S,10.0
S10,36.0,67.0,76.0,75.0,72.0,76.0,2858.0,square2,j,0.1001,1,S,10.0
S10,37.0,76.0,82.0,79.0,60.0,82.0,2940.0,square2,j,0.0501,1,S,10.0
S10,38.0,72.0,75.0,69.0,68.0,75.0,3015.0,square2,j,0.0667,1,S,10.0
S10,39.0,73.0,78.0,76.0,70.0,78.0,3093.0,square2,j,0.1501,1,S,10.0
S10,40.0,76.0,77.0,66.0,60.0,77.0,3170.0,square2,j,0.0334,1,S,10.0
S10,41.0,74.0,83.0,73.0,67.0,83.0,3253.0,square2,j,0.0779,1,S,10.0
S10,42.0,72.0,69.0,80.0,63.0,69.0,3322.0,square2,j,0.1002,1,S,10.0
S10,43.0,69.0,74.0,72.0,68.0,74.0,3396.0,square2,j,0.1334,1,S,10.0
S10,44.0,67.0,76.0,70.0,65.0,76.0,3472.0,square2,j,0.2834,1,S,10.0
S10,45.0,76.0,81.0,74.0,72.0,74.0,3546.0,square3,i,0.0275,2,S,10.0
S10,46.0,76.0,79.0,76.0,66.0,66.0,3612.0,square4,r,0.0234,3,S,10.0
S10,47.0,67.0,81.0,84.0,60.0,67.0,3679.0,square1,f,1.2835,0,S,10.0
S10,48.0,73.0,83.0,75.0,66.0,83.0,3762.0,square2,j,0.3257,1,S,10.0
S10,49.0,66.0,77.0,74.0,71.0,77.0,3839.0,square2,j,0.0334,1,S,10.0
S2,0.0,62.0,57.0,71.0,74.0,62.0,62.0,square1,j,0.6832,0,S,2.0
S2,1.0,64.0,59.0,72.0,67.0,67.0,129.0,square4,i,0.1001,3,S,2.0
S2,2.0,68.0,57.0,75.0,68.0,57.0,186.0,square2,r,0.1834,1,S,2.0
S2,3.0,69.0,57.0,80.0,70.0,80.0,266.0,square3,f,0.1,2,S,2.0
S2,4.0,66.0,60.0,74.0,68.0,68.0,334.0,square4,i,0.1835,3,S,2.0
S2,5.0,63.0,62.0,77.0,72.0,77.0,411.0,square3,f,0.1834,2,S,2.0
S2,6.0,69.0,61.0,75.0,74.0,69.0,480.0,square1,j,0.15,0,S,2.0
S2,7.0,74.0,66.0,79.0,72.0,74.0,554.0,square1,j,0.1666,0,S,2.0
S2,8.0,81.0,65.0,76.0,72.0,76.0,630.0,square3,f,0.0003,2,S,2.0
S2,9.0,70.0,66.0,78.0,70.0,78.0,708.0,square3,f,0.0727,2,S,2.0
S2,10.0,70.0,72.0,70.0,74.0,72.0,780.0,square2,r,0.083,1,S,2.0
S2,11.0,64.0,66.0,72.0,67.0,66.0,846.0,square2,r,0.0004,1,S,2.0
S2,12.0,66.0,57.0,70.0,67.0,67.0,913.0,square4,i,0.1294,3,S,2.0
S2,13.0,68.0,68.0,71.0,73.0,73.0,986.0,square4,i,0.0576,3,S,2.0
S2,14.0,70.0,63.0,77.0,71.0,70.0,1056.0,square1,j,0.1723,0,S,2.0
S2,15.0,64.0,66.0,75.0,66.0,75.0,1131.0,square3,f,0.15,2,S,2.0
S2,16.0,67.0,61.0,73.0,70.0,73.0,1204.0,square3,f,0.1056,2,S,2.0
S2,17.0,65.0,58.0,71.0,75.0,71.0,1275.0,square3,f,0.2001,2,S,2.0
S2,18.0,72.0,64.0,81.0,61.0,81.0,1356.0,square3,f,0.0076,2,S,2.0
S2,19.0,60.0,63.0,72.0,65.0,72.0,1428.0,square3,f,0.0442,2,S,2.0
S2,20.0,68.0,56.0,71.0,70.0,71.0,1499.0,square3,f,0.0333,2,S,2.0
S2,21.0,65.0,65.0,74.0,71.0,74.0,1573.0,square3,f,0.1835,2,S,2.0
S2,22.0,69.0,62.0,77.0,72.0,77.0,1650.0,square3,f,0.0501,2,S,2.0
S2,23.0,64.0,71.0,74.0,65.0,74.0,1724.0,square3,f,0.0339,2,S,2.0
S2,24.0,66.0,62.0,78.0,70.0,78.0,1802.0,square3,f,0.0252,2,S,2.0
S2,25.0,67.0,69.0,76.0,66.0,76.0,1878.0,square3,f,0.2335,2,S,2.0
S2,26.0,65.0,63.0,74.0,69.0,74.0,1952.0,square3,f,0.0496,2,S,2.0
S2,27.0,68.0,64.0,67.0,68.0,68.0,2020.0,square4,i,0.1399,3,S,2.0
S2,28.0,61.0,52.0,71.0,68.0,52.0,2072.0,square2,r,0.7072,1,S,2.0
S2,29.0,67.0,64.0,73.0,69.0,67.0,2139.0,square1,j,0.0003,0,S,2.0
S2,30.0,67.0,53.0,77.0,67.0,67.0,2206.0,square1,j,0.1934,0,S,2.0
S2,31.0,67.0,69.0,69.0,68.0,67.0,2273.0,square1,j,0.0333,0,S,2.0
S2,32.0,71.0,63.0,73.0,70.0,71.0,2344.0,square1,j,0.1668,0,S,2.0
S2,33.0,61.0,65.0,68.0,71.0,61.0,2405.0,square1,j,0.1214,0,S,2.0
S2,34.0,66.0,55.0,78.0,68.0,78.0,2483.0,square3,f,0.1842,2,S,2.0
S2,35.0,60.0,57.0,66.0,66.0,66.0,2549.0,square3,f,0.0667,2,S,2.0
S2,36.0,64.0,63.0,73.0,72.0,73.0,2622.0,square3,f,0.2168,2,S,2.0
S2,37.0,65.0,62.0,75.0,68.0,75.0,2697.0,square3,f,0.0164,2,S,2.0
S2,38.0,69.0,57.0,71.0,62.0,71.0,2768.0,square3,f,0.0666,2,S,2.0
S2,39.0,72.0,66.0,74.0,74.0,74.0,2842.0,square3,f,0.0781,2,S,2.0
S2,40.0,66.0,63.0,76.0,59.0,76.0,2918.0,square3,f,0.0669,2,S,2.0
S2,41.0,74.0,64.0,67.0,76.0,67.0,2985.0,square3,f,0.2336,2,S,2.0
S2,42.0,62.0,67.0,72.0,68.0,72.0,3057.0,square3,f,0.0833,2,S,2.0
S2,43.0,69.0,63.0,75.0,71.0,75.0,3132.0,square3,f,0.121,2,S,2.0
S2,44.0,72.0,60.0,74.0,67.0,74.0,3206.0,square3,f,0.067,2,S,2.0
S2,45.0,69.0,63.0,76.0,73.0,76.0,3282.0,square3,f,0.0003,2,S,2.0
S2,46.0,64.0,71.0,75.0,72.0,75.0,3357.0,square3,f,0.0668,2,S,2.0
S2,47.0,75.0,62.0,75.0,69.0,75.0,3432.0,square3,f,0.116,2,S,2.0
S2,48.0,66.0,65.0,74.0,68.0,74.0,3506.0,square3,f,0.085,2,S,2.0
S2,49.0,67.0,64.0,72.0,76.0,72.0,3578.0,square3,f,0.1335,2,S,2.0
S7,0.0,68.0,73.0,62.0,57.0,68.0,68.0,square1,i,1.1166,0,S,7.0
S7,1.0,74.0,67.0,66.0,59.0,67.0,135.0,square2,f,0.0598,1,S,7.0
S7,2.0,68.0,69.0,65.0,60.0,65.0,200.0,square3,j,0.0334,2,S,7.0
S7,3.0,74.0,68.0,65.0,63.0,68.0,268.0,square2,f,0.0002,1,S,7.0
S7,4.0,68.0,74.0,67.0,63.0,63.0,331.0,square4,r,0.1334,3,S,7.0
S7,5.0,68.0,67.0,61.0,57.0,68.0,399.0,square1,i,0.0796,0,S,7.0
S7,6.0,72.0,64.0,65.0,51.0,64.0,463.0,square2,f,0.0334,1,S,7.0
S7,7.0,69.0,63.0,69.0,63.0,69.0,532.0,square1,i,0.118,0,S,7.0
S7,8.0,71.0,68.0,63.0,54.0,71.0,603.0,square1,i,0.1667,0,S,7.0
S7,9.0,81.0,66.0,68.0,62.0,81.0,684.0,square1,i,0.0002,0,S,7.0
S7,10.0,72.0,73.0,68.0,61.0,72.0,756.0,square1,i,0.0169,0,S,7.0
S7,11.0,72.0,72.0,62.0,58.0,72.0,828.0,square1,i,0.2501,0,S,7.0
S7,12.0,66.0,66.0,62.0,61.0,66.0,894.0,square1,i,0.1998,0,S,7.0
S7,13.0,73.0,75.0,75.0,68.0,73.0,967.0,square1,i,0.1499,0,S,7.0
S7,14.0,71.0,73.0,72.0,66.0,71.0,1038.0,square1,i,0.1827,0,S,7.0
S7,15.0,75.0,68.0,68.0,65.0,75.0,1113.0,square1,i,0.0002,0,S,7.0
S7,16.0,67.0,65.0,62.0,56.0,67.0,1180.0,square1,i,0.0348,0,S,7.0
S7,17.0,72.0,67.0,63.0,64.0,72.0,1252.0,square1,i,0.0332,0,S,7.0
S7,18.0,73.0,69.0,66.0,65.0,73.0,1325.0,square1,i,0.0334,0,S,7.0
S7,19.0,75.0,70.0,62.0,58.0,75.0,1400.0,square1,i,0.0669,0,S,7.0
S7,20.0,76.0,63.0,67.0,62.0,67.0,1467.0,square3,j,0.0834,2,S,7.0
S7,21.0,79.0,76.0,63.0,64.0,63.0,1530.0,square3,j,0.7835,2,S,7.0
S7,22.0,67.0,72.0,63.0,62.0,62.0,1592.0,square4,r,0.1168,3,S,7.0
S7,23.0,69.0,71.0,70.0,62.0,71.0,1663.0,square2,f,0.0335,1,S,7.0
S7,24.0,74.0,67.0,70.0,62.0,67.0,1730.0,square2,f,0.0165,1,S,7.0
S7,25.0,70.0,67.0,72.0,62.0,70.0,1800.0,square1,i,0.0574,0,S,7.0
S7,26.0,72.0,62.0,74.0,65.0,72.0,1872.0,square1,i,0.0502,0,S,7.0
S7,27.0,69.0,70.0,68.0,62.0,69.0,1941.0,square1,i,0.1036,0,S,7.0
S7,28.0,65.0,66.0,60.0,62.0,65.0,2006.0,square1,i,0.1835,0,S,7.0
S7,29.0,70.0,64.0,60.0,68.0,70.0,2076.0,square1,i,0.0003,0,S,7.0
S7,30.0,69.0,69.0,64.0,57.0,69.0,2145.0,square1,i,0.0044,0,S,7.0
S7,31.0,77.0,67.0,65.0,60.0,77.0,2222.0,square1,i,0.0082,0,S,7.0
S7,32.0,67.0,75.0,65.0,58.0,67.0,2289.0,square1,i,0.15,0,S,7.0
S7,33.0,74.0,66.0,66.0,60.0,74.0,2363.0,square1,i,0.0003,0,S,7.0
S7,34.0,72.0,72.0,66.0,61.0,72.0,2435.0,square2,f,0.0164,1,S,7.0
S7,35.0,67.0,68.0,64.0,62.0,68.0,2503.0,square2,f,0.135,1,S,7.0
S7,36.0,64.0,63.0,70.0,58.0,63.0,2566.0,square2,f,0.0834,1,S,7.0
S7,37.0,80.0,72.0,64.0,53.0,80.0,2646.0,square1,i,0.1036,0,S,7.0
S7,38.0,78.0,69.0,76.0,67.0,78.0,2724.0,square1,i,0.0005,0,S,7.0
S7,39.0,69.0,66.0,60.0,67.0,69.0,2793.0,square1,i,0.0167,0,S,7.0
S7,40.0,72.0,71.0,63.0,66.0,72.0,2865.0,square1,i,0.0025,0,S,7.0
S7,41.0,80.0,73.0,65.0,63.0,80.0,2945.0,square1,i,0.0003,0,S,7.0
S7,42.0,77.0,60.0,65.0,59.0,77.0,3022.0,square1,i,0.0667,0,S,7.0
S7,43.0,70.0,72.0,70.0,63.0,70.0,3092.0,square1,i,0.0232,0,S,7.0
S7,44.0,77.0,70.0,66.0,58.0,77.0,3169.0,square1,i,0.2169,0,S,7.0
S7,45.0,75.0,69.0,73.0,58.0,75.0,3244.0,square1,i,0.008,0,S,7.0
S7,46.0,74.0,71.0,63.0,63.0,74.0,3318.0,square1,i,0.0004,0,S,7.0
S7,47.0,73.0,75.0,71.0,64.0,73.0,3391.0,square1,i,0.0003,0,S,7.0
S7,48.0,78.0,79.0,64.0,58.0,78.0,3469.0,square1,i,0.1829,0,S,7.0
S7,49.0,75.0,72.0,66.0,72.0,75.0,3544.0,square1,i,0.0003,0,S,7.0
S3,0.0,38.0,48.0,42.0,57.0,48.0,48.0,square2,j,0.4372,1,S,3.0
S3,1.0,29.0,43.0,51.0,57.0,29.0,77.0,square1,f,0.0333,0,S,3.0
S3,2.0,41.0,49.0,46.0,49.0,46.0,123.0,square3,r,0.1501,2,S,3.0
S3,3.0,44.0,50.0,45.0,52.0,52.0,175.0,square4,i,0.1333,3,S,3.0
S3,4.0,37.0,51.0,45.0,58.0,58.0,233.0,square4,i,0.1168,3,S,3.0
S3,5.0,47.0,43.0,42.0,49.0,42.0,275.0,square3,r,0.1669,2,S,3.0
S3,6.0,44.0,53.0,51.0,58.0,44.0,319.0,square1,f,0.1953,0,S,3.0
S3,7.0,39.0,47.0,46.0,54.0,54.0,373.0,square4,i,0.0003,3,S,3.0
S3,8.0,43.0,53.0,41.0,52.0,52.0,425.0,square4,i,0.1166,3,S,3.0
S3,9.0,42.0,46.0,41.0,53.0,53.0,478.0,square4,i,0.0002,3,S,3.0
S3,10.0,37.0,49.0,49.0,55.0,55.0,533.0,square4,i,0.036,3,S,3.0
S3,11.0,40.0,47.0,36.0,59.0,59.0,592.0,square4,i,0.0833,3,S,3.0
S3,12.0,46.0,51.0,39.0,56.0,56.0,648.0,square4,i,0.0893,3,S,3.0
S3,13.0,39.0,48.0,45.0,57.0,57.0,705.0,square4,i,0.1229,3,S,3.0
S3,14.0,39.0,55.0,43.0,47.0,47.0,752.0,square4,i,0.0833,3,S,3.0
S3,15.0,46.0,46.0,47.0,52.0,52.0,804.0,square4,i,0.0667,3,S,3.0
S3,16.0,42.0,49.0,50.0,55.0,55.0,859.0,square4,i,0.1682,3,S,3.0
S3,17.0,45.0,45.0,56.0,47.0,47.0,906.0,square4,i,0.0934,3,S,3.0
S3,18.0,46.0,43.0,45.0,50.0,50.0,956.0,square4,i,0.1109,3,S,3.0
S3,19.0,41.0,47.0,50.0,55.0,55.0,1011.0,square4,i,0.1,3,S,3.0
S3,20.0,45.0,52.0,49.0,52.0,52.0,1063.0,square4,i,0.1452,3,S,3.0
S3,21.0,40.0,43.0,47.0,46.0,46.0,1109.0,square4,i,0.2335,3,S,3.0
S3,22.0,45.0,46.0,44.0,47.0,47.0,1156.0,square4,i,0.0845,3,S,3.0
S3,23.0,36.0,50.0,42.0,46.0,46.0,1202.0,square4,i,0.1167,3,S,3.0
S3,24.0,42.0,54.0,49.0,55.0,55.0,1257.0,square4,i,0.1668,3,S,3.0
S3,25.0,43.0,51.0,44.0,54.0,54.0,1311.0,square4,i,0.1835,3,S,3.0
S3,26.0,49.0,50.0,52.0,52.0,52.0,1363.0,square4,i,0.1667,3,S,3.0
S3,27.0,47.0,52.0,44.0,50.0,50.0,1413.0,square4,i,0.0003,3,S,3.0
S3,28.0,37.0,48.0,40.0,47.0,47.0,1460.0,square4,i,0.05,3,S,3.0
S3,29.0,50.0,43.0,50.0,57.0,57.0,1517.0,square4,i,0.05,3,S,3.0
S3,30.0,50.0,50.0,46.0,47.0,47.0,1564.0,square4,i,0.1898,3,S,3.0
S3,31.0,37.0,53.0,49.0,56.0,56.0,1620.0,square4,i,0.2167,3,S,3.0
S3,32.0,42.0,50.0,43.0,58.0,58.0,1678.0,square4,i,0.2335,3,S,3.0
S3,33.0,44.0,49.0,46.0,59.0,59.0,1737.0,square4,i,0.0168,3,S,3.0
S3,34.0,42.0,50.0,50.0,58.0,58.0,1795.0,square4,i,0.1002,3,S,3.0
S3,35.0,43.0,46.0,45.0,50.0,50.0,1845.0,square4,i,0.2098,3,S,3.0
S3,36.0,46.0,52.0,50.0,48.0,48.0,1893.0,square4,i,0.1668,3,S,3.0
S3,37.0,48.0,50.0,49.0,52.0,52.0,1945.0,square4,i,0.2001,3,S,3.0
S3,38.0,39.0,43.0,50.0,55.0,55.0,2000.0,square4,i,0.2002,3,S,3.0
S3,39.0,50.0,53.0,46.0,57.0,57.0,2057.0,square4,i,0.0334,3,S,3.0
S3,40.0,41.0,46.0,48.0,55.0,55.0,2112.0,square4,i,0.2668,3,S,3.0
S3,41.0,49.0,49.0,40.0,56.0,56.0,2168.0,square4,i,0.0168,3,S,3.0
S3,42.0,47.0,49.0,43.0,48.0,48.0,2216.0,square4,i,0.3668,3,S,3.0
S3,43.0,46.0,43.0,41.0,58.0,58.0,2274.0,square4,i,0.0743,3,S,3.0
S3,44.0,46.0,52.0,51.0,55.0,55.0,2329.0,square4,i,0.1168,3,S,3.0
S3,45.0,46.0,41.0,46.0,49.0,49.0,2378.0,square4,i,0.1194,3,S,3.0
S3,46.0,32.0,56.0,40.0,50.0,50.0,2428.0,square4,i,0.2001,3,S,3.0
S3,47.0,42.0,49.0,44.0,51.0,51.0,2479.0,square4,i,0.2668,3,S,3.0
S3,48.0,36.0,45.0,38.0,50.0,50.0,2529.0,square4,i,0.2335,3,S,3.0
S3,49.0,45.0,48.0,47.0,52.0,52.0,2581.0,square4,i,0.0004,3,S,3.0
