block,Trial,square1,square2,square3,square4,currPoints,totalPoints,square,choiceKey.keys,choiceKey.rt,armNum,blockType,blockNum
prac,0.0,100.0,0.0,0.0,0.0,0,0.0,square3,,,2,p,0.0
prac,1.0,100.0,0.0,0.0,0.0,99999,0.0,invalid,,,-1,p,0.0
prac,2.0,100.0,0.0,0.0,0.0,0,0.0,square4,,,3,p,0.0
prac,3.0,100.0,0.0,0.0,0.0,100,100.0,square1,,,0,p,0.0
prac,4.0,100.0,0.0,0.0,0.0,0,100.0,square2,,,1,p,0.0
prac,5.0,100.0,0.0,0.0,0.0,100,200.0,square1,,,0,p,0.0
prac,6.0,100.0,0.0,0.0,0.0,100,300.0,square1,,,0,p,0.0
prac,7.0,100.0,0.0,0.0,0.0,100,400.0,square1,,,0,p,0.0
prac,8.0,100.0,0.0,0.0,0.0,100,500.0,square1,,,0,p,0.0
prac,9.0,100.0,0.0,0.0,0.0,100,600.0,square1,,,0,p,0.0
S8,0.0,58.0,60.0,52.0,45.0,45,45.0,square4,f,1.1023,3,S,8.0
S8,1.0,55.0,57.0,56.0,52.0,57,102.0,square2,r,0.3841,1,S,8.0
S8,2.0,54.0,58.0,58.0,49.0,58,160.0,square3,i,0.3211,2,S,8.0
S8,3.0,55.0,62.0,52.0,53.0,55,215.0,square1,j,0.4318,0,S,8.0
S8,4.0,55.0,60.0,49.0,51.0,51,266.0,square4,f,0.9883,3,S,8.0
S8,5.0,48.0,63.0,61.0,49.0,63,329.0,square2,r,0.0677,1,S,8.0
S8,6.0,58.0,63.0,59.0,55.0,59,388.0,square3,i,0.2106,2,S,8.0
S8,7.0,56.0,53.0,49.0,51.0,56,444.0,square1,j,0.0167,0,S,8.0
S8,8.0,61.0,63.0,66.0,49.0,49,493.0,square4,f,0.1888,3,S,8.0
S8,9.0,60.0,59.0,53.0,47.0,53,546.0,square3,i,0.5834,2,S,8.0
S8,10.0,55.0,63.0,52.0,55.0,55,601.0,square1,j,0.08,0,S,8.0
S8,11.0,62.0,60.0,54.0,50.0,50,651.0,square4,f,1.2084,3,S,8.0
S8,12.0,58.0,64.0,51.0,52.0,64,715.0,square2,r,0.3742,1,S,8.0
S8,13.0,62.0,59.0,53.0,53.0,53,768.0,square3,i,0.2833,2,S,8.0
S8,14.0,51.0,62.0,61.0,54.0,51,819.0,square1,j,0.9006,0,S,8.0
S8,15.0,56.0,68.0,56.0,50.0,50,869.0,square4,f,0.1216,3,S,8.0
S8,16.0,58.0,64.0,56.0,50.0,64,933.0,square2,r,0.0418,1,S,8.0
S8,17.0,64.0,63.0,60.0,42.0,60,993.0,square3,i,0.0217,2,S,8.0
S8,18.0,54.0,64.0,57.0,55.0,54,1047.0,square1,j,0.3536,0,S,8.0
S8,19.0,56.0,53.0,57.0,53.0,53,1100.0,square4,f,0.5713,3,S,8.0
S8,20.0,59.0,64.0,56.0,49.0,64,1164.0,square2,r,0.0005,1,S,8.0
S8,21.0,54.0,59.0,55.0,48.0,55,1219.0,square3,i,0.875,2,S,8.0
S8,22.0,63.0,63.0,59.0,49.0,63,1282.0,square1,j,0.0796,0,S,8.0
S8,23.0,59.0,60.0,48.0,52.0,52,1334.0,square4,f,0.1529,3,S,8.0
S8,24.0,55.0,53.0,60.0,50.0,53,1387.0,square2,r,0.0674,1,S,8.0
S8,25.0,57.0,60.0,55.0,54.0,55,1442.0,square3,i,0.6664,2,S,8.0
S8,26.0,62.0,66.0,57.0,58.0,62,1504.0,square1,j,0.2514,0,S,8.0
S8,27.0,58.0,55.0,52.0,48.0,48,1552.0,square4,f,0.0403,3,S,8.0
S8,28.0,53.0,59.0,53.0,55.0,59,1611.0,square2,r,0.0166,1,S,8.0
S8,29.0,60.0,58.0,57.0,53.0,57,1668.0,square3,i,0.6602,2,S,8.0
S8,30.0,57.0,67.0,52.0,56.0,57,1725.0,square1,j,0.1835,0,S,8.0
S8,31.0,60.0,58.0,52.0,50.0,50,1775.0,square4,f,0.2885,3,S,8.0
S8,32.0,54.0,61.0,56.0,57.0,61,1836.0,square2,r,0.1076,1,S,8.0
S8,33.0,66.0,64.0,63.0,52.0,63,1899.0,square3,i,0.1065,2,S,8.0
S8,34.0,54.0,65.0,66.0,56.0,56,1955.0,square4,f,0.902,3,S,8.0
S8,35.0,54.0,62.0,61.0,48.0,62,2017.0,square2,r,0.131,1,S,8.0
S8,36.0,53.0,63.0,54.0,55.0,54,2071.0,square3,i,0.6997,2,S,8.0
S8,37.0,64.0,58.0,57.0,51.0,64,2135.0,square1,j,0.0004,0,S,8.0
S8,38.0,68.0,65.0,59.0,57.0,57,2192.0,square4,f,0.596,3,S,8.0
S8,39.0,64.0,65.0,51.0,55.0,65,2257.0,square2,r,0.521,1,S,8.0
S8,40.0,63.0,61.0,57.0,47.0,57,2314.0,square3,i,0.4303,2,S,8.0
S8,41.0,65.0,58.0,55.0,49.0,65,2379.0,square1,j,0.5843,0,S,8.0
S8,42.0,52.0,60.0,51.0,56.0,56,2435.0,square4,f,0.033,3,S,8.0
S8,43.0,63.0,57.0,48.0,50.0,57,2492.0,square2,r,0.1512,1,S,8.0
S8,44.0,59.0,63.0,53.0,53.0,53,2545.0,square3,i,0.0004,2,S,8.0
S8,45.0,62.0,62.0,60.0,53.0,62,2607.0,square1,j,0.4845,0,S,8.0
S8,46.0,56.0,62.0,57.0,60.0,60,2667.0,square4,f,1.1503,3,S,8.0
S8,47.0,60.0,63.0,58.0,56.0,63,2730.0,square2,r,0.2043,1,S,8.0
S8,48.0,59.0,63.0,49.0,53.0,49,2779.0,square3,i,0.1846,2,S,8.0
S8,49.0,67.0,67.0,59.0,55.0,67,2846.0,square1,j,0.289,0,S,8.0
S10,0.0,72.0,76.0,80.0,64.0,64,64.0,square4,j,1.4451,3,S,10.0
S10,1.0,76.0,75.0,74.0,65.0,76,140.0,square1,i,1.3179,0,S,10.0
S10,2.0,70.0,72.0,79.0,74.0,72,212.0,square2,f,1.0195,1,S,10.0
S10,3.0,69.0,77.0,76.0,68.0,76,288.0,square3,r,0.7168,2,S,10.0
S10,4.0,72.0,79.0,77.0,70.0,72,360.0,square1,i,1.467,0,S,10.0
S10,5.0,68.0,74.0,72.0,64.0,72,432.0,square3,r,0.2356,2,S,10.0
S10,6.0,70.0,77.0,72.0,62.0,77,509.0,square2,f,0.5228,1,S,10.0
S10,7.0,78.0,81.0,80.0,74.0,81,590.0,square2,f,0.3954,1,S,10.0
S10,8.0,78.0,78.0,82.0,66.0,78,668.0,square2,f,0.2008,1,S,10.0
S10,9.0,69.0,76.0,77.0,65.0,76,744.0,square2,f,0.119,1,S,10.0
S10,10.0,72.0,78.0,72.0,75.0,78,822.0,square2,f,0.7003,1,S,10.0
S10,11.0,71.0,76.0,78.0,66.0,76,898.0,square2,f,0.3009,1,S,10.0
S10,12.0,73.0,83.0,79.0,69.0,83,981.0,square2,f,0.3593,1,S,10.0
S10,13.0,68.0,77.0,65.0,65.0,77,1058.0,square2,f,0.0303,1,S,10.0
S10,14.0,69.0,84.0,79.0,65.0,84,1142.0,square2,f,0.0081,1,S,10.0
S10,15.0,72.0,84.0,70.0,71.0,84,1226.0,square2,f,0.3009,1,S,10.0
S10,16.0,79.0,80.0,82.0,67.0,80,1306.0,square2,f,0.3168,1,S,10.0
S10,17.0,69.0,83.0,75.0,70.0,83,1389.0,square2,f,0.3523,1,S,10.0
S10,18.0,69.0,75.0,69.0,68.0,75,1464.0,square2,f,0.3572,1,S,10.0
S10,19.0,70.0,83.0,73.0,66.0,83,1547.0,square2,f,0.2843,1,S,10.0
S10,20.0,69.0,83.0,75.0,66.0,83,1630.0,square2,f,0.2515,1,S,10.0
S10,21.0,77.0,70.0,75.0,70.0,70,1700.0,square2,f,0.2661,1,S,10.0
S10,22.0,73.0,77.0,81.0,69.0,77,1777.0,square2,f,0.0079,1,S,10.0
S10,23.0,73.0,78.0,70.0,65.0,78,1855.0,square2,f,0.2524,1,S,10.0
S10,24.0,70.0,80.0,75.0,66.0,80,1935.0,square2,f,0.497,1,S,10.0
S10,25.0,70.0,80.0,73.0,72.0,80,2015.0,square2,f,0.0476,1,S,10.0
S10,26.0,73.0,75.0,73.0,75.0,75,2090.0,square2,f,0.5504,1,S,10.0
S10,27.0,77.0,81.0,83.0,66.0,81,2171.0,square2,f,0.1302,1,S,10.0
S10,28.0,73.0,79.0,79.0,73.0,79,2250.0,square2,f,0.192,1,S,10.0
S10,29.0,73.0,79.0,72.0,69.0,79,2329.0,square2,f,0.1667,1,S,10.0
S10,30.0,71.0,85.0,79.0,69.0,85,2414.0,square2,f,0.1069,1,S,10.0
S10,31.0,71.0,85.0,83.0,66.0,85,2499.0,square2,f,0.3831,1,S,10.0
S10,32.0,78.0,79.0,77.0,65.0,79,2578.0,square2,f,0.5165,1,S,10.0
S10,33.0,83.0,79.0,72.0,68.0,79,2657.0,square2,f,0.2754,1,S,10.0
S10,34.0,68.0,74.0,79.0,72.0,74,2731.0,square2,f,1.4223,1,S,10.0
S10,35.0,70.0,83.0,79.0,67.0,83,2814.0,square2,f,0.3524,1,S,10.0
S10,36.0,67.0,76.0,75.0,72.0,76,2890.0,square2,f,0.721,1,S,10.0
S10,37.0,76.0,82.0,79.0,60.0,82,2972.0,square2,f,0.4721,1,S,10.0
S10,38.0,72.0,75.0,69.0,68.0,75,3047.0,square2,f,0.1222,1,S,10.0
S10,39.0,73.0,78.0,76.0,70.0,78,3125.0,square2,f,0.6838,1,S,10.0
S10,40.0,76.0,77.0,66.0,60.0,77,3202.0,square2,f,0.4672,1,S,10.0
S10,41.0,74.0,83.0,73.0,67.0,83,3285.0,square2,f,0.5461,1,S,10.0
S10,42.0,72.0,69.0,80.0,63.0,69,3354.0,square2,f,0.4173,1,S,10.0
S10,43.0,69.0,74.0,72.0,68.0,74,3428.0,square2,f,0.6673,1,S,10.0
S10,44.0,67.0,76.0,70.0,65.0,76,3504.0,square2,f,0.1171,1,S,10.0
S10,45.0,76.0,81.0,74.0,72.0,81,3585.0,square2,f,0.0601,1,S,10.0
S10,46.0,76.0,79.0,76.0,66.0,79,3664.0,square2,f,0.0765,1,S,10.0
S10,47.0,67.0,81.0,84.0,60.0,81,3745.0,square2,f,0.4747,1,S,10.0
S10,48.0,73.0,83.0,75.0,66.0,83,3828.0,square2,f,0.0338,1,S,10.0
S10,49.0,66.0,77.0,74.0,71.0,77,3905.0,square2,f,0.0344,1,S,10.0
S12,0.0,38.0,42.0,30.0,42.0,38,38.0,square1,j,1.2374,0,S,12.0
S12,1.0,30.0,42.0,28.0,37.0,37,75.0,square4,f,0.8366,3,S,12.0
S12,2.0,34.0,41.0,38.0,43.0,41,116.0,square2,r,0.2568,1,S,12.0
S12,3.0,38.0,51.0,38.0,38.0,38,154.0,square3,i,0.2341,2,S,12.0
S12,4.0,32.0,37.0,33.0,45.0,37,191.0,square2,r,0.1839,1,S,12.0
S12,5.0,38.0,52.0,36.0,35.0,52,243.0,square2,r,0.0007,1,S,12.0
S12,6.0,30.0,43.0,30.0,38.0,43,286.0,square2,r,0.0007,1,S,12.0
S12,7.0,38.0,39.0,30.0,39.0,39,325.0,square2,r,0.0757,1,S,12.0
S12,8.0,37.0,49.0,35.0,38.0,49,374.0,square2,r,0.08,1,S,12.0
S12,9.0,37.0,44.0,29.0,38.0,44,418.0,square2,r,0.1717,1,S,12.0
S12,10.0,35.0,42.0,30.0,45.0,42,460.0,square2,r,0.1168,1,S,12.0
S12,11.0,34.0,45.0,36.0,32.0,45,505.0,square2,r,0.1268,1,S,12.0
S12,12.0,33.0,45.0,35.0,42.0,45,550.0,square2,r,0.1165,1,S,12.0
S12,13.0,36.0,36.0,29.0,40.0,36,586.0,square2,r,0.108,1,S,12.0
S12,14.0,36.0,49.0,32.0,42.0,49,635.0,square2,r,0.1506,1,S,12.0
S12,15.0,35.0,43.0,35.0,46.0,43,678.0,square2,r,0.2008,1,S,12.0
S12,16.0,39.0,48.0,41.0,43.0,48,726.0,square2,r,0.1225,1,S,12.0
S12,17.0,35.0,47.0,27.0,38.0,47,773.0,square2,r,0.204,1,S,12.0
S12,18.0,37.0,51.0,33.0,33.0,51,824.0,square2,r,0.1671,1,S,12.0
S12,19.0,41.0,42.0,33.0,36.0,42,866.0,square2,r,0.2503,1,S,12.0
S12,20.0,34.0,44.0,26.0,41.0,44,910.0,square2,r,0.0005,1,S,12.0
S12,21.0,35.0,37.0,29.0,35.0,37,947.0,square2,r,0.2138,1,S,12.0
S12,22.0,37.0,48.0,31.0,41.0,48,995.0,square2,r,0.2038,1,S,12.0
S12,23.0,36.0,43.0,27.0,45.0,43,1038.0,square2,r,0.068,1,S,12.0
S12,24.0,39.0,48.0,38.0,38.0,48,1086.0,square2,r,0.1838,1,S,12.0
S12,25.0,31.0,43.0,30.0,40.0,43,1129.0,square2,r,0.304,1,S,12.0
S12,26.0,35.0,48.0,34.0,33.0,48,1177.0,square2,r,0.0841,1,S,12.0
S12,27.0,46.0,46.0,28.0,38.0,46,1223.0,square2,r,0.0334,1,S,12.0
S12,28.0,32.0,37.0,32.0,40.0,37,1260.0,square2,r,0.2553,1,S,12.0
S12,29.0,38.0,41.0,32.0,44.0,41,1301.0,square2,r,0.0038,1,S,12.0
S12,30.0,32.0,48.0,29.0,42.0,48,1349.0,square2,r,0.0839,1,S,12.0
S12,31.0,34.0,46.0,30.0,42.0,46,1395.0,square2,r,0.3341,1,S,12.0
S12,32.0,39.0,43.0,41.0,40.0,43,1438.0,square2,r,0.0506,1,S,12.0
S12,33.0,36.0,47.0,33.0,46.0,47,1485.0,square2,r,0.2674,1,S,12.0
S12,34.0,36.0,41.0,34.0,41.0,41,1526.0,square2,r,0.0927,1,S,12.0
S12,35.0,34.0,42.0,31.0,43.0,42,1568.0,square2,r,0.3762,1,S,12.0
S12,36.0,39.0,43.0,26.0,33.0,43,1611.0,square2,r,0.2004,1,S,12.0
S12,37.0,39.0,49.0,30.0,42.0,49,1660.0,square2,r,0.1931,1,S,12.0
S12,38.0,33.0,47.0,36.0,41.0,47,1707.0,square2,r,0.294,1,S,12.0
S12,39.0,29.0,46.0,35.0,36.0,46,1753.0,square2,r,0.1555,1,S,12.0
S12,40.0,39.0,39.0,29.0,36.0,39,1792.0,square2,r,0.1376,1,S,12.0
S12,41.0,33.0,44.0,31.0,40.0,44,1836.0,square2,r,0.3401,1,S,12.0
S12,42.0,34.0,46.0,25.0,37.0,46,1882.0,square2,r,0.1636,1,S,12.0
S12,43.0,37.0,42.0,30.0,42.0,42,1924.0,square2,r,0.1673,1,S,12.0
S12,44.0,33.0,49.0,36.0,39.0,49,1973.0,square2,r,0.1778,1,S,12.0
S12,45.0,35.0,40.0,30.0,47.0,40,2013.0,square2,r,0.1671,1,S,12.0
S12,46.0,40.0,41.0,29.0,35.0,41,2054.0,square2,r,0.1168,1,S,12.0
S12,47.0,32.0,42.0,28.0,43.0,42,2096.0,square2,r,0.3265,1,S,12.0
S12,48.0,43.0,47.0,31.0,38.0,47,2143.0,square2,r,0.1386,1,S,12.0
S12,49.0,37.0,41.0,35.0,40.0,41,2184.0,square2,r,0.284,1,S,12.0
S4,0.0,18.0,16.0,34.0,20.0,18,18.0,square1,f,1.3839,0,S,4.0
S4,1.0,33.0,26.0,26.0,23.0,23,41.0,square4,r,0.0459,3,S,4.0
S4,2.0,35.0,15.0,33.0,22.0,15,56.0,square2,i,0.2541,1,S,4.0
S4,3.0,28.0,19.0,27.0,27.0,27,83.0,square3,j,0.0247,2,S,4.0
S4,4.0,27.0,16.0,25.0,28.0,28,111.0,square4,r,0.8546,3,S,4.0
S4,5.0,23.0,22.0,31.0,24.0,31,142.0,square3,j,0.6004,2,S,4.0
S4,6.0,25.0,20.0,34.0,23.0,99999,142.0,invalid,,,-1,S,4.0
S4,7.0,21.0,22.0,30.0,21.0,21,163.0,square4,r,0.5003,3,S,4.0
S4,8.0,33.0,24.0,33.0,17.0,33,196.0,square3,j,0.9507,2,S,4.0
S4,9.0,24.0,18.0,31.0,28.0,31,227.0,square3,j,0.1846,2,S,4.0
S4,10.0,31.0,26.0,35.0,20.0,35,262.0,square3,j,0.0004,2,S,4.0
S4,11.0,25.0,15.0,31.0,25.0,31,293.0,square3,j,0.0505,2,S,4.0
S4,12.0,24.0,16.0,29.0,22.0,29,322.0,square3,j,0.0172,2,S,4.0
S4,13.0,28.0,23.0,25.0,17.0,25,347.0,square3,j,0.0676,2,S,4.0
S4,14.0,22.0,23.0,21.0,23.0,21,368.0,square3,j,0.0295,2,S,4.0
S4,15.0,25.0,19.0,28.0,25.0,28,396.0,square3,j,0.0881,2,S,4.0
S4,16.0,26.0,17.0,30.0,21.0,30,426.0,square3,j,0.1505,2,S,4.0
S4,17.0,22.0,21.0,29.0,22.0,29,455.0,square3,j,0.034,2,S,4.0
S4,18.0,28.0,22.0,32.0,22.0,32,487.0,square3,j,0.1397,2,S,4.0
S4,19.0,26.0,19.0,31.0,26.0,31,518.0,square3,j,0.0838,2,S,4.0
S4,20.0,28.0,18.0,28.0,25.0,28,546.0,square3,j,0.1059,2,S,4.0
S4,21.0,33.0,26.0,21.0,29.0,21,567.0,square3,j,0.1335,2,S,4.0
S4,22.0,31.0,19.0,29.0,20.0,29,596.0,square3,j,0.1006,2,S,4.0
S4,23.0,27.0,21.0,36.0,26.0,36,632.0,square3,j,0.1006,2,S,4.0
S4,24.0,28.0,15.0,32.0,21.0,32,664.0,square3,j,0.1034,2,S,4.0
S4,25.0,27.0,18.0,28.0,25.0,28,692.0,square3,j,0.067,2,S,4.0
S4,26.0,26.0,20.0,27.0,14.0,27,719.0,square3,j,0.034,2,S,4.0
S4,27.0,28.0,19.0,36.0,18.0,36,755.0,square3,j,0.0428,2,S,4.0
S4,28.0,28.0,19.0,28.0,23.0,28,783.0,square3,j,0.1095,2,S,4.0
S4,29.0,25.0,22.0,29.0,23.0,29,812.0,square3,j,0.1343,2,S,4.0
S4,30.0,26.0,16.0,30.0,20.0,30,842.0,square3,j,0.1278,2,S,4.0
S4,31.0,23.0,25.0,26.0,30.0,26,868.0,square3,j,0.1011,2,S,4.0
S4,32.0,21.0,26.0,22.0,23.0,22,890.0,square3,j,0.11,2,S,4.0
S4,33.0,25.0,22.0,24.0,17.0,24,914.0,square3,j,0.0894,2,S,4.0
S4,34.0,30.0,22.0,33.0,24.0,33,947.0,square3,j,0.0956,2,S,4.0
S4,35.0,23.0,21.0,35.0,26.0,35,982.0,square3,j,0.1693,2,S,4.0
S4,36.0,19.0,21.0,33.0,24.0,33,1015.0,square3,j,0.1461,2,S,4.0
S4,37.0,20.0,17.0,26.0,26.0,26,1041.0,square3,j,0.134,2,S,4.0
S4,38.0,28.0,20.0,28.0,26.0,28,1069.0,square3,j,0.0929,2,S,4.0
S4,39.0,28.0,23.0,40.0,27.0,40,1109.0,square3,j,0.091,2,S,4.0
S4,40.0,25.0,24.0,32.0,22.0,32,1141.0,square3,j,0.0672,2,S,4.0
S4,41.0,23.0,23.0,26.0,17.0,26,1167.0,square3,j,0.119,2,S,4.0
S4,42.0,26.0,18.0,33.0,22.0,33,1200.0,square3,j,0.1002,2,S,4.0
S4,43.0,22.0,21.0,36.0,25.0,36,1236.0,square3,j,0.1335,2,S,4.0
S4,44.0,21.0,18.0,33.0,14.0,33,1269.0,square3,j,0.0005,2,S,4.0
S4,45.0,29.0,19.0,30.0,29.0,30,1299.0,square3,j,0.0893,2,S,4.0
S4,46.0,21.0,16.0,22.0,23.0,22,1321.0,square3,j,0.3999,2,S,4.0
S4,47.0,22.0,18.0,28.0,22.0,28,1349.0,square3,j,0.1508,2,S,4.0
S4,48.0,33.0,21.0,32.0,26.0,32,1381.0,square3,j,0.2114,2,S,4.0
S4,49.0,23.0,17.0,20.0,21.0,20,1401.0,square3,j,0.0685,2,S,4.0
S3,0.0,38.0,48.0,42.0,57.0,38,38.0,square1,j,1.1416,0,S,3.0
S3,1.0,29.0,43.0,51.0,57.0,51,89.0,square3,r,0.6503,2,S,3.0
S3,2.0,41.0,49.0,46.0,49.0,99999,89.0,invalid,,,-1,S,3.0
S3,3.0,44.0,50.0,45.0,52.0,50,139.0,square2,f,1.1527,1,S,3.0
S3,4.0,37.0,51.0,45.0,58.0,58,197.0,square4,i,1.2356,3,S,3.0
S3,5.0,47.0,43.0,42.0,49.0,99999,197.0,invalid,,,-1,S,3.0
S3,6.0,44.0,53.0,51.0,58.0,58,255.0,square4,i,0.5479,3,S,3.0
S3,7.0,39.0,47.0,46.0,54.0,54,309.0,square4,i,0.0247,3,S,3.0
S3,8.0,43.0,53.0,41.0,52.0,52,361.0,square4,i,0.1844,3,S,3.0
S3,9.0,42.0,46.0,41.0,53.0,53,414.0,square4,i,0.0691,3,S,3.0
S3,10.0,37.0,49.0,49.0,55.0,49,463.0,square3,r,0.9539,2,S,3.0
S3,11.0,40.0,47.0,36.0,59.0,59,522.0,square4,i,0.2383,3,S,3.0
S3,12.0,46.0,51.0,39.0,56.0,56,578.0,square4,i,0.1668,3,S,3.0
S3,13.0,39.0,48.0,45.0,57.0,57,635.0,square4,i,0.0066,3,S,3.0
S3,14.0,39.0,55.0,43.0,47.0,47,682.0,square4,i,0.0006,3,S,3.0
S3,15.0,46.0,46.0,47.0,52.0,52,734.0,square4,i,0.0364,3,S,3.0
S3,16.0,42.0,49.0,50.0,55.0,55,789.0,square4,i,0.0516,3,S,3.0
S3,17.0,45.0,45.0,56.0,47.0,47,836.0,square4,i,0.1174,3,S,3.0
S3,18.0,46.0,43.0,45.0,50.0,50,886.0,square4,i,0.0843,3,S,3.0
S3,19.0,41.0,47.0,50.0,55.0,55,941.0,square4,i,0.0394,3,S,3.0
S3,20.0,45.0,52.0,49.0,52.0,52,993.0,square4,i,0.0335,3,S,3.0
S3,21.0,40.0,43.0,47.0,46.0,46,1039.0,square4,i,0.0829,3,S,3.0
S3,22.0,45.0,46.0,44.0,47.0,47,1086.0,square4,i,0.0835,3,S,3.0
S3,23.0,36.0,50.0,42.0,46.0,46,1132.0,square4,i,0.1106,3,S,3.0
S3,24.0,42.0,54.0,49.0,55.0,55,1187.0,square4,i,0.1868,3,S,3.0
S3,25.0,43.0,51.0,44.0,54.0,54,1241.0,square4,i,0.0863,3,S,3.0
S3,26.0,49.0,50.0,52.0,52.0,52,1293.0,square4,i,0.1081,3,S,3.0
S3,27.0,47.0,52.0,44.0,50.0,50,1343.0,square4,i,0.0506,3,S,3.0
S3,28.0,37.0,48.0,40.0,47.0,47,1390.0,square4,i,0.119,3,S,3.0
S3,29.0,50.0,43.0,50.0,57.0,57,1447.0,square4,i,0.1675,3,S,3.0
S3,30.0,50.0,50.0,46.0,47.0,47,1494.0,square4,i,0.0337,3,S,3.0
S3,31.0,37.0,53.0,49.0,56.0,56,1550.0,square4,i,0.2462,3,S,3.0
S3,32.0,42.0,50.0,43.0,58.0,58,1608.0,square4,i,0.0091,3,S,3.0
S3,33.0,44.0,49.0,46.0,59.0,59,1667.0,square4,i,0.1506,3,S,3.0
S3,34.0,42.0,50.0,50.0,58.0,58,1725.0,square4,i,0.2055,3,S,3.0
S3,35.0,43.0,46.0,45.0,50.0,50,1775.0,square4,i,0.0498,3,S,3.0
S3,36.0,46.0,52.0,50.0,48.0,48,1823.0,square4,i,0.0827,3,S,3.0
S3,37.0,48.0,50.0,49.0,52.0,52,1875.0,square4,i,0.1837,3,S,3.0
S3,38.0,39.0,43.0,50.0,55.0,55,1930.0,square4,i,0.0005,3,S,3.0
S3,39.0,50.0,53.0,46.0,57.0,57,1987.0,square4,i,0.0509,3,S,3.0
S3,40.0,41.0,46.0,48.0,55.0,55,2042.0,square4,i,0.1223,3,S,3.0
S3,41.0,49.0,49.0,40.0,56.0,56,2098.0,square4,i,0.0852,3,S,3.0
S3,42.0,47.0,49.0,43.0,48.0,48,2146.0,square4,i,0.1509,3,S,3.0
S3,43.0,46.0,43.0,41.0,58.0,58,2204.0,square4,i,0.1675,3,S,3.0
S3,44.0,46.0,52.0,51.0,55.0,55,2259.0,square4,i,0.2047,3,S,3.0
S3,45.0,46.0,41.0,46.0,49.0,49,2308.0,square4,i,0.2007,3,S,3.0
S3,46.0,32.0,56.0,40.0,50.0,50,2358.0,square4,i,0.1639,3,S,3.0
S3,47.0,42.0,49.0,44.0,51.0,51,2409.0,square4,i,0.458,3,S,3.0
S3,48.0,36.0,45.0,38.0,50.0,50,2459.0,square4,i,0.1945,3,S,3.0
S3,49.0,45.0,48.0,47.0,52.0,52,2511.0,square4,i,0.3245,3,S,3.0
S6,0.0,40.0,29.0,39.0,26.0,99999,0.0,invalid,,,-1,S,6.0
S6,1.0,34.0,40.0,31.0,25.0,31,31.0,square3,j,0.8237,2,S,6.0
S6,2.0,37.0,31.0,25.0,30.0,31,62.0,square2,i,0.5164,1,S,6.0
S6,3.0,39.0,37.0,30.0,27.0,27,89.0,square4,r,0.988,3,S,6.0
S6,4.0,42.0,40.0,28.0,32.0,42,131.0,square1,f,0.6568,0,S,6.0
S6,5.0,35.0,35.0,39.0,29.0,35,166.0,square1,f,0.0944,0,S,6.0
S6,6.0,48.0,30.0,37.0,33.0,48,214.0,square1,f,0.0004,0,S,6.0
S6,7.0,47.0,34.0,31.0,29.0,47,261.0,square1,f,0.1335,0,S,6.0
S6,8.0,43.0,35.0,30.0,25.0,43,304.0,square1,f,0.0896,0,S,6.0
S6,9.0,36.0,38.0,35.0,35.0,36,340.0,square1,f,0.008,0,S,6.0
S6,10.0,38.0,35.0,31.0,21.0,38,378.0,square1,f,0.1504,0,S,6.0
S6,11.0,30.0,36.0,31.0,20.0,30,408.0,square1,f,0.1804,0,S,6.0
S6,12.0,37.0,40.0,33.0,22.0,37,445.0,square1,f,0.1796,0,S,6.0
S6,13.0,32.0,41.0,35.0,29.0,32,477.0,square1,f,0.0494,0,S,6.0
S6,14.0,41.0,29.0,30.0,32.0,41,518.0,square1,f,0.0339,0,S,6.0
S6,15.0,43.0,37.0,31.0,27.0,43,561.0,square1,f,0.0048,0,S,6.0
S6,16.0,34.0,34.0,35.0,31.0,34,595.0,square1,f,0.0339,0,S,6.0
S6,17.0,47.0,40.0,29.0,28.0,47,642.0,square1,f,0.1905,0,S,6.0
S6,18.0,37.0,38.0,34.0,35.0,37,679.0,square1,f,0.1019,0,S,6.0
S6,19.0,36.0,39.0,31.0,26.0,36,715.0,square1,f,0.1801,0,S,6.0
S6,20.0,44.0,40.0,31.0,25.0,44,759.0,square1,f,0.0073,0,S,6.0
S6,21.0,39.0,41.0,35.0,24.0,39,798.0,square1,f,0.0808,0,S,6.0
S6,22.0,41.0,38.0,41.0,31.0,41,839.0,square1,f,0.1304,0,S,6.0
S6,23.0,37.0,31.0,30.0,32.0,37,876.0,square1,f,0.1283,0,S,6.0
S6,24.0,48.0,34.0,34.0,21.0,48,924.0,square1,f,0.1177,0,S,6.0
S6,25.0,42.0,45.0,26.0,29.0,42,966.0,square1,f,0.1839,0,S,6.0
S6,26.0,40.0,39.0,36.0,28.0,40,1006.0,square1,f,0.1166,0,S,6.0
S6,27.0,42.0,33.0,29.0,29.0,42,1048.0,square1,f,0.1129,0,S,6.0
S6,28.0,41.0,30.0,29.0,29.0,41,1089.0,square1,f,0.0795,0,S,6.0
S6,29.0,42.0,40.0,32.0,27.0,42,1131.0,square1,f,0.0834,0,S,6.0
S6,30.0,42.0,36.0,30.0,26.0,42,1173.0,square1,f,0.0859,0,S,6.0
S6,31.0,42.0,34.0,35.0,29.0,42,1215.0,square1,f,0.1225,0,S,6.0
S6,32.0,35.0,36.0,31.0,23.0,35,1250.0,square1,f,0.0838,0,S,6.0
S6,33.0,35.0,31.0,35.0,30.0,35,1285.0,square1,f,0.0834,0,S,6.0
S6,34.0,40.0,38.0,31.0,27.0,40,1325.0,square1,f,0.0693,0,S,6.0
S6,35.0,42.0,37.0,34.0,34.0,42,1367.0,square1,f,0.0428,0,S,6.0
S6,36.0,37.0,46.0,31.0,34.0,37,1404.0,square1,f,0.0673,0,S,6.0
S6,37.0,38.0,40.0,30.0,26.0,38,1442.0,square1,f,0.0841,0,S,6.0
S6,38.0,36.0,34.0,31.0,33.0,36,1478.0,square1,f,0.0707,0,S,6.0
S6,39.0,44.0,37.0,33.0,31.0,44,1522.0,square1,f,0.0903,0,S,6.0
S6,40.0,40.0,38.0,31.0,25.0,40,1562.0,square1,f,0.0445,0,S,6.0
S6,41.0,49.0,35.0,35.0,28.0,49,1611.0,square1,f,0.1579,0,S,6.0
S6,42.0,44.0,40.0,32.0,28.0,44,1655.0,square1,f,0.1697,0,S,6.0
S6,43.0,43.0,36.0,33.0,26.0,43,1698.0,square1,f,0.1003,0,S,6.0
S6,44.0,38.0,33.0,34.0,26.0,38,1736.0,square1,f,0.067,0,S,6.0
S6,45.0,32.0,35.0,30.0,28.0,32,1768.0,square1,f,0.073,0,S,6.0
S6,46.0,38.0,36.0,34.0,30.0,38,1806.0,square1,f,0.1208,0,S,6.0
S6,47.0,44.0,35.0,32.0,31.0,44,1850.0,square1,f,0.0872,0,S,6.0
S6,48.0,40.0,40.0,31.0,33.0,40,1890.0,square1,f,0.0876,0,S,6.0
S6,49.0,41.0,29.0,29.0,29.0,41,1931.0,square1,f,0.0966,0,S,6.0
V10,0.0,28.0,21.0,37.0,46.0,99999,0.0,invalid,,,-1,V,10.0
V10,1.0,26.0,19.0,41.0,49.0,41,41.0,square3,f,0.7005,2,V,10.0
V10,2.0,29.0,20.0,43.0,48.0,29,70.0,square1,r,0.1,0,V,10.0
V10,3.0,27.0,27.0,37.0,44.0,27,97.0,square2,j,0.2395,1,V,10.0
V10,4.0,28.0,16.0,36.0,47.0,36,133.0,square3,f,0.0974,2,V,10.0
V10,5.0,33.0,25.0,42.0,54.0,25,158.0,square2,j,0.6674,1,V,10.0
V10,6.0,28.0,19.0,35.0,45.0,28,186.0,square1,r,0.4503,0,V,10.0
V10,7.0,30.0,24.0,35.0,49.0,49,235.0,square4,i,0.0897,3,V,10.0
V10,8.0,37.0,29.0,41.0,47.0,41,276.0,square3,f,0.2431,2,V,10.0
V10,9.0,28.0,21.0,41.0,48.0,21,297.0,square2,j,0.4373,1,V,10.0
V10,10.0,27.0,22.0,39.0,42.0,27,324.0,square1,r,0.0541,0,V,10.0
V10,11.0,32.0,16.0,41.0,48.0,48,372.0,square4,i,0.0006,3,V,10.0
V10,12.0,34.0,15.0,33.0,49.0,33,405.0,square3,f,0.593,2,V,10.0
V10,13.0,36.0,19.0,41.0,45.0,19,424.0,square2,j,0.2868,1,V,10.0
V10,14.0,28.0,23.0,35.0,53.0,28,452.0,square1,r,0.3008,0,V,10.0
V10,15.0,26.0,28.0,40.0,50.0,50,502.0,square4,i,0.3708,3,V,10.0
V10,16.0,30.0,25.0,42.0,47.0,42,544.0,square3,f,0.3452,2,V,10.0
V10,17.0,31.0,19.0,38.0,50.0,19,563.0,square2,j,0.3453,1,V,10.0
V10,18.0,34.0,21.0,35.0,48.0,35,598.0,square3,f,0.1003,2,V,10.0
V10,19.0,31.0,24.0,39.0,46.0,46,644.0,square4,i,0.8201,3,V,10.0
V10,20.0,28.0,22.0,42.0,47.0,42,686.0,square3,f,0.0435,2,V,10.0
V10,21.0,24.0,20.0,41.0,47.0,47,733.0,square4,i,0.9006,3,V,10.0
V10,22.0,32.0,22.0,34.0,44.0,34,767.0,square3,f,0.5343,2,V,10.0
V10,23.0,29.0,23.0,37.0,47.0,47,814.0,square4,i,0.2004,3,V,10.0
V10,24.0,25.0,25.0,38.0,46.0,38,852.0,square3,f,0.1505,2,V,10.0
V10,25.0,30.0,24.0,41.0,45.0,45,897.0,square4,i,0.0037,3,V,10.0
V10,26.0,32.0,17.0,38.0,49.0,49,946.0,square4,i,0.37,3,V,10.0
V10,27.0,34.0,21.0,38.0,47.0,38,984.0,square3,f,0.3205,2,V,10.0
V10,28.0,29.0,21.0,37.0,45.0,45,1029.0,square4,i,0.0873,3,V,10.0
V10,29.0,30.0,20.0,31.0,47.0,31,1060.0,square3,f,0.7874,2,V,10.0
V10,30.0,28.0,21.0,35.0,44.0,44,1104.0,square4,i,0.0858,3,V,10.0
V10,31.0,36.0,25.0,14.0,8.0,14,1118.0,square3,f,0.0839,2,V,10.0
V10,32.0,38.0,27.0,19.0,11.0,11,1129.0,square4,i,0.0006,3,V,10.0
V10,33.0,39.0,21.0,20.0,13.0,20,1149.0,square3,f,0.307,2,V,10.0
V10,34.0,34.0,24.0,20.0,10.0,10,1159.0,square4,i,0.1173,3,V,10.0
V10,35.0,44.0,29.0,17.0,11.0,17,1176.0,square3,f,0.0178,2,V,10.0
V10,36.0,33.0,30.0,17.0,9.0,9,1185.0,square4,i,0.0565,3,V,10.0
V10,37.0,31.0,27.0,12.0,6.0,12,1197.0,square3,f,0.0836,2,V,10.0
V10,38.0,34.0,29.0,15.0,10.0,10,1207.0,square4,i,0.062,3,V,10.0
V10,39.0,35.0,21.0,19.0,5.0,21,1228.0,square2,j,1.7674,1,V,10.0
V10,40.0,32.0,26.0,18.0,6.0,32,1260.0,square1,r,0.2001,0,V,10.0
V10,41.0,34.0,32.0,13.0,9.0,32,1292.0,square2,j,0.0223,1,V,10.0
V10,42.0,35.0,30.0,16.0,8.0,35,1327.0,square1,r,0.0032,0,V,10.0
V10,43.0,38.0,32.0,16.0,8.0,32,1359.0,square2,j,0.0837,1,V,10.0
V10,44.0,34.0,20.0,18.0,3.0,34,1393.0,square1,r,0.075,0,V,10.0
V10,45.0,38.0,22.0,23.0,9.0,22,1415.0,square2,j,0.2107,1,V,10.0
V10,46.0,36.0,28.0,16.0,10.0,36,1451.0,square1,r,0.1772,0,V,10.0
V10,47.0,36.0,27.0,13.0,8.0,27,1478.0,square2,j,0.1173,1,V,10.0
V10,48.0,35.0,27.0,14.0,12.0,35,1513.0,square1,r,0.0705,0,V,10.0
V10,49.0,33.0,28.0,16.0,10.0,28,1541.0,square2,j,0.2138,1,V,10.0
V10,50.0,31.0,29.0,19.0,8.0,31,1572.0,square1,r,0.0737,0,V,10.0
V10,51.0,32.0,21.0,20.0,12.0,21,1593.0,square2,j,0.096,1,V,10.0
V10,52.0,29.0,25.0,21.0,10.0,29,1622.0,square1,r,0.1378,0,V,10.0
V10,53.0,39.0,29.0,23.0,2.0,29,1651.0,square2,j,0.1509,1,V,10.0
V10,54.0,33.0,28.0,19.0,7.0,33,1684.0,square1,r,0.1509,0,V,10.0
V10,55.0,34.0,24.0,15.0,8.0,24,1708.0,square2,j,0.127,1,V,10.0
V10,56.0,35.0,20.0,21.0,9.0,35,1743.0,square1,r,0.2502,0,V,10.0
V10,57.0,33.0,27.0,19.0,7.0,27,1770.0,square2,j,0.1341,1,V,10.0
V10,58.0,38.0,24.0,16.0,7.0,38,1808.0,square1,r,0.1343,0,V,10.0
V10,59.0,34.0,29.0,15.0,5.0,29,1837.0,square2,j,0.034,1,V,10.0
V10,60.0,34.0,22.0,19.0,9.0,34,1871.0,square1,r,0.1623,0,V,10.0
V10,61.0,39.0,31.0,20.0,10.0,31,1902.0,square2,j,0.1339,1,V,10.0
V10,62.0,35.0,24.0,18.0,6.0,35,1937.0,square1,r,0.1228,0,V,10.0
V10,63.0,35.0,26.0,18.0,9.0,26,1963.0,square2,j,0.1113,1,V,10.0
V10,64.0,31.0,55.0,23.0,23.0,31,1994.0,square1,r,0.251,0,V,10.0
V10,65.0,35.0,50.0,22.0,27.0,50,2044.0,square2,j,0.2339,1,V,10.0
V10,66.0,35.0,53.0,25.0,29.0,35,2079.0,square1,r,0.1507,0,V,10.0
V10,67.0,38.0,44.0,17.0,29.0,44,2123.0,square2,j,0.1773,1,V,10.0
V10,68.0,36.0,48.0,22.0,27.0,36,2159.0,square1,r,0.2054,0,V,10.0
V10,69.0,41.0,53.0,17.0,28.0,53,2212.0,square2,j,0.184,1,V,10.0
V10,70.0,40.0,48.0,23.0,28.0,40,2252.0,square1,r,0.1626,0,V,10.0
V10,71.0,39.0,43.0,24.0,20.0,43,2295.0,square2,j,0.3572,1,V,10.0
V10,72.0,36.0,49.0,19.0,25.0,36,2331.0,square1,r,0.1922,0,V,10.0
V10,73.0,39.0,49.0,23.0,32.0,49,2380.0,square2,j,0.1562,1,V,10.0
V10,74.0,36.0,44.0,17.0,29.0,36,2416.0,square1,r,0.1832,0,V,10.0
V10,75.0,37.0,46.0,20.0,30.0,46,2462.0,square2,j,0.1332,1,V,10.0
V10,76.0,38.0,47.0,23.0,30.0,38,2500.0,square1,r,0.1901,0,V,10.0
V10,77.0,36.0,49.0,22.0,32.0,49,2549.0,square2,j,0.2006,1,V,10.0
V10,78.0,41.0,44.0,19.0,27.0,41,2590.0,square1,r,0.0337,0,V,10.0
V10,79.0,41.0,48.0,22.0,27.0,48,2638.0,square2,j,0.1335,1,V,10.0
V10,80.0,34.0,44.0,26.0,29.0,34,2672.0,square1,r,0.0847,0,V,10.0
V10,81.0,38.0,47.0,18.0,29.0,47,2719.0,square2,j,0.1,1,V,10.0
V10,82.0,43.0,43.0,23.0,28.0,43,2762.0,square1,r,0.4309,0,V,10.0
V10,83.0,34.0,51.0,23.0,26.0,51,2813.0,square2,j,0.2064,1,V,10.0
V10,84.0,36.0,46.0,18.0,25.0,36,2849.0,square1,r,0.2336,0,V,10.0
V10,85.0,39.0,46.0,25.0,26.0,46,2895.0,square2,j,0.0406,1,V,10.0
V10,86.0,39.0,50.0,27.0,27.0,39,2934.0,square1,r,0.2895,0,V,10.0
V10,87.0,38.0,46.0,20.0,30.0,46,2980.0,square2,j,0.0403,1,V,10.0
V10,88.0,37.0,49.0,22.0,28.0,37,3017.0,square1,r,0.0837,0,V,10.0
V10,89.0,34.0,51.0,25.0,26.0,51,3068.0,square2,j,0.0507,1,V,10.0
V10,90.0,41.0,49.0,22.0,29.0,41,3109.0,square1,r,0.0584,0,V,10.0
V10,91.0,37.0,45.0,26.0,32.0,45,3154.0,square2,j,0.0902,1,V,10.0
V10,92.0,42.0,42.0,27.0,28.0,42,3196.0,square1,r,0.0752,0,V,10.0
V10,93.0,41.0,48.0,19.0,36.0,48,3244.0,square2,j,0.1512,1,V,10.0
V10,94.0,43.0,49.0,23.0,31.0,43,3287.0,square1,r,0.1339,0,V,10.0
V10,95.0,39.0,46.0,18.0,27.0,46,3333.0,square2,j,0.0674,1,V,10.0
V10,96.0,37.0,48.0,24.0,27.0,37,3370.0,square1,r,0.0495,0,V,10.0
V10,97.0,42.0,50.0,23.0,31.0,50,3420.0,square2,j,0.0697,1,V,10.0
V10,98.0,33.0,47.0,25.0,32.0,33,3453.0,square1,r,0.0005,0,V,10.0
V10,99.0,39.0,48.0,23.0,32.0,48,3501.0,square2,j,0.07,1,V,10.0
V12,0.0,47.0,30.0,38.0,55.0,30,30.0,square2,r,0.4333,1,V,12.0
V12,1.0,46.0,33.0,39.0,57.0,39,69.0,square3,j,0.1338,2,V,12.0
V12,2.0,51.0,29.0,42.0,52.0,29,98.0,square2,r,0.0862,1,V,12.0
V12,3.0,52.0,30.0,38.0,62.0,38,136.0,square3,j,0.1955,2,V,12.0
V12,4.0,48.0,30.0,39.0,62.0,30,166.0,square2,r,0.233,1,V,12.0
V12,5.0,55.0,34.0,43.0,61.0,43,209.0,square3,j,0.0991,2,V,12.0
V12,6.0,45.0,35.0,42.0,56.0,56,265.0,square4,f,0.6343,3,V,12.0
V12,7.0,48.0,29.0,35.0,57.0,48,313.0,square1,i,0.9122,0,V,12.0
V12,8.0,46.0,33.0,38.0,59.0,59,372.0,square4,f,0.1242,3,V,12.0
V12,9.0,44.0,31.0,42.0,56.0,44,416.0,square1,i,0.2407,0,V,12.0
V12,10.0,48.0,34.0,45.0,55.0,55,471.0,square4,f,0.15,3,V,12.0
V12,11.0,45.0,32.0,41.0,55.0,55,526.0,square4,f,0.0333,3,V,12.0
V12,12.0,52.0,26.0,42.0,57.0,57,583.0,square4,f,0.1837,3,V,12.0
V12,13.0,56.0,31.0,41.0,54.0,54,637.0,square4,f,0.2301,3,V,12.0
V12,14.0,44.0,34.0,40.0,64.0,64,701.0,square4,f,0.2502,3,V,12.0
V12,15.0,48.0,32.0,39.0,61.0,61,762.0,square4,f,0.0004,3,V,12.0
V12,16.0,49.0,33.0,37.0,58.0,58,820.0,square4,f,0.1679,3,V,12.0
V12,17.0,45.0,33.0,43.0,57.0,57,877.0,square4,f,0.056,3,V,12.0
V12,18.0,45.0,28.0,40.0,58.0,58,935.0,square4,f,0.0733,3,V,12.0
V12,19.0,42.0,33.0,43.0,59.0,59,994.0,square4,f,0.0295,3,V,12.0
V12,20.0,46.0,30.0,38.0,62.0,62,1056.0,square4,f,0.0005,3,V,12.0
V12,21.0,46.0,35.0,40.0,55.0,55,1111.0,square4,f,0.1415,3,V,12.0
V12,22.0,46.0,34.0,36.0,63.0,63,1174.0,square4,f,0.2339,3,V,12.0
V12,23.0,54.0,34.0,42.0,56.0,56,1230.0,square4,f,0.1682,3,V,12.0
V12,24.0,44.0,30.0,41.0,59.0,59,1289.0,square4,f,0.1502,3,V,12.0
V12,25.0,49.0,33.0,37.0,64.0,64,1353.0,square4,f,0.1003,3,V,12.0
V12,26.0,52.0,34.0,39.0,57.0,57,1410.0,square4,f,0.1333,3,V,12.0
V12,27.0,50.0,26.0,37.0,55.0,55,1465.0,square4,f,0.1396,3,V,12.0
V12,28.0,41.0,29.0,46.0,21.0,21,1486.0,square4,f,0.0176,3,V,12.0
V12,29.0,41.0,28.0,51.0,20.0,20,1506.0,square4,f,0.1006,3,V,12.0
V12,30.0,32.0,31.0,46.0,22.0,22,1528.0,square4,f,0.0332,3,V,12.0
V12,31.0,38.0,28.0,45.0,22.0,22,1550.0,square4,f,0.0003,3,V,12.0
V12,32.0,35.0,27.0,44.0,16.0,16,1566.0,square4,f,0.1668,3,V,12.0
V12,33.0,39.0,29.0,49.0,21.0,21,1587.0,square4,f,0.0941,3,V,12.0
V12,34.0,39.0,28.0,49.0,15.0,15,1602.0,square4,f,0.0664,3,V,12.0
V12,35.0,36.0,29.0,50.0,17.0,17,1619.0,square4,f,0.1801,3,V,12.0
V12,36.0,41.0,28.0,48.0,12.0,12,1631.0,square4,f,0.0175,3,V,12.0
V12,37.0,34.0,29.0,46.0,25.0,25,1656.0,square4,f,0.1163,3,V,12.0
V12,38.0,38.0,28.0,51.0,19.0,19,1675.0,square4,f,0.0054,3,V,12.0
V12,39.0,39.0,31.0,45.0,13.0,13,1688.0,square4,f,0.2196,3,V,12.0
V12,40.0,35.0,28.0,46.0,26.0,26,1714.0,square4,f,0.1785,3,V,12.0
V12,41.0,38.0,27.0,46.0,20.0,20,1734.0,square4,f,0.0501,3,V,12.0
V12,42.0,40.0,26.0,50.0,23.0,23,1757.0,square4,f,0.2335,3,V,12.0
V12,43.0,33.0,30.0,45.0,18.0,18,1775.0,square4,f,0.0331,3,V,12.0
V12,44.0,39.0,31.0,46.0,22.0,22,1797.0,square4,f,0.1337,3,V,12.0
V12,45.0,32.0,26.0,42.0,20.0,20,1817.0,square4,f,0.0005,3,V,12.0
V12,46.0,36.0,29.0,43.0,24.0,24,1841.0,square4,f,0.0663,3,V,12.0
V12,47.0,37.0,30.0,46.0,21.0,21,1862.0,square4,f,0.0468,3,V,12.0
V12,48.0,37.0,27.0,44.0,19.0,19,1881.0,square4,f,0.1225,3,V,12.0
V12,49.0,36.0,33.0,55.0,16.0,16,1897.0,square4,f,0.0835,3,V,12.0
V12,50.0,45.0,28.0,44.0,18.0,18,1915.0,square4,f,0.19,3,V,12.0
V12,51.0,35.0,32.0,49.0,19.0,19,1934.0,square4,f,0.0667,3,V,12.0
V12,52.0,36.0,56.0,31.0,52.0,31,1965.0,square3,j,0.0497,2,V,12.0
V12,53.0,36.0,57.0,29.0,45.0,45,2010.0,square4,f,0.0331,3,V,12.0
V12,54.0,38.0,61.0,28.0,51.0,28,2038.0,square3,j,0.1161,2,V,12.0
V12,55.0,35.0,60.0,29.0,47.0,29,2067.0,square3,j,0.074,2,V,12.0
V12,56.0,34.0,62.0,29.0,46.0,46,2113.0,square4,f,0.0063,3,V,12.0
V12,57.0,43.0,57.0,32.0,46.0,46,2159.0,square4,f,0.0335,3,V,12.0
V12,58.0,40.0,59.0,32.0,50.0,50,2209.0,square4,f,0.0832,3,V,12.0
V12,59.0,41.0,62.0,33.0,48.0,33,2242.0,square3,j,0.0342,2,V,12.0
V12,60.0,36.0,61.0,32.0,49.0,49,2291.0,square4,f,0.0057,3,V,12.0
V12,61.0,39.0,56.0,32.0,44.0,32,2323.0,square3,j,0.0005,2,V,12.0
V12,62.0,39.0,57.0,30.0,46.0,46,2369.0,square4,f,0.101,3,V,12.0
V12,63.0,42.0,53.0,29.0,46.0,46,2415.0,square4,f,0.0669,3,V,12.0
V12,64.0,35.0,57.0,32.0,50.0,32,2447.0,square3,j,0.0839,2,V,12.0
V12,65.0,44.0,58.0,32.0,49.0,32,2479.0,square3,j,0.1514,2,V,12.0
V12,66.0,44.0,56.0,29.0,52.0,52,2531.0,square4,f,0.1406,3,V,12.0
V12,67.0,41.0,60.0,30.0,49.0,30,2561.0,square3,j,0.0423,2,V,12.0
V12,68.0,42.0,58.0,32.0,45.0,32,2593.0,square3,j,0.1036,2,V,12.0
V12,69.0,36.0,60.0,33.0,50.0,50,2643.0,square4,f,0.1493,3,V,12.0
V12,70.0,36.0,57.0,27.0,46.0,27,2670.0,square3,j,0.0765,2,V,12.0
V12,71.0,41.0,59.0,32.0,48.0,48,2718.0,square4,f,0.0675,3,V,12.0
V12,72.0,34.0,59.0,31.0,49.0,49,2767.0,square4,f,0.1504,3,V,12.0
V12,73.0,71.0,53.0,65.0,49.0,49,2816.0,square4,f,0.0003,3,V,12.0
V12,74.0,69.0,49.0,63.0,45.0,63,2879.0,square3,j,0.0068,2,V,12.0
V12,75.0,72.0,51.0,56.0,46.0,56,2935.0,square3,j,0.1168,2,V,12.0
V12,76.0,72.0,48.0,58.0,43.0,58,2993.0,square3,j,0.0663,2,V,12.0
V12,77.0,74.0,57.0,59.0,44.0,59,3052.0,square3,j,0.1521,2,V,12.0
V12,78.0,69.0,55.0,63.0,50.0,50,3102.0,square4,f,0.0664,3,V,12.0
V12,79.0,73.0,53.0,58.0,43.0,58,3160.0,square3,j,0.0135,2,V,12.0
V12,80.0,71.0,47.0,65.0,40.0,65,3225.0,square3,j,0.0005,2,V,12.0
V12,81.0,66.0,49.0,57.0,40.0,57,3282.0,square3,j,0.1355,2,V,12.0
V12,82.0,71.0,53.0,57.0,48.0,57,3339.0,square3,j,0.0334,2,V,12.0
V12,83.0,70.0,50.0,56.0,49.0,49,3388.0,square4,f,0.0339,3,V,12.0
V12,84.0,69.0,45.0,64.0,43.0,43,3431.0,square4,f,0.1496,3,V,12.0
V12,85.0,64.0,48.0,54.0,42.0,42,3473.0,square4,f,0.1177,3,V,12.0
V12,86.0,71.0,49.0,63.0,44.0,44,3517.0,square4,f,0.0836,3,V,12.0
V12,87.0,72.0,52.0,55.0,42.0,42,3559.0,square4,f,0.1163,3,V,12.0
V12,88.0,64.0,48.0,59.0,44.0,44,3603.0,square4,f,0.0337,3,V,12.0
V12,89.0,69.0,48.0,62.0,45.0,45,3648.0,square4,f,0.017,3,V,12.0
V12,90.0,68.0,56.0,60.0,42.0,60,3708.0,square3,j,0.0627,2,V,12.0
V12,91.0,69.0,52.0,62.0,45.0,45,3753.0,square4,f,0.055,3,V,12.0
V12,92.0,65.0,50.0,64.0,47.0,64,3817.0,square3,j,0.0666,2,V,12.0
V12,93.0,68.0,51.0,62.0,43.0,62,3879.0,square3,j,0.0004,2,V,12.0
V12,94.0,68.0,52.0,60.0,38.0,60,3939.0,square3,j,0.0337,2,V,12.0
V12,95.0,71.0,52.0,58.0,47.0,58,3997.0,square3,j,0.0747,2,V,12.0
V12,96.0,66.0,49.0,59.0,44.0,59,4056.0,square3,j,0.1335,2,V,12.0
V12,97.0,74.0,47.0,54.0,47.0,47,4103.0,square4,f,0.1392,3,V,12.0
V12,98.0,68.0,43.0,64.0,41.0,41,4144.0,square4,f,0.0008,3,V,12.0
V12,99.0,71.0,53.0,62.0,44.0,62,4206.0,square3,j,0.0004,2,V,12.0
V1,0.0,46.0,61.0,52.0,71.0,46,46.0,square1,j,1.7003,0,V,1.0
V1,1.0,45.0,63.0,54.0,78.0,45,91.0,square1,j,0.1051,0,V,1.0
V1,2.0,51.0,58.0,59.0,77.0,51,142.0,square1,j,0.1502,0,V,1.0
V1,3.0,53.0,65.0,56.0,75.0,56,198.0,square3,r,0.0507,2,V,1.0
V1,4.0,49.0,68.0,53.0,72.0,53,251.0,square3,r,0.1335,2,V,1.0
V1,5.0,47.0,70.0,59.0,76.0,76,327.0,square4,i,0.1241,3,V,1.0
V1,6.0,55.0,63.0,54.0,76.0,76,403.0,square4,i,0.0835,3,V,1.0
V1,7.0,47.0,67.0,55.0,74.0,67,470.0,square2,f,0.0673,1,V,1.0
V1,8.0,47.0,65.0,46.0,76.0,76,546.0,square4,i,0.1162,3,V,1.0
V1,9.0,46.0,68.0,59.0,78.0,78,624.0,square4,i,0.1144,3,V,1.0
V1,10.0,58.0,67.0,58.0,79.0,79,703.0,square4,i,0.0499,3,V,1.0
V1,11.0,44.0,61.0,54.0,72.0,72,775.0,square4,i,0.0502,3,V,1.0
V1,12.0,44.0,65.0,56.0,75.0,75,850.0,square4,i,0.0671,3,V,1.0
V1,13.0,47.0,63.0,53.0,73.0,73,923.0,square4,i,0.0541,3,V,1.0
V1,14.0,49.0,66.0,56.0,75.0,75,998.0,square4,i,0.0653,3,V,1.0
V1,15.0,49.0,66.0,52.0,79.0,79,1077.0,square4,i,0.0367,3,V,1.0
V1,16.0,51.0,61.0,48.0,72.0,72,1149.0,square4,i,0.2446,3,V,1.0
V1,17.0,46.0,61.0,59.0,71.0,71,1220.0,square4,i,0.0503,3,V,1.0
V1,18.0,45.0,61.0,53.0,72.0,72,1292.0,square4,i,0.0004,3,V,1.0
V1,19.0,49.0,63.0,54.0,76.0,76,1368.0,square4,i,0.0712,3,V,1.0
V1,20.0,46.0,66.0,52.0,72.0,72,1440.0,square4,i,0.0891,3,V,1.0
V1,21.0,50.0,65.0,51.0,73.0,73,1513.0,square4,i,0.1668,3,V,1.0
V1,22.0,56.0,62.0,56.0,77.0,77,1590.0,square4,i,0.0975,3,V,1.0
V1,23.0,45.0,67.0,54.0,83.0,83,1673.0,square4,i,0.134,3,V,1.0
V1,24.0,46.0,69.0,57.0,71.0,71,1744.0,square4,i,0.1167,3,V,1.0
V1,25.0,41.0,65.0,55.0,76.0,76,1820.0,square4,i,0.1174,3,V,1.0
V1,26.0,51.0,60.0,55.0,74.0,74,1894.0,square4,i,0.1038,3,V,1.0
V1,27.0,52.0,63.0,56.0,73.0,73,1967.0,square4,i,0.0668,3,V,1.0
V1,28.0,50.0,68.0,50.0,76.0,76,2043.0,square4,i,0.0891,3,V,1.0
V1,29.0,51.0,60.0,54.0,74.0,74,2117.0,square4,i,0.1226,3,V,1.0
V1,30.0,35.0,67.0,57.0,40.0,40,2157.0,square4,i,0.0665,3,V,1.0
V1,31.0,38.0,60.0,52.0,35.0,35,2192.0,square4,i,0.0717,3,V,1.0
V1,32.0,37.0,67.0,52.0,41.0,41,2233.0,square4,i,0.0206,3,V,1.0
V1,33.0,37.0,62.0,53.0,42.0,42,2275.0,square4,i,0.0428,3,V,1.0
V1,34.0,35.0,58.0,54.0,43.0,43,2318.0,square4,i,0.071,3,V,1.0
V1,35.0,40.0,60.0,50.0,44.0,44,2362.0,square4,i,0.093,3,V,1.0
V1,36.0,39.0,66.0,50.0,39.0,39,2401.0,square4,i,0.1341,3,V,1.0
V1,37.0,32.0,59.0,54.0,38.0,38,2439.0,square4,i,0.1159,3,V,1.0
V1,38.0,32.0,64.0,50.0,39.0,39,2478.0,square4,i,0.0785,3,V,1.0
V1,39.0,37.0,60.0,45.0,40.0,40,2518.0,square4,i,0.0843,3,V,1.0
V1,40.0,35.0,61.0,54.0,43.0,43,2561.0,square4,i,0.0795,3,V,1.0
V1,41.0,33.0,62.0,49.0,42.0,42,2603.0,square4,i,0.1002,3,V,1.0
V1,42.0,31.0,70.0,52.0,42.0,42,2645.0,square4,i,0.1339,3,V,1.0
V1,43.0,37.0,59.0,48.0,41.0,41,2686.0,square4,i,0.0004,3,V,1.0
V1,44.0,39.0,63.0,53.0,44.0,44,2730.0,square4,i,0.134,3,V,1.0
V1,45.0,37.0,62.0,48.0,41.0,41,2771.0,square4,i,0.284,3,V,1.0
V1,46.0,34.0,65.0,52.0,39.0,39,2810.0,square4,i,0.0354,3,V,1.0
V1,47.0,42.0,59.0,52.0,43.0,43,2853.0,square4,i,0.0504,3,V,1.0
V1,48.0,39.0,62.0,50.0,38.0,38,2891.0,square4,i,0.0715,3,V,1.0
V1,49.0,33.0,63.0,49.0,40.0,40,2931.0,square4,i,0.0666,3,V,1.0
V1,50.0,38.0,66.0,54.0,37.0,37,2968.0,square4,i,0.0507,3,V,1.0
V1,51.0,33.0,66.0,50.0,37.0,37,3005.0,square4,i,0.0334,3,V,1.0
V1,52.0,41.0,65.0,55.0,44.0,44,3049.0,square4,i,0.003,3,V,1.0
V1,53.0,75.0,50.0,46.0,60.0,60,3109.0,square4,i,0.0191,3,V,1.0
V1,54.0,74.0,53.0,45.0,61.0,61,3170.0,square4,i,0.0005,3,V,1.0
V1,55.0,74.0,54.0,43.0,65.0,65,3235.0,square4,i,0.052,3,V,1.0
V1,56.0,73.0,54.0,44.0,56.0,56,3291.0,square4,i,0.1832,3,V,1.0
V1,57.0,67.0,58.0,52.0,63.0,52,3343.0,square3,r,0.4498,2,V,1.0
V1,58.0,72.0,51.0,43.0,62.0,43,3386.0,square3,r,0.0476,2,V,1.0
V1,59.0,68.0,47.0,49.0,56.0,49,3435.0,square3,r,0.047,2,V,1.0
V1,60.0,72.0,55.0,46.0,65.0,46,3481.0,square3,r,0.0201,2,V,1.0
V1,61.0,76.0,50.0,46.0,62.0,46,3527.0,square3,r,0.0503,2,V,1.0
V1,62.0,77.0,58.0,46.0,66.0,46,3573.0,square3,r,0.0124,2,V,1.0
V1,63.0,72.0,53.0,48.0,66.0,48,3621.0,square3,r,0.0338,2,V,1.0
V1,64.0,70.0,49.0,49.0,60.0,49,3670.0,square3,r,0.0975,2,V,1.0
V1,65.0,68.0,49.0,46.0,66.0,46,3716.0,square3,r,0.0005,2,V,1.0
V1,66.0,77.0,52.0,41.0,64.0,41,3757.0,square3,r,0.0335,2,V,1.0
V1,67.0,74.0,56.0,42.0,69.0,42,3799.0,square3,r,0.017,2,V,1.0
V1,68.0,77.0,50.0,46.0,68.0,46,3845.0,square3,r,0.0328,2,V,1.0
V1,69.0,76.0,48.0,45.0,63.0,45,3890.0,square3,r,0.0843,2,V,1.0
V1,70.0,71.0,53.0,50.0,65.0,50,3940.0,square3,r,0.033,2,V,1.0
V1,71.0,70.0,56.0,44.0,59.0,44,3984.0,square3,r,0.0182,2,V,1.0
V1,72.0,74.0,54.0,55.0,61.0,55,4039.0,square3,r,0.0953,2,V,1.0
V1,73.0,73.0,53.0,47.0,61.0,47,4086.0,square3,r,0.0005,2,V,1.0
V1,74.0,71.0,53.0,51.0,65.0,51,4137.0,square3,r,0.236,2,V,1.0
V1,75.0,72.0,51.0,48.0,64.0,48,4185.0,square3,r,0.0671,2,V,1.0
V1,76.0,72.0,53.0,49.0,62.0,72,4257.0,square1,j,0.1334,0,V,1.0
V1,77.0,62.0,76.0,64.0,86.0,62,4319.0,square1,j,0.0168,0,V,1.0
V1,78.0,61.0,74.0,63.0,87.0,61,4380.0,square1,j,0.0031,0,V,1.0
V1,79.0,56.0,78.0,67.0,89.0,56,4436.0,square1,j,0.0115,0,V,1.0
V1,80.0,59.0,75.0,63.0,84.0,59,4495.0,square1,j,0.0663,0,V,1.0
V1,81.0,63.0,74.0,68.0,82.0,63,4558.0,square1,j,0.0502,0,V,1.0
V1,82.0,59.0,75.0,67.0,80.0,80,4638.0,square4,i,0.1666,3,V,1.0
V1,83.0,58.0,77.0,63.0,82.0,82,4720.0,square4,i,0.0678,3,V,1.0
V1,84.0,57.0,76.0,64.0,87.0,87,4807.0,square4,i,0.0714,3,V,1.0
V1,85.0,61.0,73.0,66.0,83.0,83,4890.0,square4,i,0.0383,3,V,1.0
V1,86.0,60.0,71.0,66.0,85.0,85,4975.0,square4,i,0.0667,3,V,1.0
V1,87.0,61.0,80.0,73.0,84.0,84,5059.0,square4,i,0.0839,3,V,1.0
V1,88.0,67.0,77.0,67.0,85.0,85,5144.0,square4,i,0.0832,3,V,1.0
V1,89.0,60.0,79.0,63.0,86.0,86,5230.0,square4,i,0.0507,3,V,1.0
V1,90.0,60.0,74.0,66.0,88.0,88,5318.0,square4,i,0.0496,3,V,1.0
V1,91.0,57.0,81.0,61.0,79.0,79,5397.0,square4,i,0.0669,3,V,1.0
V1,92.0,61.0,78.0,61.0,84.0,84,5481.0,square4,i,0.012,3,V,1.0
V1,93.0,64.0,72.0,69.0,83.0,83,5564.0,square4,i,0.0774,3,V,1.0
V1,94.0,64.0,73.0,68.0,83.0,83,5647.0,square4,i,0.0673,3,V,1.0
V1,95.0,61.0,69.0,68.0,87.0,87,5734.0,square4,i,0.0163,3,V,1.0
V1,96.0,55.0,77.0,65.0,88.0,88,5822.0,square4,i,0.1002,3,V,1.0
V1,97.0,61.0,75.0,63.0,82.0,82,5904.0,square4,i,0.0103,3,V,1.0
V1,98.0,59.0,71.0,66.0,82.0,82,5986.0,square4,i,0.1166,3,V,1.0
V1,99.0,61.0,69.0,67.0,84.0,84,6070.0,square4,i,0.0713,3,V,1.0
