block,Trial,square1,square2,square3,square4,currPoints,totalPoints,square,choiceKey.keys,choiceKey.rt,armNum,blockType,blockNum
prac,0.0,100.0,0.0,0.0,0.0,99999,0.0,invalid,,,-1,p,0.0
prac,1.0,100.0,0.0,0.0,0.0,99999,0.0,invalid,,,-1,p,0.0
prac,2.0,100.0,0.0,0.0,0.0,99999,0.0,invalid,,,-1,p,0.0
prac,3.0,100.0,0.0,0.0,0.0,99999,0.0,invalid,,,-1,p,0.0
prac,4.0,100.0,0.0,0.0,0.0,99999,0.0,invalid,,,-1,p,0.0
prac,5.0,100.0,0.0,0.0,0.0,99999,0.0,invalid,,,-1,p,0.0
prac,6.0,100.0,0.0,0.0,0.0,99999,0.0,invalid,,,-1,p,0.0
prac,7.0,100.0,0.0,0.0,0.0,99999,0.0,invalid,,,-1,p,0.0
prac,8.0,100.0,0.0,0.0,0.0,99999,0.0,invalid,,,-1,p,0.0
prac,9.0,100.0,0.0,0.0,0.0,99999,0.0,invalid,,,-1,p,0.0
S4,0.0,18.0,16.0,34.0,20.0,99999,0.0,invalid,,,-1,S,4.0
S4,1.0,33.0,26.0,26.0,23.0,99999,0.0,invalid,,,-1,S,4.0
S4,2.0,35.0,15.0,33.0,22.0,35,35.0,square1,r,1.5772,0,S,4.0
S4,3.0,28.0,19.0,27.0,27.0,27,62.0,square4,j,1.1839,3,S,4.0
S4,4.0,27.0,16.0,25.0,28.0,16,78.0,square2,i,1.3583,1,S,4.0
S4,5.0,23.0,22.0,31.0,24.0,23,101.0,square1,r,1.0151,0,S,4.0
S4,6.0,25.0,20.0,34.0,23.0,34,135.0,square3,f,0.2405,2,S,4.0
S4,7.0,21.0,22.0,30.0,21.0,22,157.0,square2,i,0.7035,1,S,4.0
S4,8.0,33.0,24.0,33.0,17.0,17,174.0,square4,j,0.9027,3,S,4.0
S4,9.0,24.0,18.0,31.0,28.0,24,198.0,square1,r,0.7812,0,S,4.0
S4,10.0,31.0,26.0,35.0,20.0,31,229.0,square1,r,0.414,0,S,4.0
S4,11.0,25.0,15.0,31.0,25.0,25,254.0,square1,r,0.0895,0,S,4.0
S4,12.0,24.0,16.0,29.0,22.0,16,270.0,square2,i,0.0882,1,S,4.0
S4,13.0,28.0,23.0,25.0,17.0,17,287.0,square4,j,0.9724,3,S,4.0
S4,14.0,22.0,23.0,21.0,23.0,21,308.0,square3,f,0.3498,2,S,4.0
S4,15.0,25.0,19.0,28.0,25.0,28,336.0,square3,f,0.8809,2,S,4.0
S4,16.0,26.0,17.0,30.0,21.0,30,366.0,square3,f,0.7298,2,S,4.0
S4,17.0,22.0,21.0,29.0,22.0,21,387.0,square2,i,0.2466,1,S,4.0
S4,18.0,28.0,22.0,32.0,22.0,28,415.0,square1,r,0.2136,0,S,4.0
S4,19.0,26.0,19.0,31.0,26.0,19,434.0,square2,i,0.4499,1,S,4.0
S4,20.0,28.0,18.0,28.0,25.0,18,452.0,square2,i,0.4656,1,S,4.0
S4,21.0,33.0,26.0,21.0,29.0,29,481.0,square4,j,0.6735,3,S,4.0
S4,22.0,31.0,19.0,29.0,20.0,20,501.0,square4,j,0.4097,3,S,4.0
S4,23.0,27.0,21.0,36.0,26.0,26,527.0,square4,j,0.5562,3,S,4.0
S4,24.0,28.0,15.0,32.0,21.0,21,548.0,square4,j,0.3914,3,S,4.0
S4,25.0,27.0,18.0,28.0,25.0,18,566.0,square2,i,0.7335,1,S,4.0
S4,26.0,26.0,20.0,27.0,14.0,26,592.0,square1,r,0.1821,0,S,4.0
S4,27.0,28.0,19.0,36.0,18.0,18,610.0,square4,j,0.5008,3,S,4.0
S4,28.0,28.0,19.0,28.0,23.0,28,638.0,square3,f,0.2468,2,S,4.0
S4,29.0,25.0,22.0,29.0,23.0,25,663.0,square1,r,0.5467,0,S,4.0
S4,30.0,26.0,16.0,30.0,20.0,16,679.0,square2,i,0.2633,1,S,4.0
S4,31.0,23.0,25.0,26.0,30.0,30,709.0,square4,j,0.707,3,S,4.0
S4,32.0,21.0,26.0,22.0,23.0,26,735.0,square2,i,0.1916,1,S,4.0
S4,33.0,25.0,22.0,24.0,17.0,17,752.0,square4,j,0.4693,3,S,4.0
S4,34.0,30.0,22.0,33.0,24.0,24,776.0,square4,j,0.0467,3,S,4.0
S4,35.0,23.0,21.0,35.0,26.0,23,799.0,square1,r,0.0086,0,S,4.0
S4,36.0,19.0,21.0,33.0,24.0,21,820.0,square2,i,0.7338,1,S,4.0
S4,37.0,20.0,17.0,26.0,26.0,17,837.0,square2,i,0.434,1,S,4.0
S4,38.0,28.0,20.0,28.0,26.0,28,865.0,square1,r,0.6801,0,S,4.0
S4,39.0,28.0,23.0,40.0,27.0,28,893.0,square1,r,0.1646,0,S,4.0
S4,40.0,25.0,24.0,32.0,22.0,25,918.0,square1,r,0.3331,0,S,4.0
S4,41.0,23.0,23.0,26.0,17.0,23,941.0,square1,r,0.1044,0,S,4.0
S4,42.0,26.0,18.0,33.0,22.0,33,974.0,square3,f,0.1794,2,S,4.0
S4,43.0,22.0,21.0,36.0,25.0,36,1010.0,square3,f,0.0592,2,S,4.0
S4,44.0,21.0,18.0,33.0,14.0,33,1043.0,square3,f,0.0049,2,S,4.0
S4,45.0,29.0,19.0,30.0,29.0,30,1073.0,square3,f,0.3075,2,S,4.0
S4,46.0,21.0,16.0,22.0,23.0,23,1096.0,square4,j,0.9352,3,S,4.0
S4,47.0,22.0,18.0,28.0,22.0,22,1118.0,square4,j,0.5367,3,S,4.0
S4,48.0,33.0,21.0,32.0,26.0,32,1150.0,square3,f,0.4387,2,S,4.0
S4,49.0,23.0,17.0,20.0,21.0,20,1170.0,square3,f,0.4312,2,S,4.0
S7,0.0,68.0,73.0,62.0,57.0,99999,0.0,invalid,,,-1,S,7.0
S7,1.0,74.0,67.0,66.0,59.0,67,67.0,square2,j,1.4823,1,S,7.0
S7,2.0,68.0,69.0,65.0,60.0,68,135.0,square1,i,0.7067,0,S,7.0
S7,3.0,74.0,68.0,65.0,63.0,65,200.0,square3,r,0.4055,2,S,7.0
S7,4.0,68.0,74.0,67.0,63.0,74,274.0,square2,j,0.5807,1,S,7.0
S7,5.0,68.0,67.0,61.0,57.0,67,341.0,square2,j,0.2805,1,S,7.0
S7,6.0,72.0,64.0,65.0,51.0,64,405.0,square2,j,1.1192,1,S,7.0
S7,7.0,69.0,63.0,69.0,63.0,69,474.0,square3,r,0.7306,2,S,7.0
S7,8.0,71.0,68.0,63.0,54.0,71,545.0,square1,i,0.3498,0,S,7.0
S7,9.0,81.0,66.0,68.0,62.0,81,626.0,square1,i,0.2692,0,S,7.0
S7,10.0,72.0,73.0,68.0,61.0,72,698.0,square1,i,0.6563,0,S,7.0
S7,11.0,72.0,72.0,62.0,58.0,72,770.0,square1,i,0.325,0,S,7.0
S7,12.0,66.0,66.0,62.0,61.0,66,836.0,square1,i,0.5596,0,S,7.0
S7,13.0,73.0,75.0,75.0,68.0,68,904.0,square4,f,1.2498,3,S,7.0
S7,14.0,71.0,73.0,72.0,66.0,66,970.0,square4,f,0.637,3,S,7.0
S7,15.0,75.0,68.0,68.0,65.0,75,1045.0,square1,i,0.5717,0,S,7.0
S7,16.0,67.0,65.0,62.0,56.0,67,1112.0,square1,i,0.5043,0,S,7.0
S7,17.0,72.0,67.0,63.0,64.0,72,1184.0,square1,i,0.3969,0,S,7.0
S7,18.0,73.0,69.0,66.0,65.0,69,1253.0,square2,j,0.2976,1,S,7.0
S7,19.0,75.0,70.0,62.0,58.0,70,1323.0,square2,j,0.5499,1,S,7.0
S7,20.0,76.0,63.0,67.0,62.0,63,1386.0,square2,j,0.0161,1,S,7.0
S7,21.0,79.0,76.0,63.0,64.0,63,1449.0,square3,r,0.5119,2,S,7.0
S7,22.0,67.0,72.0,63.0,62.0,63,1512.0,square3,r,0.4806,2,S,7.0
S7,23.0,69.0,71.0,70.0,62.0,69,1581.0,square1,i,0.0206,0,S,7.0
S7,24.0,74.0,67.0,70.0,62.0,74,1655.0,square1,i,0.0463,0,S,7.0
S7,25.0,70.0,67.0,72.0,62.0,70,1725.0,square1,i,0.266,0,S,7.0
S7,26.0,72.0,62.0,74.0,65.0,72,1797.0,square1,i,0.963,0,S,7.0
S7,27.0,69.0,70.0,68.0,62.0,69,1866.0,square1,i,0.3691,0,S,7.0
S7,28.0,65.0,66.0,60.0,62.0,65,1931.0,square1,i,0.4401,0,S,7.0
S7,29.0,70.0,64.0,60.0,68.0,70,2001.0,square1,i,0.3049,0,S,7.0
S7,30.0,69.0,69.0,64.0,57.0,69,2070.0,square1,i,0.1183,0,S,7.0
S7,31.0,77.0,67.0,65.0,60.0,77,2147.0,square1,i,0.4437,0,S,7.0
S7,32.0,67.0,75.0,65.0,58.0,67,2214.0,square1,i,0.3705,0,S,7.0
S7,33.0,74.0,66.0,66.0,60.0,74,2288.0,square1,i,0.2789,0,S,7.0
S7,34.0,72.0,72.0,66.0,61.0,66,2354.0,square3,r,0.3463,2,S,7.0
S7,35.0,67.0,68.0,64.0,62.0,64,2418.0,square3,r,0.4359,2,S,7.0
S7,36.0,64.0,63.0,70.0,58.0,70,2488.0,square3,r,0.4307,2,S,7.0
S7,37.0,80.0,72.0,64.0,53.0,72,2560.0,square2,j,1.0801,1,S,7.0
S7,38.0,78.0,69.0,76.0,67.0,69,2629.0,square2,j,0.4804,1,S,7.0
S7,39.0,69.0,66.0,60.0,67.0,66,2695.0,square2,j,0.4407,1,S,7.0
S7,40.0,72.0,71.0,63.0,66.0,71,2766.0,square2,j,0.3749,1,S,7.0
S7,41.0,80.0,73.0,65.0,63.0,63,2829.0,square4,f,0.4843,3,S,7.0
S7,42.0,77.0,60.0,65.0,59.0,59,2888.0,square4,f,0.4183,3,S,7.0
S7,43.0,70.0,72.0,70.0,63.0,63,2951.0,square4,f,0.3597,3,S,7.0
S7,44.0,77.0,70.0,66.0,58.0,58,3009.0,square4,f,0.3853,3,S,7.0
S7,45.0,75.0,69.0,73.0,58.0,75,3084.0,square1,i,0.0434,0,S,7.0
S7,46.0,74.0,71.0,63.0,63.0,74,3158.0,square1,i,0.3989,0,S,7.0
S7,47.0,73.0,75.0,71.0,64.0,73,3231.0,square1,i,0.3998,0,S,7.0
S7,48.0,78.0,79.0,64.0,58.0,78,3309.0,square1,i,0.3126,0,S,7.0
S7,49.0,75.0,72.0,66.0,72.0,75,3384.0,square1,i,0.0173,0,S,7.0
S1,0.0,72.0,58.0,70.0,66.0,58,58.0,square2,i,0.737,1,S,1.0
S1,1.0,75.0,64.0,66.0,69.0,64,122.0,square2,i,0.2147,1,S,1.0
S1,2.0,75.0,62.0,62.0,79.0,75,197.0,square1,r,0.0468,0,S,1.0
S1,3.0,68.0,62.0,63.0,69.0,68,265.0,square1,r,0.2967,0,S,1.0
S1,4.0,82.0,63.0,64.0,73.0,82,347.0,square1,r,0.0235,0,S,1.0
S1,5.0,66.0,70.0,65.0,73.0,66,413.0,square1,r,0.4048,0,S,1.0
S1,6.0,73.0,65.0,62.0,65.0,73,486.0,square1,r,0.0013,0,S,1.0
S1,7.0,70.0,61.0,65.0,66.0,70,556.0,square1,r,0.0007,0,S,1.0
S1,8.0,78.0,63.0,67.0,68.0,68,624.0,square4,j,0.1683,3,S,1.0
S1,9.0,74.0,67.0,66.0,68.0,68,692.0,square4,j,0.1295,3,S,1.0
S1,10.0,73.0,59.0,68.0,68.0,68,760.0,square3,f,0.1999,2,S,1.0
S1,11.0,76.0,65.0,62.0,81.0,62,822.0,square3,f,0.2887,2,S,1.0
S1,12.0,77.0,66.0,69.0,63.0,77,899.0,square1,r,0.4891,0,S,1.0
S1,13.0,75.0,63.0,68.0,73.0,75,974.0,square1,r,0.5365,0,S,1.0
S1,14.0,67.0,60.0,67.0,69.0,67,1041.0,square1,r,0.6877,0,S,1.0
S1,15.0,70.0,63.0,69.0,73.0,70,1111.0,square1,r,0.1152,0,S,1.0
S1,16.0,69.0,61.0,69.0,69.0,69,1180.0,square1,r,0.0469,0,S,1.0
S1,17.0,73.0,68.0,67.0,73.0,73,1253.0,square1,r,0.0006,0,S,1.0
S1,18.0,70.0,58.0,73.0,66.0,70,1323.0,square1,r,0.0845,0,S,1.0
S1,19.0,75.0,58.0,62.0,68.0,58,1381.0,square2,i,0.4671,1,S,1.0
S1,20.0,76.0,58.0,72.0,67.0,76,1457.0,square1,r,1.2056,0,S,1.0
S1,21.0,69.0,66.0,66.0,67.0,69,1526.0,square1,r,0.1968,0,S,1.0
S1,22.0,70.0,68.0,65.0,65.0,70,1596.0,square1,r,0.2693,0,S,1.0
S1,23.0,71.0,60.0,64.0,64.0,71,1667.0,square1,r,0.1519,0,S,1.0
S1,24.0,70.0,72.0,62.0,67.0,70,1737.0,square1,r,0.0819,0,S,1.0
S1,25.0,68.0,60.0,70.0,65.0,68,1805.0,square1,r,0.3085,0,S,1.0
S1,26.0,76.0,64.0,72.0,69.0,76,1881.0,square1,r,0.0647,0,S,1.0
S1,27.0,71.0,56.0,70.0,65.0,71,1952.0,square1,r,0.4243,0,S,1.0
S1,28.0,67.0,67.0,71.0,76.0,67,2019.0,square1,r,0.1745,0,S,1.0
S1,29.0,78.0,64.0,64.0,74.0,78,2097.0,square1,r,0.0473,0,S,1.0
S1,30.0,74.0,63.0,65.0,71.0,74,2171.0,square1,r,1.248,0,S,1.0
S1,31.0,78.0,58.0,69.0,69.0,69,2240.0,square3,f,0.605,2,S,1.0
S1,32.0,71.0,67.0,68.0,60.0,68,2308.0,square3,f,1.2027,2,S,1.0
S1,33.0,68.0,63.0,65.0,73.0,65,2373.0,square3,f,1.357,2,S,1.0
S1,34.0,71.0,62.0,74.0,73.0,74,2447.0,square3,f,0.7971,2,S,1.0
S1,35.0,75.0,59.0,67.0,77.0,67,2514.0,square3,f,0.5671,2,S,1.0
S1,36.0,77.0,60.0,66.0,67.0,66,2580.0,square3,f,0.4007,2,S,1.0
S1,37.0,69.0,60.0,69.0,75.0,69,2649.0,square3,f,0.2732,2,S,1.0
S1,38.0,77.0,64.0,62.0,70.0,70,2719.0,square4,j,0.0564,3,S,1.0
S1,39.0,72.0,66.0,69.0,65.0,65,2784.0,square4,j,0.3653,3,S,1.0
S1,40.0,69.0,63.0,66.0,69.0,69,2853.0,square4,j,0.3828,3,S,1.0
S1,41.0,72.0,62.0,70.0,70.0,70,2923.0,square4,j,0.4428,3,S,1.0
S1,42.0,78.0,60.0,63.0,62.0,60,2983.0,square2,i,0.4554,1,S,1.0
S1,43.0,71.0,62.0,67.0,73.0,62,3045.0,square2,i,0.1986,1,S,1.0
S1,44.0,75.0,63.0,69.0,73.0,73,3118.0,square4,j,0.1966,3,S,1.0
S1,45.0,66.0,60.0,68.0,73.0,73,3191.0,square4,j,0.4932,3,S,1.0
S1,46.0,74.0,67.0,69.0,71.0,71,3262.0,square4,j,0.4139,3,S,1.0
S1,47.0,71.0,66.0,68.0,70.0,70,3332.0,square4,j,0.6806,3,S,1.0
S1,48.0,72.0,75.0,71.0,77.0,77,3409.0,square4,j,0.5255,3,S,1.0
S1,49.0,65.0,57.0,66.0,75.0,75,3484.0,square4,j,0.3702,3,S,1.0
S11,0.0,49.0,53.0,49.0,45.0,53,53.0,square2,r,0.5152,1,S,11.0
S11,1.0,54.0,56.0,42.0,50.0,50,103.0,square4,i,0.1363,3,S,11.0
S11,2.0,39.0,51.0,39.0,43.0,43,146.0,square4,i,0.114,3,S,11.0
S11,3.0,53.0,50.0,38.0,43.0,38,184.0,square3,j,0.519,2,S,11.0
S11,4.0,47.0,54.0,39.0,48.0,47,231.0,square1,f,0.3896,0,S,11.0
S11,5.0,47.0,52.0,40.0,46.0,47,278.0,square1,f,0.4967,0,S,11.0
S11,6.0,47.0,46.0,44.0,54.0,46,324.0,square2,r,0.7846,1,S,11.0
S11,7.0,48.0,51.0,35.0,51.0,51,375.0,square2,r,0.2088,1,S,11.0
S11,8.0,52.0,49.0,36.0,43.0,49,424.0,square2,r,0.0538,1,S,11.0
S11,9.0,47.0,53.0,41.0,55.0,55,479.0,square4,i,0.1223,3,S,11.0
S11,10.0,44.0,48.0,41.0,43.0,43,522.0,square4,i,0.0634,3,S,11.0
S11,11.0,41.0,54.0,38.0,43.0,43,565.0,square4,i,0.2231,3,S,11.0
S11,12.0,45.0,54.0,44.0,45.0,45,610.0,square4,i,0.1004,3,S,11.0
S11,13.0,54.0,52.0,44.0,50.0,50,660.0,square4,i,0.1021,3,S,11.0
S11,14.0,57.0,58.0,36.0,45.0,45,705.0,square4,i,0.1957,3,S,11.0
S11,15.0,48.0,54.0,43.0,49.0,49,754.0,square4,i,0.0522,3,S,11.0
S11,16.0,58.0,47.0,42.0,46.0,42,796.0,square3,j,0.9847,2,S,11.0
S11,17.0,41.0,61.0,42.0,53.0,42,838.0,square3,j,0.0302,2,S,11.0
S11,18.0,51.0,58.0,33.0,39.0,33,871.0,square3,j,0.3023,2,S,11.0
S11,19.0,48.0,49.0,37.0,42.0,37,908.0,square3,j,0.1972,2,S,11.0
S11,20.0,52.0,52.0,45.0,46.0,46,954.0,square4,i,0.3863,3,S,11.0
S11,21.0,47.0,53.0,44.0,51.0,51,1005.0,square4,i,0.3131,3,S,11.0
S11,22.0,49.0,54.0,37.0,41.0,54,1059.0,square2,r,0.1076,1,S,11.0
S11,23.0,52.0,54.0,41.0,45.0,54,1113.0,square2,r,0.4134,1,S,11.0
S11,24.0,42.0,56.0,41.0,45.0,56,1169.0,square2,r,0.3553,1,S,11.0
S11,25.0,52.0,56.0,42.0,44.0,56,1225.0,square2,r,0.3431,1,S,11.0
S11,26.0,43.0,56.0,41.0,45.0,56,1281.0,square2,r,0.2819,1,S,11.0
S11,27.0,48.0,50.0,40.0,43.0,50,1331.0,square2,r,0.3378,1,S,11.0
S11,28.0,46.0,49.0,38.0,48.0,49,1380.0,square2,r,0.3065,1,S,11.0
S11,29.0,46.0,55.0,40.0,42.0,55,1435.0,square2,r,0.1634,1,S,11.0
S11,30.0,46.0,56.0,43.0,37.0,46,1481.0,square1,f,0.1303,0,S,11.0
S11,31.0,42.0,49.0,44.0,42.0,42,1523.0,square1,f,0.219,0,S,11.0
S11,32.0,51.0,52.0,36.0,40.0,51,1574.0,square1,f,0.2896,0,S,11.0
S11,33.0,44.0,53.0,39.0,43.0,44,1618.0,square1,f,0.4856,0,S,11.0
S11,34.0,52.0,52.0,43.0,49.0,52,1670.0,square1,f,0.1825,0,S,11.0
S11,35.0,53.0,51.0,38.0,45.0,51,1721.0,square2,r,0.4561,1,S,11.0
S11,36.0,50.0,44.0,42.0,48.0,44,1765.0,square2,r,0.381,1,S,11.0
S11,37.0,49.0,51.0,40.0,48.0,51,1816.0,square2,r,0.2919,1,S,11.0
S11,38.0,47.0,47.0,39.0,38.0,47,1863.0,square2,r,0.2098,1,S,11.0
S11,39.0,51.0,55.0,40.0,42.0,55,1918.0,square2,r,0.212,1,S,11.0
S11,40.0,50.0,52.0,41.0,44.0,44,1962.0,square4,i,0.3813,3,S,11.0
S11,41.0,47.0,50.0,46.0,50.0,50,2012.0,square4,i,0.1825,3,S,11.0
S11,42.0,52.0,48.0,41.0,47.0,47,2059.0,square4,i,0.4028,3,S,11.0
S11,43.0,50.0,56.0,34.0,42.0,42,2101.0,square4,i,0.468,3,S,11.0
S11,44.0,42.0,48.0,37.0,49.0,49,2150.0,square4,i,0.348,3,S,11.0
S11,45.0,47.0,47.0,41.0,40.0,40,2190.0,square4,i,0.5301,3,S,11.0
S11,46.0,50.0,56.0,40.0,44.0,56,2246.0,square2,r,0.3,1,S,11.0
S11,47.0,46.0,48.0,38.0,47.0,48,2294.0,square2,r,0.4714,1,S,11.0
S11,48.0,45.0,54.0,44.0,41.0,54,2348.0,square2,r,0.2924,1,S,11.0
S11,49.0,44.0,53.0,41.0,41.0,53,2401.0,square2,r,0.4792,1,S,11.0
S5,0.0,90.0,70.0,79.0,84.0,84,84.0,square4,r,1.1279,3,S,5.0
S5,1.0,92.0,77.0,83.0,81.0,81,165.0,square4,r,0.2217,3,S,5.0
S5,2.0,83.0,72.0,81.0,76.0,76,241.0,square4,r,0.4488,3,S,5.0
S5,3.0,87.0,72.0,79.0,81.0,87,328.0,square1,i,0.2642,0,S,5.0
S5,4.0,86.0,81.0,78.0,72.0,86,414.0,square1,i,0.2315,0,S,5.0
S5,5.0,89.0,70.0,79.0,83.0,89,503.0,square1,i,0.301,0,S,5.0
S5,6.0,86.0,69.0,81.0,81.0,81,584.0,square3,f,0.6469,2,S,5.0
S5,7.0,82.0,72.0,86.0,80.0,86,670.0,square3,f,0.3629,2,S,5.0
S5,8.0,84.0,67.0,80.0,77.0,80,750.0,square3,f,0.4747,2,S,5.0
S5,9.0,92.0,80.0,86.0,84.0,86,836.0,square3,f,0.2638,2,S,5.0
S5,10.0,82.0,71.0,80.0,80.0,71,907.0,square2,j,0.4328,1,S,5.0
S5,11.0,80.0,75.0,79.0,75.0,75,982.0,square2,j,0.3188,1,S,5.0
S5,12.0,84.0,75.0,80.0,82.0,75,1057.0,square2,j,0.077,1,S,5.0
S5,13.0,85.0,74.0,74.0,81.0,74,1131.0,square2,j,0.1146,1,S,5.0
S5,14.0,81.0,79.0,85.0,81.0,79,1210.0,square2,j,0.0364,1,S,5.0
S5,15.0,81.0,75.0,76.0,77.0,75,1285.0,square2,j,0.0006,1,S,5.0
S5,16.0,86.0,74.0,78.0,74.0,74,1359.0,square4,r,0.4293,3,S,5.0
S5,17.0,81.0,77.0,81.0,77.0,77,1436.0,square4,r,0.157,3,S,5.0
S5,18.0,87.0,70.0,84.0,82.0,82,1518.0,square4,r,0.2577,3,S,5.0
S5,19.0,84.0,76.0,83.0,76.0,76,1594.0,square4,r,0.1159,3,S,5.0
S5,20.0,79.0,78.0,82.0,76.0,76,1670.0,square4,r,0.0394,3,S,5.0
S5,21.0,86.0,68.0,80.0,72.0,72,1742.0,square4,r,0.0387,3,S,5.0
S5,22.0,93.0,80.0,85.0,84.0,84,1826.0,square4,r,0.0372,3,S,5.0
S5,23.0,87.0,73.0,76.0,70.0,70,1896.0,square4,r,0.017,3,S,5.0
S5,24.0,85.0,69.0,81.0,78.0,85,1981.0,square1,i,0.0146,0,S,5.0
S5,25.0,89.0,77.0,77.0,76.0,89,2070.0,square1,i,0.0906,0,S,5.0
S5,26.0,84.0,71.0,81.0,75.0,84,2154.0,square1,i,0.3732,0,S,5.0
S5,27.0,84.0,75.0,82.0,71.0,84,2238.0,square1,i,0.1468,0,S,5.0
S5,28.0,83.0,72.0,82.0,78.0,83,2321.0,square1,i,0.1922,0,S,5.0
S5,29.0,91.0,67.0,79.0,74.0,91,2412.0,square1,i,0.28,0,S,5.0
S5,30.0,82.0,69.0,81.0,77.0,82,2494.0,square1,i,0.2497,0,S,5.0
S5,31.0,82.0,72.0,80.0,78.0,82,2576.0,square1,i,0.089,0,S,5.0
S5,32.0,83.0,73.0,91.0,80.0,83,2659.0,square1,i,0.052,0,S,5.0
S5,33.0,83.0,68.0,85.0,78.0,83,2742.0,square1,i,0.036,0,S,5.0
S5,34.0,89.0,79.0,83.0,77.0,89,2831.0,square1,i,0.1707,0,S,5.0
S5,35.0,88.0,72.0,79.0,80.0,88,2919.0,square1,i,0.0998,0,S,5.0
S5,36.0,90.0,74.0,84.0,76.0,84,3003.0,square3,f,0.3469,2,S,5.0
S5,37.0,85.0,75.0,80.0,82.0,80,3083.0,square3,f,0.1985,2,S,5.0
S5,38.0,78.0,74.0,85.0,79.0,85,3168.0,square3,f,0.2507,2,S,5.0
S5,39.0,87.0,73.0,87.0,85.0,87,3255.0,square3,f,0.1275,2,S,5.0
S5,40.0,83.0,67.0,81.0,80.0,81,3336.0,square3,f,0.1222,2,S,5.0
S5,41.0,82.0,69.0,88.0,80.0,88,3424.0,square3,f,0.1164,2,S,5.0
S5,42.0,85.0,78.0,91.0,80.0,91,3515.0,square3,f,0.099,2,S,5.0
S5,43.0,89.0,74.0,78.0,74.0,78,3593.0,square3,f,0.1871,2,S,5.0
S5,44.0,90.0,74.0,77.0,85.0,90,3683.0,square1,i,0.5558,0,S,5.0
S5,45.0,89.0,68.0,81.0,78.0,81,3764.0,square3,f,0.4014,2,S,5.0
S5,46.0,86.0,70.0,86.0,68.0,86,3850.0,square3,f,0.2308,2,S,5.0
S5,47.0,90.0,77.0,85.0,84.0,85,3935.0,square3,f,0.0913,2,S,5.0
S5,48.0,76.0,66.0,82.0,79.0,76,4011.0,square1,i,0.5303,0,S,5.0
S5,49.0,84.0,73.0,82.0,75.0,84,4095.0,square1,i,0.0538,0,S,5.0
S2,0.0,62.0,57.0,71.0,74.0,62,62.0,square1,r,1.4655,0,S,2.0
S2,1.0,64.0,59.0,72.0,67.0,72,134.0,square3,i,0.2723,2,S,2.0
S2,2.0,68.0,57.0,75.0,68.0,68,202.0,square4,j,0.2298,3,S,2.0
S2,3.0,69.0,57.0,80.0,70.0,57,259.0,square2,f,0.3297,1,S,2.0
S2,4.0,66.0,60.0,74.0,68.0,74,333.0,square3,i,0.0984,2,S,2.0
S2,5.0,63.0,62.0,77.0,72.0,72,405.0,square4,j,0.5293,3,S,2.0
S2,6.0,69.0,61.0,75.0,74.0,74,479.0,square4,j,0.2959,3,S,2.0
S2,7.0,74.0,66.0,79.0,72.0,79,558.0,square3,i,0.3652,2,S,2.0
S2,8.0,81.0,65.0,76.0,72.0,76,634.0,square3,i,0.2078,2,S,2.0
S2,9.0,70.0,66.0,78.0,70.0,78,712.0,square3,i,0.1136,2,S,2.0
S2,10.0,70.0,72.0,70.0,74.0,70,782.0,square1,r,0.1806,0,S,2.0
S2,11.0,64.0,66.0,72.0,67.0,64,846.0,square1,r,0.2132,0,S,2.0
S2,12.0,66.0,57.0,70.0,67.0,66,912.0,square1,r,0.024,0,S,2.0
S2,13.0,68.0,68.0,71.0,73.0,71,983.0,square3,i,0.1368,2,S,2.0
S2,14.0,70.0,63.0,77.0,71.0,77,1060.0,square3,i,0.0328,2,S,2.0
S2,15.0,64.0,66.0,75.0,66.0,75,1135.0,square3,i,0.1128,2,S,2.0
S2,16.0,67.0,61.0,73.0,70.0,73,1208.0,square3,i,0.1398,2,S,2.0
S2,17.0,65.0,58.0,71.0,75.0,71,1279.0,square3,i,0.1983,2,S,2.0
S2,18.0,72.0,64.0,81.0,61.0,61,1340.0,square4,j,0.3204,3,S,2.0
S2,19.0,60.0,63.0,72.0,65.0,65,1405.0,square4,j,0.5172,3,S,2.0
S2,20.0,68.0,56.0,71.0,70.0,70,1475.0,square4,j,0.2979,3,S,2.0
S2,21.0,65.0,65.0,74.0,71.0,71,1546.0,square4,j,0.1877,3,S,2.0
S2,22.0,69.0,62.0,77.0,72.0,72,1618.0,square4,j,0.0667,3,S,2.0
S2,23.0,64.0,71.0,74.0,65.0,65,1683.0,square4,j,1.1815,3,S,2.0
S2,24.0,66.0,62.0,78.0,70.0,62,1745.0,square2,f,1.0561,1,S,2.0
S2,25.0,67.0,69.0,76.0,66.0,69,1814.0,square2,f,0.736,1,S,2.0
S2,26.0,65.0,63.0,74.0,69.0,63,1877.0,square2,f,0.4934,1,S,2.0
S2,27.0,68.0,64.0,67.0,68.0,64,1941.0,square2,f,0.323,1,S,2.0
S2,28.0,61.0,52.0,71.0,68.0,71,2012.0,square3,i,0.1395,2,S,2.0
S2,29.0,67.0,64.0,73.0,69.0,73,2085.0,square3,i,0.4841,2,S,2.0
S2,30.0,67.0,53.0,77.0,67.0,77,2162.0,square3,i,0.091,2,S,2.0
S2,31.0,67.0,69.0,69.0,68.0,69,2231.0,square3,i,0.1466,2,S,2.0
S2,32.0,71.0,63.0,73.0,70.0,73,2304.0,square3,i,0.1135,2,S,2.0
S2,33.0,61.0,65.0,68.0,71.0,68,2372.0,square3,i,0.1202,2,S,2.0
S2,34.0,66.0,55.0,78.0,68.0,78,2450.0,square3,i,0.0991,2,S,2.0
S2,35.0,60.0,57.0,66.0,66.0,66,2516.0,square3,i,0.025,2,S,2.0
S2,36.0,64.0,63.0,73.0,72.0,73,2589.0,square3,i,0.0326,2,S,2.0
S2,37.0,65.0,62.0,75.0,68.0,75,2664.0,square3,i,0.1214,2,S,2.0
S2,38.0,69.0,57.0,71.0,62.0,71,2735.0,square3,i,0.1406,2,S,2.0
S2,39.0,72.0,66.0,74.0,74.0,74,2809.0,square3,i,0.0538,2,S,2.0
S2,40.0,66.0,63.0,76.0,59.0,76,2885.0,square3,i,0.1142,2,S,2.0
S2,41.0,74.0,64.0,67.0,76.0,67,2952.0,square3,i,0.0931,2,S,2.0
S2,42.0,62.0,67.0,72.0,68.0,72,3024.0,square3,i,0.0631,2,S,2.0
S2,43.0,69.0,63.0,75.0,71.0,75,3099.0,square3,i,0.0151,2,S,2.0
S2,44.0,72.0,60.0,74.0,67.0,74,3173.0,square3,i,0.0492,2,S,2.0
S2,45.0,69.0,63.0,76.0,73.0,76,3249.0,square3,i,0.5569,2,S,2.0
S2,46.0,64.0,71.0,75.0,72.0,64,3313.0,square1,r,0.2805,0,S,2.0
S2,47.0,75.0,62.0,75.0,69.0,75,3388.0,square1,r,0.2884,0,S,2.0
S2,48.0,66.0,65.0,74.0,68.0,66,3454.0,square1,r,0.5139,0,S,2.0
S2,49.0,67.0,64.0,72.0,76.0,67,3521.0,square1,r,0.0972,0,S,2.0
V2,0.0,33.0,24.0,43.0,18.0,24,24.0,square2,i,0.7158,1,V,2.0
V2,1.0,33.0,29.0,42.0,21.0,29,53.0,square2,i,0.3147,1,V,2.0
V2,2.0,37.0,26.0,45.0,22.0,45,98.0,square3,j,0.0407,2,V,2.0
V2,3.0,39.0,26.0,41.0,20.0,41,139.0,square3,j,0.072,2,V,2.0
V2,4.0,29.0,32.0,45.0,19.0,45,184.0,square3,j,0.0647,2,V,2.0
V2,5.0,33.0,28.0,44.0,17.0,17,201.0,square4,r,0.1481,3,V,2.0
V2,6.0,32.0,24.0,49.0,20.0,32,233.0,square1,f,0.2968,0,V,2.0
V2,7.0,32.0,21.0,42.0,13.0,32,265.0,square1,f,0.0153,0,V,2.0
V2,8.0,35.0,23.0,45.0,19.0,19,284.0,square4,r,0.0009,3,V,2.0
V2,9.0,33.0,28.0,46.0,17.0,17,301.0,square4,r,0.028,3,V,2.0
V2,10.0,39.0,27.0,45.0,21.0,27,328.0,square2,i,0.4964,1,V,2.0
V2,11.0,30.0,23.0,44.0,22.0,23,351.0,square2,i,0.3292,1,V,2.0
V2,12.0,31.0,26.0,43.0,16.0,43,394.0,square3,j,0.67,2,V,2.0
V2,13.0,35.0,26.0,43.0,22.0,43,437.0,square3,j,0.5148,2,V,2.0
V2,14.0,35.0,29.0,46.0,19.0,46,483.0,square3,j,0.2715,2,V,2.0
V2,15.0,36.0,22.0,44.0,20.0,44,527.0,square3,j,0.3846,2,V,2.0
V2,16.0,33.0,27.0,45.0,19.0,45,572.0,square3,j,0.3539,2,V,2.0
V2,17.0,35.0,25.0,41.0,15.0,25,597.0,square2,i,0.3346,1,V,2.0
V2,18.0,37.0,27.0,51.0,21.0,27,624.0,square2,i,0.3216,1,V,2.0
V2,19.0,33.0,25.0,43.0,18.0,43,667.0,square3,j,0.6225,2,V,2.0
V2,20.0,39.0,25.0,43.0,20.0,43,710.0,square3,j,0.0706,2,V,2.0
V2,21.0,27.0,32.0,43.0,24.0,43,753.0,square3,j,0.2483,2,V,2.0
V2,22.0,35.0,27.0,50.0,13.0,50,803.0,square3,j,0.675,2,V,2.0
V2,23.0,36.0,25.0,39.0,17.0,39,842.0,square3,j,0.3252,2,V,2.0
V2,24.0,32.0,45.0,39.0,59.0,39,881.0,square3,j,0.2528,2,V,2.0
V2,25.0,26.0,43.0,37.0,55.0,26,907.0,square1,f,0.3575,0,V,2.0
V2,26.0,23.0,45.0,39.0,58.0,23,930.0,square1,f,0.5133,0,V,2.0
V2,27.0,30.0,44.0,40.0,56.0,44,974.0,square2,i,0.0009,1,V,2.0
V2,28.0,34.0,48.0,41.0,54.0,48,1022.0,square2,i,0.0745,1,V,2.0
V2,29.0,29.0,42.0,35.0,54.0,42,1064.0,square2,i,0.1697,1,V,2.0
V2,30.0,22.0,39.0,39.0,55.0,39,1103.0,square2,i,0.0084,1,V,2.0
V2,31.0,32.0,48.0,35.0,50.0,35,1138.0,square3,j,0.2358,2,V,2.0
V2,32.0,27.0,47.0,40.0,58.0,40,1178.0,square3,j,0.2301,2,V,2.0
V2,33.0,28.0,46.0,31.0,54.0,31,1209.0,square3,j,0.1123,2,V,2.0
V2,34.0,28.0,44.0,41.0,49.0,41,1250.0,square3,j,0.1965,2,V,2.0
V2,35.0,31.0,44.0,33.0,59.0,33,1283.0,square3,j,0.1484,2,V,2.0
V2,36.0,29.0,48.0,30.0,55.0,30,1313.0,square3,j,0.1019,2,V,2.0
V2,37.0,25.0,45.0,32.0,51.0,32,1345.0,square3,j,0.1899,2,V,2.0
V2,38.0,29.0,48.0,33.0,54.0,54,1399.0,square4,r,0.1861,3,V,2.0
V2,39.0,29.0,44.0,33.0,54.0,54,1453.0,square4,r,0.1581,3,V,2.0
V2,40.0,33.0,42.0,37.0,61.0,61,1514.0,square4,r,0.16,3,V,2.0
V2,41.0,28.0,45.0,41.0,57.0,57,1571.0,square4,r,0.1156,3,V,2.0
V2,42.0,33.0,46.0,36.0,54.0,54,1625.0,square4,r,0.3862,3,V,2.0
V2,43.0,31.0,42.0,40.0,57.0,57,1682.0,square4,r,0.3046,3,V,2.0
V2,44.0,27.0,45.0,38.0,56.0,56,1738.0,square4,r,0.1129,3,V,2.0
V2,45.0,27.0,44.0,32.0,51.0,51,1789.0,square4,r,0.6384,3,V,2.0
V2,46.0,28.0,44.0,39.0,57.0,57,1846.0,square4,r,0.1593,3,V,2.0
V2,47.0,30.0,45.0,36.0,56.0,45,1891.0,square2,i,0.007,1,V,2.0
V2,48.0,31.0,47.0,41.0,59.0,47,1938.0,square2,i,0.0084,1,V,2.0
V2,49.0,32.0,45.0,33.0,57.0,45,1983.0,square2,i,0.4481,1,V,2.0
V2,50.0,24.0,38.0,36.0,52.0,38,2021.0,square2,i,0.6163,1,V,2.0
V2,51.0,29.0,48.0,34.0,54.0,48,2069.0,square2,i,0.1721,1,V,2.0
V2,52.0,30.0,50.0,38.0,56.0,50,2119.0,square2,i,0.1837,1,V,2.0
V2,53.0,27.0,47.0,33.0,55.0,55,2174.0,square4,r,0.5494,3,V,2.0
V2,54.0,34.0,21.0,45.0,25.0,25,2199.0,square4,r,0.4036,3,V,2.0
V2,55.0,36.0,19.0,39.0,24.0,39,2238.0,square3,j,0.8,2,V,2.0
V2,56.0,29.0,19.0,45.0,18.0,45,2283.0,square3,j,0.3515,2,V,2.0
V2,57.0,29.0,20.0,39.0,20.0,20,2303.0,square2,i,0.4163,1,V,2.0
V2,58.0,40.0,18.0,42.0,21.0,42,2345.0,square3,j,0.0838,2,V,2.0
V2,59.0,31.0,17.0,44.0,23.0,44,2389.0,square3,j,0.2695,2,V,2.0
V2,60.0,31.0,19.0,42.0,20.0,42,2431.0,square3,j,0.1222,2,V,2.0
V2,61.0,34.0,16.0,41.0,25.0,34,2465.0,square1,f,0.0524,0,V,2.0
V2,62.0,28.0,12.0,41.0,22.0,12,2477.0,square2,i,0.3889,1,V,2.0
V2,63.0,32.0,14.0,45.0,26.0,26,2503.0,square4,r,0.0007,3,V,2.0
V2,64.0,36.0,21.0,41.0,25.0,41,2544.0,square3,j,1.1205,2,V,2.0
V2,65.0,32.0,13.0,39.0,24.0,39,2583.0,square3,j,0.1541,2,V,2.0
V2,66.0,35.0,15.0,42.0,20.0,42,2625.0,square3,j,0.0023,2,V,2.0
V2,67.0,30.0,23.0,47.0,27.0,23,2648.0,square2,i,0.4316,1,V,2.0
V2,68.0,31.0,17.0,43.0,24.0,17,2665.0,square2,i,0.0731,1,V,2.0
V2,69.0,33.0,20.0,41.0,20.0,41,2706.0,square3,j,0.1127,2,V,2.0
V2,70.0,37.0,17.0,43.0,21.0,43,2749.0,square3,j,0.1462,2,V,2.0
V2,71.0,45.0,31.0,36.0,58.0,36,2785.0,square3,j,0.0551,2,V,2.0
V2,72.0,47.0,31.0,31.0,54.0,47,2832.0,square1,f,0.2166,0,V,2.0
V2,73.0,50.0,30.0,33.0,55.0,50,2882.0,square1,f,0.1542,0,V,2.0
V2,74.0,45.0,31.0,36.0,51.0,45,2927.0,square1,f,0.0057,0,V,2.0
V2,75.0,47.0,28.0,38.0,54.0,47,2974.0,square1,f,0.0247,0,V,2.0
V2,76.0,52.0,33.0,35.0,60.0,52,3026.0,square1,f,0.2414,0,V,2.0
V2,77.0,41.0,29.0,37.0,53.0,29,3055.0,square2,i,0.1137,1,V,2.0
V2,78.0,51.0,24.0,34.0,56.0,51,3106.0,square1,f,0.4088,0,V,2.0
V2,79.0,41.0,34.0,36.0,52.0,41,3147.0,square1,f,0.3704,0,V,2.0
V2,80.0,48.0,31.0,37.0,51.0,48,3195.0,square1,f,0.9381,0,V,2.0
V2,81.0,43.0,32.0,40.0,53.0,43,3238.0,square1,f,0.057,0,V,2.0
V2,82.0,48.0,25.0,37.0,58.0,48,3286.0,square1,f,0.0008,0,V,2.0
V2,83.0,45.0,32.0,36.0,61.0,61,3347.0,square4,r,0.3496,3,V,2.0
V2,84.0,47.0,29.0,39.0,60.0,60,3407.0,square4,r,0.1998,3,V,2.0
V2,85.0,49.0,30.0,39.0,54.0,54,3461.0,square4,r,0.5013,3,V,2.0
V2,86.0,46.0,28.0,33.0,51.0,51,3512.0,square4,r,0.0503,3,V,2.0
V2,87.0,45.0,24.0,37.0,55.0,55,3567.0,square4,r,0.3667,3,V,2.0
V2,88.0,48.0,29.0,42.0,54.0,54,3621.0,square4,r,0.0572,3,V,2.0
V2,89.0,43.0,31.0,38.0,52.0,52,3673.0,square4,r,0.0669,3,V,2.0
V2,90.0,51.0,33.0,36.0,56.0,56,3729.0,square4,r,0.0553,3,V,2.0
V2,91.0,49.0,32.0,37.0,59.0,59,3788.0,square4,r,0.123,3,V,2.0
V2,92.0,47.0,29.0,37.0,56.0,56,3844.0,square4,r,0.0333,3,V,2.0
V2,93.0,45.0,27.0,35.0,56.0,56,3900.0,square4,r,0.1837,3,V,2.0
V2,94.0,45.0,31.0,31.0,49.0,31,3931.0,square3,j,0.3207,2,V,2.0
V2,95.0,47.0,33.0,36.0,52.0,52,3983.0,square4,r,0.073,3,V,2.0
V2,96.0,44.0,28.0,37.0,59.0,59,4042.0,square4,r,0.2034,3,V,2.0
V2,97.0,48.0,28.0,33.0,55.0,28,4070.0,square2,i,0.3666,1,V,2.0
V2,98.0,49.0,29.0,39.0,60.0,60,4130.0,square4,r,0.5624,3,V,2.0
V2,99.0,44.0,30.0,36.0,50.0,50,4180.0,square4,r,0.6103,3,V,2.0
V7,0.0,86.0,61.0,78.0,68.0,78,78.0,square3,r,1.5448,2,V,7.0
V7,1.0,95.0,62.0,79.0,70.0,79,157.0,square3,r,0.0832,2,V,7.0
V7,2.0,89.0,67.0,81.0,77.0,89,246.0,square1,i,0.4199,0,V,7.0
V7,3.0,90.0,56.0,85.0,72.0,90,336.0,square1,i,0.1831,0,V,7.0
V7,4.0,91.0,65.0,77.0,71.0,91,427.0,square1,i,0.017,0,V,7.0
V7,5.0,91.0,58.0,84.0,72.0,91,518.0,square1,i,0.3863,0,V,7.0
V7,6.0,94.0,65.0,87.0,72.0,94,612.0,square1,i,0.0711,0,V,7.0
V7,7.0,89.0,67.0,79.0,67.0,67,679.0,square2,j,0.1894,1,V,7.0
V7,8.0,91.0,65.0,84.0,68.0,91,770.0,square1,i,0.2063,0,V,7.0
V7,9.0,92.0,60.0,87.0,69.0,92,862.0,square1,i,0.3505,0,V,7.0
V7,10.0,90.0,67.0,81.0,76.0,90,952.0,square1,i,0.0008,0,V,7.0
V7,11.0,86.0,67.0,83.0,73.0,86,1038.0,square1,i,0.0164,0,V,7.0
V7,12.0,90.0,62.0,80.0,72.0,90,1128.0,square1,i,0.2403,0,V,7.0
V7,13.0,84.0,60.0,88.0,71.0,84,1212.0,square1,i,0.3833,0,V,7.0
V7,14.0,95.0,64.0,80.0,70.0,95,1307.0,square1,i,0.0833,0,V,7.0
V7,15.0,86.0,60.0,81.0,70.0,86,1393.0,square1,i,0.0167,0,V,7.0
V7,16.0,85.0,65.0,77.0,69.0,77,1470.0,square3,r,0.2508,2,V,7.0
V7,17.0,91.0,65.0,81.0,70.0,91,1561.0,square1,i,0.1008,0,V,7.0
V7,18.0,95.0,61.0,81.0,76.0,95,1656.0,square1,i,0.2021,0,V,7.0
V7,19.0,90.0,58.0,79.0,72.0,72,1728.0,square4,f,0.3192,3,V,7.0
V7,20.0,94.0,68.0,80.0,79.0,94,1822.0,square1,i,0.1163,0,V,7.0
V7,21.0,92.0,66.0,82.0,70.0,92,1914.0,square1,i,0.1332,0,V,7.0
V7,22.0,92.0,64.0,83.0,72.0,92,2006.0,square1,i,0.3664,0,V,7.0
V7,23.0,91.0,68.0,82.0,73.0,91,2097.0,square1,i,0.3832,0,V,7.0
V7,24.0,87.0,71.0,82.0,72.0,87,2184.0,square1,i,0.1996,0,V,7.0
V7,25.0,91.0,68.0,90.0,74.0,91,2275.0,square1,i,0.3716,0,V,7.0
V7,26.0,89.0,65.0,83.0,72.0,89,2364.0,square1,i,0.0042,0,V,7.0
V7,27.0,91.0,61.0,81.0,73.0,91,2455.0,square1,i,0.3343,0,V,7.0
V7,28.0,90.0,66.0,81.0,72.0,81,2536.0,square3,r,0.3329,2,V,7.0
V7,29.0,89.0,67.0,77.0,71.0,77,2613.0,square3,r,0.1003,2,V,7.0
V7,30.0,95.0,68.0,84.0,71.0,84,2697.0,square3,r,0.0383,2,V,7.0
V7,31.0,95.0,61.0,81.0,70.0,81,2778.0,square3,r,0.0843,2,V,7.0
V7,32.0,89.0,65.0,82.0,75.0,82,2860.0,square3,r,0.4665,2,V,7.0
V7,33.0,77.0,50.0,80.0,61.0,80,2940.0,square3,r,0.25,2,V,7.0
V7,34.0,76.0,54.0,78.0,61.0,78,3018.0,square3,r,0.0567,2,V,7.0
V7,35.0,71.0,51.0,80.0,64.0,51,3069.0,square2,j,0.7029,1,V,7.0
V7,36.0,75.0,51.0,80.0,62.0,51,3120.0,square2,j,0.5003,1,V,7.0
V7,37.0,73.0,58.0,86.0,63.0,58,3178.0,square2,j,0.1334,1,V,7.0
V7,38.0,73.0,50.0,86.0,61.0,50,3228.0,square2,j,1.8416,1,V,7.0
V7,39.0,67.0,53.0,78.0,61.0,67,3295.0,square1,i,0.2834,0,V,7.0
V7,40.0,71.0,53.0,84.0,58.0,71,3366.0,square1,i,0.35,0,V,7.0
V7,41.0,75.0,51.0,83.0,63.0,83,3449.0,square3,r,0.3048,2,V,7.0
V7,42.0,69.0,48.0,87.0,63.0,87,3536.0,square3,r,0.3505,2,V,7.0
V7,43.0,70.0,58.0,81.0,60.0,81,3617.0,square3,r,0.2705,2,V,7.0
V7,44.0,68.0,56.0,76.0,63.0,76,3693.0,square3,r,0.0165,2,V,7.0
V7,45.0,74.0,59.0,76.0,56.0,56,3749.0,square4,f,0.05,3,V,7.0
V7,46.0,72.0,54.0,77.0,61.0,61,3810.0,square4,f,0.4003,3,V,7.0
V7,47.0,69.0,47.0,81.0,62.0,62,3872.0,square4,f,0.0242,3,V,7.0
V7,48.0,75.0,52.0,81.0,57.0,57,3929.0,square4,f,0.1,3,V,7.0
V7,49.0,74.0,55.0,78.0,60.0,60,3989.0,square4,f,0.4664,3,V,7.0
V7,50.0,71.0,51.0,80.0,61.0,61,4050.0,square4,f,0.1663,3,V,7.0
V7,51.0,75.0,55.0,85.0,62.0,62,4112.0,square4,f,0.0546,3,V,7.0
V7,52.0,75.0,59.0,76.0,59.0,59,4171.0,square4,f,0.0358,3,V,7.0
V7,53.0,72.0,53.0,84.0,66.0,53,4224.0,square2,j,0.4543,1,V,7.0
V7,54.0,69.0,51.0,81.0,60.0,51,4275.0,square2,j,0.1074,1,V,7.0
V7,55.0,74.0,56.0,75.0,54.0,74,4349.0,square1,i,0.0496,0,V,7.0
V7,56.0,76.0,51.0,83.0,58.0,76,4425.0,square1,i,0.0498,0,V,7.0
V7,57.0,71.0,53.0,80.0,64.0,71,4496.0,square1,i,0.5173,0,V,7.0
V7,58.0,81.0,56.0,79.0,61.0,81,4577.0,square1,i,0.4049,0,V,7.0
V7,59.0,71.0,55.0,83.0,59.0,71,4648.0,square1,i,0.1832,0,V,7.0
V7,60.0,73.0,53.0,83.0,64.0,73,4721.0,square1,i,0.3518,0,V,7.0
V7,61.0,70.0,53.0,77.0,63.0,70,4791.0,square1,i,0.2885,0,V,7.0
V7,62.0,71.0,54.0,76.0,61.0,76,4867.0,square3,r,0.4669,2,V,7.0
V7,63.0,68.0,45.0,79.0,65.0,79,4946.0,square3,r,0.1239,2,V,7.0
V7,64.0,65.0,55.0,79.0,59.0,79,5025.0,square3,r,0.4024,2,V,7.0
V7,65.0,74.0,54.0,81.0,61.0,81,5106.0,square3,r,0.5,2,V,7.0
V7,66.0,70.0,56.0,81.0,63.0,81,5187.0,square3,r,0.45,2,V,7.0
V7,67.0,70.0,85.0,64.0,92.0,85,5272.0,square2,j,0.3503,1,V,7.0
V7,68.0,73.0,85.0,68.0,92.0,85,5357.0,square2,j,0.3163,1,V,7.0
V7,69.0,75.0,83.0,70.0,91.0,83,5440.0,square2,j,0.3905,1,V,7.0
V7,70.0,75.0,85.0,69.0,91.0,85,5525.0,square2,j,0.0329,1,V,7.0
V7,71.0,71.0,86.0,65.0,94.0,86,5611.0,square2,j,0.4039,1,V,7.0
V7,72.0,77.0,86.0,65.0,98.0,86,5697.0,square2,j,0.0034,1,V,7.0
V7,73.0,77.0,84.0,63.0,94.0,84,5781.0,square2,j,0.4001,1,V,7.0
V7,74.0,71.0,86.0,64.0,91.0,86,5867.0,square2,j,0.4868,1,V,7.0
V7,75.0,73.0,90.0,60.0,90.0,90,5957.0,square2,j,0.4059,1,V,7.0
V7,76.0,79.0,84.0,68.0,95.0,84,6041.0,square2,j,0.0371,1,V,7.0
V7,77.0,73.0,85.0,66.0,89.0,85,6126.0,square2,j,0.4332,1,V,7.0
V7,78.0,75.0,82.0,67.0,91.0,82,6208.0,square2,j,0.0501,1,V,7.0
V7,79.0,72.0,85.0,60.0,90.0,85,6293.0,square2,j,0.0007,1,V,7.0
V7,80.0,73.0,83.0,66.0,97.0,83,6376.0,square2,j,0.4997,1,V,7.0
V7,81.0,73.0,84.0,67.0,92.0,84,6460.0,square2,j,0.0226,1,V,7.0
V7,82.0,69.0,84.0,65.0,91.0,84,6544.0,square2,j,0.0028,1,V,7.0
V7,83.0,76.0,83.0,72.0,99.0,83,6627.0,square2,j,0.0009,1,V,7.0
V7,84.0,72.0,84.0,70.0,94.0,84,6711.0,square2,j,0.4208,1,V,7.0
V7,85.0,77.0,83.0,67.0,88.0,83,6794.0,square2,j,0.0999,1,V,7.0
V7,86.0,76.0,80.0,67.0,90.0,80,6874.0,square2,j,0.4072,1,V,7.0
V7,87.0,70.0,86.0,67.0,95.0,86,6960.0,square2,j,0.0331,1,V,7.0
V7,88.0,76.0,84.0,67.0,100.0,84,7044.0,square2,j,0.0333,1,V,7.0
V7,89.0,71.0,88.0,60.0,97.0,88,7132.0,square2,j,0.4169,1,V,7.0
V7,90.0,69.0,82.0,71.0,95.0,82,7214.0,square2,j,0.0219,1,V,7.0
V7,91.0,80.0,84.0,65.0,92.0,84,7298.0,square2,j,0.0857,1,V,7.0
V7,92.0,77.0,85.0,68.0,85.0,77,7375.0,square1,i,0.3667,0,V,7.0
V7,93.0,72.0,84.0,66.0,91.0,66,7441.0,square3,r,0.302,2,V,7.0
V7,94.0,69.0,83.0,66.0,95.0,95,7536.0,square4,f,1.3174,3,V,7.0
V7,95.0,70.0,86.0,75.0,91.0,91,7627.0,square4,f,0.3331,3,V,7.0
V7,96.0,74.0,85.0,66.0,88.0,88,7715.0,square4,f,0.0831,3,V,7.0
V7,97.0,77.0,82.0,73.0,91.0,91,7806.0,square4,f,0.2501,3,V,7.0
V7,98.0,76.0,91.0,62.0,94.0,94,7900.0,square4,f,0.4207,3,V,7.0
V7,99.0,74.0,84.0,67.0,88.0,88,7988.0,square4,f,0.1381,3,V,7.0
V9,0.0,20.0,29.0,37.0,45.0,29,29.0,square2,r,1.2406,1,V,9.0
V9,1.0,21.0,32.0,39.0,45.0,45,74.0,square4,i,0.0236,3,V,9.0
V9,2.0,16.0,27.0,41.0,48.0,48,122.0,square4,i,0.0008,3,V,9.0
V9,3.0,20.0,30.0,42.0,50.0,20,142.0,square1,j,0.1831,0,V,9.0
V9,4.0,22.0,34.0,37.0,47.0,22,164.0,square1,j,0.25,0,V,9.0
V9,5.0,17.0,32.0,38.0,49.0,38,202.0,square3,f,0.2233,2,V,9.0
V9,6.0,17.0,25.0,39.0,47.0,39,241.0,square3,f,0.3367,2,V,9.0
V9,7.0,22.0,28.0,33.0,48.0,48,289.0,square4,i,0.3166,3,V,9.0
V9,8.0,20.0,24.0,34.0,41.0,41,330.0,square4,i,0.0007,3,V,9.0
V9,9.0,20.0,33.0,30.0,51.0,51,381.0,square4,i,0.3849,3,V,9.0
V9,10.0,21.0,35.0,38.0,50.0,50,431.0,square4,i,0.1171,3,V,9.0
V9,11.0,19.0,29.0,44.0,45.0,45,476.0,square4,i,0.538,3,V,9.0
V9,12.0,27.0,24.0,38.0,54.0,54,530.0,square4,i,0.0503,3,V,9.0
V9,13.0,15.0,26.0,37.0,50.0,50,580.0,square4,i,0.0835,3,V,9.0
V9,14.0,24.0,26.0,39.0,42.0,42,622.0,square4,i,0.0342,3,V,9.0
V9,15.0,26.0,27.0,43.0,49.0,49,671.0,square4,i,0.1169,3,V,9.0
V9,16.0,19.0,30.0,42.0,49.0,49,720.0,square4,i,0.3566,3,V,9.0
V9,17.0,21.0,30.0,34.0,49.0,49,769.0,square4,i,0.1054,3,V,9.0
V9,18.0,25.0,33.0,41.0,51.0,25,794.0,square1,j,0.2402,0,V,9.0
V9,19.0,17.0,31.0,41.0,45.0,17,811.0,square1,j,0.1345,0,V,9.0
V9,20.0,19.0,31.0,34.0,49.0,31,842.0,square2,r,0.4237,1,V,9.0
V9,21.0,23.0,29.0,37.0,48.0,29,871.0,square2,r,0.0879,1,V,9.0
V9,22.0,15.0,32.0,36.0,48.0,48,919.0,square4,i,0.0188,3,V,9.0
V9,23.0,25.0,33.0,39.0,47.0,47,966.0,square4,i,0.4893,3,V,9.0
V9,24.0,21.0,30.0,38.0,52.0,52,1018.0,square4,i,0.1373,3,V,9.0
V9,25.0,25.0,29.0,42.0,48.0,48,1066.0,square4,i,0.1371,3,V,9.0
V9,26.0,22.0,29.0,39.0,47.0,47,1113.0,square4,i,0.0051,3,V,9.0
V9,27.0,17.0,31.0,45.0,41.0,41,1154.0,square4,i,0.0166,3,V,9.0
V9,28.0,29.0,28.0,43.0,43.0,43,1197.0,square4,i,0.0333,3,V,9.0
V9,29.0,20.0,31.0,43.0,49.0,49,1246.0,square4,i,0.0006,3,V,9.0
V9,30.0,23.0,33.0,39.0,48.0,48,1294.0,square4,i,0.3543,3,V,9.0
V9,31.0,20.0,27.0,38.0,53.0,53,1347.0,square4,i,0.404,3,V,9.0
V9,32.0,23.0,29.0,37.0,49.0,37,1384.0,square3,f,0.1673,2,V,9.0
V9,33.0,24.0,33.0,37.0,49.0,37,1421.0,square3,f,0.3072,2,V,9.0
V9,34.0,43.0,58.0,48.0,30.0,48,1469.0,square3,f,0.1664,2,V,9.0
V9,35.0,48.0,59.0,45.0,34.0,34,1503.0,square4,i,0.4832,3,V,9.0
V9,36.0,39.0,56.0,54.0,32.0,32,1535.0,square4,i,0.0572,3,V,9.0
V9,37.0,40.0,57.0,50.0,35.0,50,1585.0,square3,f,0.0496,2,V,9.0
V9,38.0,49.0,62.0,51.0,33.0,51,1636.0,square3,f,0.6081,2,V,9.0
V9,39.0,45.0,61.0,48.0,34.0,48,1684.0,square3,f,0.0675,2,V,9.0
V9,40.0,40.0,65.0,51.0,29.0,51,1735.0,square3,f,0.0008,2,V,9.0
V9,41.0,44.0,57.0,50.0,38.0,50,1785.0,square3,f,0.0503,2,V,9.0
V9,42.0,40.0,57.0,49.0,33.0,49,1834.0,square3,f,0.0664,2,V,9.0
V9,43.0,42.0,64.0,54.0,35.0,54,1888.0,square3,f,0.1542,2,V,9.0
V9,44.0,44.0,55.0,49.0,39.0,49,1937.0,square3,f,0.4861,2,V,9.0
V9,45.0,37.0,66.0,51.0,35.0,51,1988.0,square3,f,0.1498,2,V,9.0
V9,46.0,40.0,59.0,51.0,32.0,51,2039.0,square3,f,0.1001,2,V,9.0
V9,47.0,38.0,62.0,57.0,31.0,57,2096.0,square3,f,0.0664,2,V,9.0
V9,48.0,43.0,61.0,54.0,34.0,54,2150.0,square3,f,0.1508,2,V,9.0
V9,49.0,43.0,61.0,49.0,40.0,49,2199.0,square3,f,0.0346,2,V,9.0
V9,50.0,37.0,58.0,51.0,32.0,51,2250.0,square3,f,0.136,2,V,9.0
V9,51.0,44.0,63.0,48.0,39.0,48,2298.0,square3,f,0.5519,2,V,9.0
V9,52.0,35.0,65.0,48.0,30.0,48,2346.0,square3,f,0.5662,2,V,9.0
V9,53.0,43.0,59.0,48.0,39.0,48,2394.0,square3,f,0.0829,2,V,9.0
V9,54.0,43.0,59.0,52.0,30.0,99999,2394.0,invalid,,,-1,V,9.0
V9,55.0,41.0,58.0,51.0,34.0,41,2435.0,square1,j,0.4393,0,V,9.0
V9,56.0,44.0,63.0,50.0,33.0,44,2479.0,square1,j,0.1169,0,V,9.0
V9,57.0,42.0,60.0,49.0,32.0,42,2521.0,square1,j,0.4166,0,V,9.0
V9,58.0,44.0,62.0,57.0,30.0,62,2583.0,square2,r,0.3334,1,V,9.0
V9,59.0,45.0,61.0,45.0,31.0,61,2644.0,square2,r,0.5508,1,V,9.0
V9,60.0,43.0,63.0,53.0,33.0,63,2707.0,square2,r,0.0879,1,V,9.0
V9,61.0,39.0,56.0,55.0,31.0,56,2763.0,square2,r,0.0663,1,V,9.0
V9,62.0,39.0,61.0,50.0,34.0,61,2824.0,square2,r,0.1169,1,V,9.0
V9,63.0,44.0,57.0,48.0,36.0,57,2881.0,square2,r,0.0501,1,V,9.0
V9,64.0,40.0,60.0,58.0,35.0,60,2941.0,square2,r,0.0734,1,V,9.0
V9,65.0,42.0,60.0,54.0,38.0,38,2979.0,square4,i,0.3231,3,V,9.0
V9,66.0,41.0,60.0,54.0,37.0,60,3039.0,square2,r,0.3169,1,V,9.0
V9,67.0,43.0,61.0,54.0,40.0,61,3100.0,square2,r,0.2001,1,V,9.0
V9,68.0,45.0,40.0,26.0,18.0,40,3140.0,square2,r,0.1172,1,V,9.0
V9,69.0,50.0,41.0,29.0,20.0,41,3181.0,square2,r,0.2496,1,V,9.0
V9,70.0,43.0,36.0,27.0,15.0,43,3224.0,square1,j,1.2834,0,V,9.0
V9,71.0,44.0,40.0,28.0,18.0,44,3268.0,square1,j,0.5335,0,V,9.0
V9,72.0,42.0,38.0,27.0,18.0,42,3310.0,square1,j,0.1331,0,V,9.0
V9,73.0,46.0,33.0,25.0,19.0,46,3356.0,square1,j,0.0869,0,V,9.0
V9,74.0,47.0,40.0,28.0,20.0,28,3384.0,square3,f,0.4399,2,V,9.0
V9,75.0,39.0,39.0,27.0,25.0,27,3411.0,square3,f,0.0899,2,V,9.0
V9,76.0,50.0,31.0,29.0,23.0,23,3434.0,square4,i,0.4332,3,V,9.0
V9,77.0,44.0,37.0,28.0,13.0,37,3471.0,square2,r,0.269,1,V,9.0
V9,78.0,43.0,36.0,23.0,17.0,36,3507.0,square2,r,0.0462,1,V,9.0
V9,79.0,42.0,36.0,28.0,24.0,42,3549.0,square1,j,0.0168,0,V,9.0
V9,80.0,47.0,35.0,30.0,14.0,47,3596.0,square1,j,0.0166,0,V,9.0
V9,81.0,46.0,33.0,29.0,18.0,46,3642.0,square1,j,0.2171,0,V,9.0
V9,82.0,46.0,35.0,28.0,18.0,28,3670.0,square3,f,0.0202,2,V,9.0
V9,83.0,47.0,41.0,32.0,15.0,47,3717.0,square1,j,0.3001,0,V,9.0
V9,84.0,45.0,38.0,31.0,18.0,45,3762.0,square1,j,0.3001,0,V,9.0
V9,85.0,42.0,35.0,30.0,21.0,42,3804.0,square1,j,0.3722,0,V,9.0
V9,86.0,49.0,39.0,23.0,18.0,18,3822.0,square4,i,0.2533,3,V,9.0
V9,87.0,49.0,39.0,27.0,16.0,39,3861.0,square2,r,0.3837,1,V,9.0
V9,88.0,45.0,38.0,25.0,14.0,38,3899.0,square2,r,0.0169,1,V,9.0
V9,89.0,45.0,32.0,28.0,19.0,32,3931.0,square2,r,0.4331,1,V,9.0
V9,90.0,44.0,35.0,29.0,20.0,29,3960.0,square3,f,0.4167,2,V,9.0
V9,91.0,42.0,38.0,32.0,16.0,42,4002.0,square1,j,0.4212,0,V,9.0
V9,92.0,45.0,36.0,23.0,20.0,45,4047.0,square1,j,0.4532,0,V,9.0
V9,93.0,45.0,35.0,26.0,18.0,45,4092.0,square1,j,0.0837,0,V,9.0
V9,94.0,44.0,37.0,27.0,13.0,44,4136.0,square1,j,0.0161,0,V,9.0
V9,95.0,46.0,36.0,25.0,20.0,46,4182.0,square1,j,0.0666,0,V,9.0
V9,96.0,43.0,39.0,27.0,16.0,43,4225.0,square1,j,0.5146,0,V,9.0
V9,97.0,48.0,39.0,30.0,16.0,48,4273.0,square1,j,0.5332,0,V,9.0
V9,98.0,49.0,40.0,26.0,20.0,49,4322.0,square1,j,0.1496,0,V,9.0
V9,99.0,49.0,41.0,27.0,18.0,49,4371.0,square1,j,0.4525,0,V,9.0
