block,Trial,square1,square2,square3,square4,currPoints,totalPoints,square,choiceKey.keys,choiceKey.rt,armNum,blockType,blockNum
prac,0.0,100.0,0.0,0.0,0.0,0,0.0,square3,,,2,p,0.0
prac,1.0,100.0,0.0,0.0,0.0,0,0.0,square4,,,3,p,0.0
prac,2.0,100.0,0.0,0.0,0.0,100,100.0,square1,,,0,p,0.0
prac,3.0,100.0,0.0,0.0,0.0,0,100.0,square2,,,1,p,0.0
prac,4.0,100.0,0.0,0.0,0.0,100,200.0,square1,,,0,p,0.0
prac,5.0,100.0,0.0,0.0,0.0,100,300.0,square1,,,0,p,0.0
prac,6.0,100.0,0.0,0.0,0.0,0,300.0,square3,,,2,p,0.0
prac,7.0,100.0,0.0,0.0,0.0,100,400.0,square1,,,0,p,0.0
prac,8.0,100.0,0.0,0.0,0.0,100,500.0,square1,,,0,p,0.0
prac,9.0,100.0,0.0,0.0,0.0,100,600.0,square1,,,0,p,0.0
S4,0.0,18.0,16.0,34.0,20.0,16,16.0,square2,r,1.409,1,S,4.0
S4,1.0,33.0,26.0,26.0,23.0,26,42.0,square3,i,0.001,2,S,4.0
S4,2.0,35.0,15.0,33.0,22.0,22,64.0,square4,j,0.54,3,S,4.0
S4,3.0,28.0,19.0,27.0,27.0,28,92.0,square1,f,0.364,0,S,4.0
S4,4.0,27.0,16.0,25.0,28.0,25,117.0,square3,i,0.325,2,S,4.0
S4,5.0,23.0,22.0,31.0,24.0,22,139.0,square2,r,0.524,1,S,4.0
S4,6.0,25.0,20.0,34.0,23.0,34,173.0,square3,i,0.344,2,S,4.0
S4,7.0,21.0,22.0,30.0,21.0,30,203.0,square3,i,0.236,2,S,4.0
S4,8.0,33.0,24.0,33.0,17.0,24,227.0,square2,r,0.362,1,S,4.0
S4,9.0,24.0,18.0,31.0,28.0,31,258.0,square3,i,0.212,2,S,4.0
S4,10.0,31.0,26.0,35.0,20.0,20,278.0,square4,j,0.111,3,S,4.0
S4,11.0,25.0,15.0,31.0,25.0,25,303.0,square1,f,0.649,0,S,4.0
S4,12.0,24.0,16.0,29.0,22.0,29,332.0,square3,i,0.049,2,S,4.0
S4,13.0,28.0,23.0,25.0,17.0,25,357.0,square3,i,0.146,2,S,4.0
S4,14.0,22.0,23.0,21.0,23.0,23,380.0,square2,r,0.102,1,S,4.0
S4,15.0,25.0,19.0,28.0,25.0,28,408.0,square3,i,0.481,2,S,4.0
S4,16.0,26.0,17.0,30.0,21.0,30,438.0,square3,i,0.163,2,S,4.0
S4,17.0,22.0,21.0,29.0,22.0,22,460.0,square1,f,0.248,0,S,4.0
S4,18.0,28.0,22.0,32.0,22.0,22,482.0,square4,j,0.079,3,S,4.0
S4,19.0,26.0,19.0,31.0,26.0,31,513.0,square3,i,0.631,2,S,4.0
S4,20.0,28.0,18.0,28.0,25.0,28,541.0,square3,i,0.1,2,S,4.0
S4,21.0,33.0,26.0,21.0,29.0,21,562.0,square3,i,0.179,2,S,4.0
S4,22.0,31.0,19.0,29.0,20.0,29,591.0,square3,i,0.095,2,S,4.0
S4,23.0,27.0,21.0,36.0,26.0,36,627.0,square3,i,0.083,2,S,4.0
S4,24.0,28.0,15.0,32.0,21.0,32,659.0,square3,i,0.043,2,S,4.0
S4,25.0,27.0,18.0,28.0,25.0,28,687.0,square3,i,0.722,2,S,4.0
S4,26.0,26.0,20.0,27.0,14.0,20,707.0,square2,r,0.413,1,S,4.0
S4,27.0,28.0,19.0,36.0,18.0,36,743.0,square3,i,0.312,2,S,4.0
S4,28.0,28.0,19.0,28.0,23.0,28,771.0,square3,i,0.266,2,S,4.0
S4,29.0,25.0,22.0,29.0,23.0,29,800.0,square3,i,0.248,2,S,4.0
S4,30.0,26.0,16.0,30.0,20.0,30,830.0,square3,i,0.161,2,S,4.0
S4,31.0,23.0,25.0,26.0,30.0,26,856.0,square3,i,0.21,2,S,4.0
S4,32.0,21.0,26.0,22.0,23.0,22,878.0,square3,i,0.186,2,S,4.0
S4,33.0,25.0,22.0,24.0,17.0,24,902.0,square3,i,0.095,2,S,4.0
S4,34.0,30.0,22.0,33.0,24.0,24,926.0,square4,j,0.734,3,S,4.0
S4,35.0,23.0,21.0,35.0,26.0,23,949.0,square1,f,0.15,0,S,4.0
S4,36.0,19.0,21.0,33.0,24.0,21,970.0,square2,r,0.13,1,S,4.0
S4,37.0,20.0,17.0,26.0,26.0,26,996.0,square4,j,0.076,3,S,4.0
S4,38.0,28.0,20.0,28.0,26.0,28,1024.0,square3,i,0.059,2,S,4.0
S4,39.0,28.0,23.0,40.0,27.0,40,1064.0,square3,i,0.177,2,S,4.0
S4,40.0,25.0,24.0,32.0,22.0,32,1096.0,square3,i,0.028,2,S,4.0
S4,41.0,23.0,23.0,26.0,17.0,26,1122.0,square3,i,0.158,2,S,4.0
S4,42.0,26.0,18.0,33.0,22.0,22,1144.0,square4,j,0.095,3,S,4.0
S4,43.0,22.0,21.0,36.0,25.0,36,1180.0,square3,i,0.013,2,S,4.0
S4,44.0,21.0,18.0,33.0,14.0,21,1201.0,square1,f,0.199,0,S,4.0
S4,45.0,29.0,19.0,30.0,29.0,19,1220.0,square2,r,0.133,1,S,4.0
S4,46.0,21.0,16.0,22.0,23.0,22,1242.0,square3,i,0.463,2,S,4.0
S4,47.0,22.0,18.0,28.0,22.0,28,1270.0,square3,i,0.137,2,S,4.0
S4,48.0,33.0,21.0,32.0,26.0,26,1296.0,square4,j,0.118,3,S,4.0
S4,49.0,23.0,17.0,20.0,21.0,20,1316.0,square3,i,0.054,2,S,4.0
S10,0.0,72.0,76.0,80.0,64.0,64,64.0,square4,i,0.619,3,S,10.0
S10,1.0,76.0,75.0,74.0,65.0,74,138.0,square3,r,0.116,2,S,10.0
S10,2.0,70.0,72.0,79.0,74.0,70,208.0,square1,j,0.085,0,S,10.0
S10,3.0,69.0,77.0,76.0,68.0,77,285.0,square2,f,0.544,1,S,10.0
S10,4.0,72.0,79.0,77.0,70.0,77,362.0,square3,r,0.113,2,S,10.0
S10,5.0,68.0,74.0,72.0,64.0,74,436.0,square2,f,0.009,1,S,10.0
S10,6.0,70.0,77.0,72.0,62.0,72,508.0,square3,r,0.061,2,S,10.0
S10,7.0,78.0,81.0,80.0,74.0,74,582.0,square4,i,0.335,3,S,10.0
S10,8.0,78.0,78.0,82.0,66.0,78,660.0,square1,j,0.248,0,S,10.0
S10,9.0,69.0,76.0,77.0,65.0,69,729.0,square1,j,0.208,0,S,10.0
S10,10.0,72.0,78.0,72.0,75.0,72,801.0,square3,r,0.098,2,S,10.0
S10,11.0,71.0,76.0,78.0,66.0,76,877.0,square2,f,0.035,1,S,10.0
S10,12.0,73.0,83.0,79.0,69.0,83,960.0,square2,f,0.056,1,S,10.0
S10,13.0,68.0,77.0,65.0,65.0,77,1037.0,square2,f,0.105,1,S,10.0
S10,14.0,69.0,84.0,79.0,65.0,84,1121.0,square2,f,0.148,1,S,10.0
S10,15.0,72.0,84.0,70.0,71.0,70,1191.0,square3,r,0.075,2,S,10.0
S10,16.0,79.0,80.0,82.0,67.0,80,1271.0,square2,f,0.056,1,S,10.0
S10,17.0,69.0,83.0,75.0,70.0,83,1354.0,square2,f,0.03,1,S,10.0
S10,18.0,69.0,75.0,69.0,68.0,75,1429.0,square2,f,0.112,1,S,10.0
S10,19.0,70.0,83.0,73.0,66.0,66,1495.0,square4,i,0.582,3,S,10.0
S10,20.0,69.0,83.0,75.0,66.0,69,1564.0,square1,j,0.001,0,S,10.0
S10,21.0,77.0,70.0,75.0,70.0,75,1639.0,square3,r,0.12,2,S,10.0
S10,22.0,73.0,77.0,81.0,69.0,77,1716.0,square2,f,0.311,1,S,10.0
S10,23.0,73.0,78.0,70.0,65.0,78,1794.0,square2,f,0.128,1,S,10.0
S10,24.0,70.0,80.0,75.0,66.0,80,1874.0,square2,f,0.73,1,S,10.0
S10,25.0,70.0,80.0,73.0,72.0,73,1947.0,square3,r,0.049,2,S,10.0
S10,26.0,73.0,75.0,73.0,75.0,75,2022.0,square2,f,0.277,1,S,10.0
S10,27.0,77.0,81.0,83.0,66.0,77,2099.0,square1,j,0.15,0,S,10.0
S10,28.0,73.0,79.0,79.0,73.0,79,2178.0,square2,f,0.384,1,S,10.0
S10,29.0,73.0,79.0,72.0,69.0,72,2250.0,square3,r,0.062,2,S,10.0
S10,30.0,71.0,85.0,79.0,69.0,85,2335.0,square2,f,0.066,1,S,10.0
S10,31.0,71.0,85.0,83.0,66.0,85,2420.0,square2,f,0.128,1,S,10.0
S10,32.0,78.0,79.0,77.0,65.0,79,2499.0,square2,f,0.034,1,S,10.0
S10,33.0,83.0,79.0,72.0,68.0,83,2582.0,square1,j,0.089,0,S,10.0
S10,34.0,68.0,74.0,79.0,72.0,74,2656.0,square2,f,0.382,1,S,10.0
S10,35.0,70.0,83.0,79.0,67.0,79,2735.0,square3,r,0.094,2,S,10.0
S10,36.0,67.0,76.0,75.0,72.0,75,2810.0,square3,r,0.079,2,S,10.0
S10,37.0,76.0,82.0,79.0,60.0,79,2889.0,square3,r,0.095,2,S,10.0
S10,38.0,72.0,75.0,69.0,68.0,69,2958.0,square3,r,0.131,2,S,10.0
S10,39.0,73.0,78.0,76.0,70.0,70,3028.0,square4,i,0.272,3,S,10.0
S10,40.0,76.0,77.0,66.0,60.0,77,3105.0,square2,f,0.377,1,S,10.0
S10,41.0,74.0,83.0,73.0,67.0,67,3172.0,square4,i,0.098,3,S,10.0
S10,42.0,72.0,69.0,80.0,63.0,63,3235.0,square4,i,0.241,3,S,10.0
S10,43.0,69.0,74.0,72.0,68.0,69,3304.0,square1,j,0.217,0,S,10.0
S10,44.0,67.0,76.0,70.0,65.0,76,3380.0,square2,f,0.089,1,S,10.0
S10,45.0,76.0,81.0,74.0,72.0,74,3454.0,square3,r,0.4,2,S,10.0
S10,46.0,76.0,79.0,76.0,66.0,79,3533.0,square2,f,0.233,1,S,10.0
S10,47.0,67.0,81.0,84.0,60.0,81,3614.0,square2,f,0.111,1,S,10.0
S10,48.0,73.0,83.0,75.0,66.0,83,3697.0,square2,f,0.03,1,S,10.0
S10,49.0,66.0,77.0,74.0,71.0,77,3774.0,square2,f,0.029,1,S,10.0
S2,0.0,62.0,57.0,71.0,74.0,57,57.0,square2,r,0.555,1,S,2.0
S2,1.0,64.0,59.0,72.0,67.0,72,129.0,square3,i,0.026,2,S,2.0
S2,2.0,68.0,57.0,75.0,68.0,75,204.0,square3,i,0.281,2,S,2.0
S2,3.0,69.0,57.0,80.0,70.0,70,274.0,square4,j,0.028,3,S,2.0
S2,4.0,66.0,60.0,74.0,68.0,66,340.0,square1,f,0.017,0,S,2.0
S2,5.0,63.0,62.0,77.0,72.0,62,402.0,square2,r,0.028,1,S,2.0
S2,6.0,69.0,61.0,75.0,74.0,75,477.0,square3,i,0.063,2,S,2.0
S2,7.0,74.0,66.0,79.0,72.0,79,556.0,square3,i,0.077,2,S,2.0
S2,8.0,81.0,65.0,76.0,72.0,76,632.0,square3,i,0.113,2,S,2.0
S2,9.0,70.0,66.0,78.0,70.0,78,710.0,square3,i,0.13,2,S,2.0
S2,10.0,70.0,72.0,70.0,74.0,74,784.0,square4,j,0.165,3,S,2.0
S2,11.0,64.0,66.0,72.0,67.0,72,856.0,square3,i,0.001,2,S,2.0
S2,12.0,66.0,57.0,70.0,67.0,67,923.0,square4,j,0.544,3,S,2.0
S2,13.0,68.0,68.0,71.0,73.0,71,994.0,square3,i,0.03,2,S,2.0
S2,14.0,70.0,63.0,77.0,71.0,77,1071.0,square3,i,0.354,2,S,2.0
S2,15.0,64.0,66.0,75.0,66.0,66,1137.0,square2,r,0.075,1,S,2.0
S2,16.0,67.0,61.0,73.0,70.0,67,1204.0,square1,f,0.041,0,S,2.0
S2,17.0,65.0,58.0,71.0,75.0,71,1275.0,square3,i,0.462,2,S,2.0
S2,18.0,72.0,64.0,81.0,61.0,81,1356.0,square3,i,0.051,2,S,2.0
S2,19.0,60.0,63.0,72.0,65.0,72,1428.0,square3,i,0.033,2,S,2.0
S2,20.0,68.0,56.0,71.0,70.0,71,1499.0,square3,i,0.001,2,S,2.0
S2,21.0,65.0,65.0,74.0,71.0,74,1573.0,square3,i,0.051,2,S,2.0
S2,22.0,69.0,62.0,77.0,72.0,77,1650.0,square3,i,0.551,2,S,2.0
S2,23.0,64.0,71.0,74.0,65.0,74,1724.0,square3,i,0.063,2,S,2.0
S2,24.0,66.0,62.0,78.0,70.0,78,1802.0,square3,i,0.326,2,S,2.0
S2,25.0,67.0,69.0,76.0,66.0,66,1868.0,square4,j,0.113,3,S,2.0
S2,26.0,65.0,63.0,74.0,69.0,74,1942.0,square3,i,0.001,2,S,2.0
S2,27.0,68.0,64.0,67.0,68.0,64,2006.0,square2,r,0.244,1,S,2.0
S2,28.0,61.0,52.0,71.0,68.0,61,2067.0,square1,f,0.242,0,S,2.0
S2,29.0,67.0,64.0,73.0,69.0,73,2140.0,square3,i,0.001,2,S,2.0
S2,30.0,67.0,53.0,77.0,67.0,77,2217.0,square3,i,0.001,2,S,2.0
S2,31.0,67.0,69.0,69.0,68.0,69,2286.0,square3,i,0.783,2,S,2.0
S2,32.0,71.0,63.0,73.0,70.0,70,2356.0,square4,j,0.275,3,S,2.0
S2,33.0,61.0,65.0,68.0,71.0,68,2424.0,square3,i,0.027,2,S,2.0
S2,34.0,66.0,55.0,78.0,68.0,68,2492.0,square4,j,0.17,3,S,2.0
S2,35.0,60.0,57.0,66.0,66.0,66,2558.0,square4,j,0.203,3,S,2.0
S2,36.0,64.0,63.0,73.0,72.0,72,2630.0,square4,j,0.133,3,S,2.0
S2,37.0,65.0,62.0,75.0,68.0,75,2705.0,square3,i,0.311,2,S,2.0
S2,38.0,69.0,57.0,71.0,62.0,71,2776.0,square3,i,0.303,2,S,2.0
S2,39.0,72.0,66.0,74.0,74.0,74,2850.0,square3,i,0.29,2,S,2.0
S2,40.0,66.0,63.0,76.0,59.0,76,2926.0,square3,i,0.294,2,S,2.0
S2,41.0,74.0,64.0,67.0,76.0,76,3002.0,square4,j,0.363,3,S,2.0
S2,42.0,62.0,67.0,72.0,68.0,68,3070.0,square4,j,0.343,3,S,2.0
S2,43.0,69.0,63.0,75.0,71.0,75,3145.0,square3,i,0.262,2,S,2.0
S2,44.0,72.0,60.0,74.0,67.0,74,3219.0,square3,i,0.319,2,S,2.0
S2,45.0,69.0,63.0,76.0,73.0,76,3295.0,square3,i,0.33,2,S,2.0
S2,46.0,64.0,71.0,75.0,72.0,72,3367.0,square4,j,0.338,3,S,2.0
S2,47.0,75.0,62.0,75.0,69.0,75,3442.0,square3,i,0.23,2,S,2.0
S2,48.0,66.0,65.0,74.0,68.0,74,3516.0,square3,i,0.295,2,S,2.0
S2,49.0,67.0,64.0,72.0,76.0,72,3588.0,square3,i,0.296,2,S,2.0
S7,0.0,68.0,73.0,62.0,57.0,68,68.0,square1,i,0.543,0,S,7.0
S7,1.0,74.0,67.0,66.0,59.0,59,127.0,square4,r,0.293,3,S,7.0
S7,2.0,68.0,69.0,65.0,60.0,69,196.0,square2,f,0.052,1,S,7.0
S7,3.0,74.0,68.0,65.0,63.0,65,261.0,square3,j,0.23,2,S,7.0
S7,4.0,68.0,74.0,67.0,63.0,74,335.0,square2,f,0.138,1,S,7.0
S7,5.0,68.0,67.0,61.0,57.0,68,403.0,square1,i,0.21,0,S,7.0
S7,6.0,72.0,64.0,65.0,51.0,64,467.0,square2,f,0.144,1,S,7.0
S7,7.0,69.0,63.0,69.0,63.0,69,536.0,square1,i,0.141,0,S,7.0
S7,8.0,71.0,68.0,63.0,54.0,68,604.0,square2,f,0.196,1,S,7.0
S7,9.0,81.0,66.0,68.0,62.0,81,685.0,square1,i,0.126,0,S,7.0
S7,10.0,72.0,73.0,68.0,61.0,72,757.0,square1,i,0.198,0,S,7.0
S7,11.0,72.0,72.0,62.0,58.0,72,829.0,square1,i,0.717,0,S,7.0
S7,12.0,66.0,66.0,62.0,61.0,66,895.0,square2,f,0.397,1,S,7.0
S7,13.0,73.0,75.0,75.0,68.0,73,968.0,square1,i,0.175,0,S,7.0
S7,14.0,71.0,73.0,72.0,66.0,66,1034.0,square4,r,0.058,3,S,7.0
S7,15.0,75.0,68.0,68.0,65.0,68,1102.0,square3,j,0.167,2,S,7.0
S7,16.0,67.0,65.0,62.0,56.0,67,1169.0,square1,i,0.137,0,S,7.0
S7,17.0,72.0,67.0,63.0,64.0,67,1236.0,square2,f,0.293,1,S,7.0
S7,18.0,73.0,69.0,66.0,65.0,73,1309.0,square1,i,0.177,0,S,7.0
S7,19.0,75.0,70.0,62.0,58.0,75,1384.0,square1,i,0.293,0,S,7.0
S7,20.0,76.0,63.0,67.0,62.0,76,1460.0,square1,i,0.331,0,S,7.0
S7,21.0,79.0,76.0,63.0,64.0,64,1524.0,square4,r,0.289,3,S,7.0
S7,22.0,67.0,72.0,63.0,62.0,63,1587.0,square3,j,0.28,2,S,7.0
S7,23.0,69.0,71.0,70.0,62.0,71,1658.0,square2,f,0.245,1,S,7.0
S7,24.0,74.0,67.0,70.0,62.0,74,1732.0,square1,i,0.283,0,S,7.0
S7,25.0,70.0,67.0,72.0,62.0,70,1802.0,square1,i,0.361,0,S,7.0
S7,26.0,72.0,62.0,74.0,65.0,72,1874.0,square1,i,0.36,0,S,7.0
S7,27.0,69.0,70.0,68.0,62.0,69,1943.0,square1,i,0.305,0,S,7.0
S7,28.0,65.0,66.0,60.0,62.0,66,2009.0,square2,f,0.246,1,S,7.0
S7,29.0,70.0,64.0,60.0,68.0,70,2079.0,square1,i,0.266,0,S,7.0
S7,30.0,69.0,69.0,64.0,57.0,69,2148.0,square1,i,0.286,0,S,7.0
S7,31.0,77.0,67.0,65.0,60.0,60,2208.0,square4,r,0.266,3,S,7.0
S7,32.0,67.0,75.0,65.0,58.0,67,2275.0,square1,i,0.278,0,S,7.0
S7,33.0,74.0,66.0,66.0,60.0,66,2341.0,square2,f,0.283,1,S,7.0
S7,34.0,72.0,72.0,66.0,61.0,66,2407.0,square3,j,0.293,2,S,7.0
S7,35.0,67.0,68.0,64.0,62.0,67,2474.0,square1,i,0.212,0,S,7.0
S7,36.0,64.0,63.0,70.0,58.0,64,2538.0,square1,i,0.203,0,S,7.0
S7,37.0,80.0,72.0,64.0,53.0,72,2610.0,square2,f,0.961,1,S,7.0
S7,38.0,78.0,69.0,76.0,67.0,69,2679.0,square2,f,0.358,1,S,7.0
S7,39.0,69.0,66.0,60.0,67.0,66,2745.0,square2,f,0.309,1,S,7.0
S7,40.0,72.0,71.0,63.0,66.0,71,2816.0,square2,f,0.33,1,S,7.0
S7,41.0,80.0,73.0,65.0,63.0,73,2889.0,square2,f,0.277,1,S,7.0
S7,42.0,77.0,60.0,65.0,59.0,60,2949.0,square2,f,0.337,1,S,7.0
S7,43.0,70.0,72.0,70.0,63.0,70,3019.0,square1,i,0.235,0,S,7.0
S7,44.0,77.0,70.0,66.0,58.0,77,3096.0,square1,i,0.194,0,S,7.0
S7,45.0,75.0,69.0,73.0,58.0,75,3171.0,square1,i,0.219,0,S,7.0
S7,46.0,74.0,71.0,63.0,63.0,74,3245.0,square1,i,0.305,0,S,7.0
S7,47.0,73.0,75.0,71.0,64.0,73,3318.0,square1,i,0.262,0,S,7.0
S7,48.0,78.0,79.0,64.0,58.0,78,3396.0,square1,i,0.311,0,S,7.0
S7,49.0,75.0,72.0,66.0,72.0,75,3471.0,square1,i,0.298,0,S,7.0
S1,0.0,72.0,58.0,70.0,66.0,70,70.0,square3,i,1.462,2,S,1.0
S1,1.0,75.0,64.0,66.0,69.0,75,145.0,square1,r,0.293,0,S,1.0
S1,2.0,75.0,62.0,62.0,79.0,62,207.0,square2,j,0.284,1,S,1.0
S1,3.0,68.0,62.0,63.0,69.0,69,276.0,square4,f,0.367,3,S,1.0
S1,4.0,82.0,63.0,64.0,73.0,64,340.0,square3,i,0.379,2,S,1.0
S1,5.0,66.0,70.0,65.0,73.0,66,406.0,square1,r,0.308,0,S,1.0
S1,6.0,73.0,65.0,62.0,65.0,65,471.0,square2,j,0.314,1,S,1.0
S1,7.0,70.0,61.0,65.0,66.0,66,537.0,square4,f,0.283,3,S,1.0
S1,8.0,78.0,63.0,67.0,68.0,67,604.0,square3,i,0.316,2,S,1.0
S1,9.0,74.0,67.0,66.0,68.0,74,678.0,square1,r,0.279,0,S,1.0
S1,10.0,73.0,59.0,68.0,68.0,73,751.0,square1,r,0.41,0,S,1.0
S1,11.0,76.0,65.0,62.0,81.0,76,827.0,square1,r,0.233,0,S,1.0
S1,12.0,77.0,66.0,69.0,63.0,77,904.0,square1,r,0.228,0,S,1.0
S1,13.0,75.0,63.0,68.0,73.0,75,979.0,square1,r,0.078,0,S,1.0
S1,14.0,67.0,60.0,67.0,69.0,67,1046.0,square1,r,0.162,0,S,1.0
S1,15.0,70.0,63.0,69.0,73.0,70,1116.0,square1,r,0.036,0,S,1.0
S1,16.0,69.0,61.0,69.0,69.0,69,1185.0,square1,r,0.068,0,S,1.0
S1,17.0,73.0,68.0,67.0,73.0,73,1258.0,square1,r,0.028,0,S,1.0
S1,18.0,70.0,58.0,73.0,66.0,70,1328.0,square1,r,0.043,0,S,1.0
S1,19.0,75.0,58.0,62.0,68.0,75,1403.0,square1,r,0.029,0,S,1.0
S1,20.0,76.0,58.0,72.0,67.0,76,1479.0,square1,r,0.075,0,S,1.0
S1,21.0,69.0,66.0,66.0,67.0,69,1548.0,square1,r,0.158,0,S,1.0
S1,22.0,70.0,68.0,65.0,65.0,70,1618.0,square1,r,0.001,0,S,1.0
S1,23.0,71.0,60.0,64.0,64.0,71,1689.0,square1,r,0.048,0,S,1.0
S1,24.0,70.0,72.0,62.0,67.0,70,1759.0,square1,r,0.094,0,S,1.0
S1,25.0,68.0,60.0,70.0,65.0,68,1827.0,square1,r,0.045,0,S,1.0
S1,26.0,76.0,64.0,72.0,69.0,76,1903.0,square1,r,0.096,0,S,1.0
S1,27.0,71.0,56.0,70.0,65.0,71,1974.0,square1,r,0.027,0,S,1.0
S1,28.0,67.0,67.0,71.0,76.0,67,2041.0,square1,r,0.162,0,S,1.0
S1,29.0,78.0,64.0,64.0,74.0,78,2119.0,square1,r,0.095,0,S,1.0
S1,30.0,74.0,63.0,65.0,71.0,74,2193.0,square1,r,0.114,0,S,1.0
S1,31.0,78.0,58.0,69.0,69.0,78,2271.0,square1,r,0.223,0,S,1.0
S1,32.0,71.0,67.0,68.0,60.0,71,2342.0,square1,r,0.099,0,S,1.0
S1,33.0,68.0,63.0,65.0,73.0,68,2410.0,square1,r,0.0,0,S,1.0
S1,34.0,71.0,62.0,74.0,73.0,62,2472.0,square2,j,0.462,1,S,1.0
S1,35.0,75.0,59.0,67.0,77.0,67,2539.0,square3,i,0.344,2,S,1.0
S1,36.0,77.0,60.0,66.0,67.0,67,2606.0,square4,f,0.363,3,S,1.0
S1,37.0,69.0,60.0,69.0,75.0,75,2681.0,square4,f,0.048,3,S,1.0
S1,38.0,77.0,64.0,62.0,70.0,70,2751.0,square4,f,0.141,3,S,1.0
S1,39.0,72.0,66.0,69.0,65.0,65,2816.0,square4,f,0.247,3,S,1.0
S1,40.0,69.0,63.0,66.0,69.0,69,2885.0,square4,f,0.534,3,S,1.0
S1,41.0,72.0,62.0,70.0,70.0,70,2955.0,square3,i,0.344,2,S,1.0
S1,42.0,78.0,60.0,63.0,62.0,63,3018.0,square3,i,0.291,2,S,1.0
S1,43.0,71.0,62.0,67.0,73.0,71,3089.0,square1,r,0.332,0,S,1.0
S1,44.0,75.0,63.0,69.0,73.0,75,3164.0,square1,r,0.258,0,S,1.0
S1,45.0,66.0,60.0,68.0,73.0,66,3230.0,square1,r,0.156,0,S,1.0
S1,46.0,74.0,67.0,69.0,71.0,74,3304.0,square1,r,0.007,0,S,1.0
S1,47.0,71.0,66.0,68.0,70.0,71,3375.0,square1,r,0.21,0,S,1.0
S1,48.0,72.0,75.0,71.0,77.0,72,3447.0,square1,r,0.177,0,S,1.0
S1,49.0,65.0,57.0,66.0,75.0,65,3512.0,square1,r,0.198,0,S,1.0
S5,0.0,90.0,70.0,79.0,84.0,70,70.0,square2,i,0.905,1,S,5.0
S5,1.0,92.0,77.0,83.0,81.0,81,151.0,square4,r,0.394,3,S,5.0
S5,2.0,83.0,72.0,81.0,76.0,76,227.0,square4,r,0.328,3,S,5.0
S5,3.0,87.0,72.0,79.0,81.0,79,306.0,square3,f,0.13,2,S,5.0
S5,4.0,86.0,81.0,78.0,72.0,86,392.0,square1,j,0.353,0,S,5.0
S5,5.0,89.0,70.0,79.0,83.0,89,481.0,square1,j,0.316,0,S,5.0
S5,6.0,86.0,69.0,81.0,81.0,86,567.0,square1,j,0.293,0,S,5.0
S5,7.0,82.0,72.0,86.0,80.0,82,649.0,square1,j,0.286,0,S,5.0
S5,8.0,84.0,67.0,80.0,77.0,80,729.0,square3,f,0.341,2,S,5.0
S5,9.0,92.0,80.0,86.0,84.0,86,815.0,square3,f,0.512,2,S,5.0
S5,10.0,82.0,71.0,80.0,80.0,80,895.0,square3,f,0.345,2,S,5.0
S5,11.0,80.0,75.0,79.0,75.0,75,970.0,square4,r,0.281,3,S,5.0
S5,12.0,84.0,75.0,80.0,82.0,75,1045.0,square2,i,0.33,1,S,5.0
S5,13.0,85.0,74.0,74.0,81.0,85,1130.0,square1,j,0.431,0,S,5.0
S5,14.0,81.0,79.0,85.0,81.0,81,1211.0,square1,j,0.351,0,S,5.0
S5,15.0,81.0,75.0,76.0,77.0,81,1292.0,square1,j,0.328,0,S,5.0
S5,16.0,86.0,74.0,78.0,74.0,86,1378.0,square1,j,0.321,0,S,5.0
S5,17.0,81.0,77.0,81.0,77.0,81,1459.0,square1,j,0.319,0,S,5.0
S5,18.0,87.0,70.0,84.0,82.0,87,1546.0,square1,j,0.332,0,S,5.0
S5,19.0,84.0,76.0,83.0,76.0,84,1630.0,square1,j,0.311,0,S,5.0
S5,20.0,79.0,78.0,82.0,76.0,79,1709.0,square1,j,0.31,0,S,5.0
S5,21.0,86.0,68.0,80.0,72.0,86,1795.0,square1,j,0.306,0,S,5.0
S5,22.0,93.0,80.0,85.0,84.0,85,1880.0,square3,f,0.244,2,S,5.0
S5,23.0,87.0,73.0,76.0,70.0,76,1956.0,square3,f,0.377,2,S,5.0
S5,24.0,85.0,69.0,81.0,78.0,85,2041.0,square1,j,0.294,0,S,5.0
S5,25.0,89.0,77.0,77.0,76.0,89,2130.0,square1,j,0.251,0,S,5.0
S5,26.0,84.0,71.0,81.0,75.0,84,2214.0,square1,j,0.296,0,S,5.0
S5,27.0,84.0,75.0,82.0,71.0,84,2298.0,square1,j,0.333,0,S,5.0
S5,28.0,83.0,72.0,82.0,78.0,83,2381.0,square1,j,0.333,0,S,5.0
S5,29.0,91.0,67.0,79.0,74.0,91,2472.0,square1,j,0.312,0,S,5.0
S5,30.0,82.0,69.0,81.0,77.0,82,2554.0,square1,j,0.369,0,S,5.0
S5,31.0,82.0,72.0,80.0,78.0,82,2636.0,square1,j,0.327,0,S,5.0
S5,32.0,83.0,73.0,91.0,80.0,83,2719.0,square1,j,0.279,0,S,5.0
S5,33.0,83.0,68.0,85.0,78.0,83,2802.0,square1,j,0.23,0,S,5.0
S5,34.0,89.0,79.0,83.0,77.0,89,2891.0,square1,j,0.251,0,S,5.0
S5,35.0,88.0,72.0,79.0,80.0,88,2979.0,square1,j,0.219,0,S,5.0
S5,36.0,90.0,74.0,84.0,76.0,90,3069.0,square1,j,0.221,0,S,5.0
S5,37.0,85.0,75.0,80.0,82.0,85,3154.0,square1,j,0.08,0,S,5.0
S5,38.0,78.0,74.0,85.0,79.0,78,3232.0,square1,j,0.112,0,S,5.0
S5,39.0,87.0,73.0,87.0,85.0,87,3319.0,square1,j,0.076,0,S,5.0
S5,40.0,83.0,67.0,81.0,80.0,83,3402.0,square1,j,0.095,0,S,5.0
S5,41.0,82.0,69.0,88.0,80.0,82,3484.0,square1,j,0.111,0,S,5.0
S5,42.0,85.0,78.0,91.0,80.0,85,3569.0,square1,j,0.137,0,S,5.0
S5,43.0,89.0,74.0,78.0,74.0,89,3658.0,square1,j,0.146,0,S,5.0
S5,44.0,90.0,74.0,77.0,85.0,90,3748.0,square1,j,0.167,0,S,5.0
S5,45.0,89.0,68.0,81.0,78.0,89,3837.0,square1,j,0.181,0,S,5.0
S5,46.0,86.0,70.0,86.0,68.0,86,3923.0,square1,j,0.178,0,S,5.0
S5,47.0,90.0,77.0,85.0,84.0,90,4013.0,square1,j,0.181,0,S,5.0
S5,48.0,76.0,66.0,82.0,79.0,76,4089.0,square1,j,0.162,0,S,5.0
S5,49.0,84.0,73.0,82.0,75.0,84,4173.0,square1,j,0.116,0,S,5.0
V1,0.0,46.0,61.0,52.0,71.0,46,46.0,square1,r,0.775,0,V,1.0
V1,1.0,45.0,63.0,54.0,78.0,54,100.0,square3,i,0.13,2,V,1.0
V1,2.0,51.0,58.0,59.0,77.0,58,158.0,square2,j,0.097,1,V,1.0
V1,3.0,53.0,65.0,56.0,75.0,75,233.0,square4,f,0.243,3,V,1.0
V1,4.0,49.0,68.0,53.0,72.0,72,305.0,square4,f,0.285,3,V,1.0
V1,5.0,47.0,70.0,59.0,76.0,76,381.0,square4,f,0.23,3,V,1.0
V1,6.0,55.0,63.0,54.0,76.0,76,457.0,square4,f,0.159,3,V,1.0
V1,7.0,47.0,67.0,55.0,74.0,74,531.0,square4,f,0.228,3,V,1.0
V1,8.0,47.0,65.0,46.0,76.0,76,607.0,square4,f,0.26,3,V,1.0
V1,9.0,46.0,68.0,59.0,78.0,78,685.0,square4,f,0.278,3,V,1.0
V1,10.0,58.0,67.0,58.0,79.0,58,743.0,square1,r,0.131,0,V,1.0
V1,11.0,44.0,61.0,54.0,72.0,54,797.0,square3,i,0.129,2,V,1.0
V1,12.0,44.0,65.0,56.0,75.0,65,862.0,square2,j,0.067,1,V,1.0
V1,13.0,47.0,63.0,53.0,73.0,73,935.0,square4,f,0.097,3,V,1.0
V1,14.0,49.0,66.0,56.0,75.0,75,1010.0,square4,f,0.117,3,V,1.0
V1,15.0,49.0,66.0,52.0,79.0,79,1089.0,square4,f,0.2,3,V,1.0
V1,16.0,51.0,61.0,48.0,72.0,72,1161.0,square4,f,0.214,3,V,1.0
V1,17.0,46.0,61.0,59.0,71.0,71,1232.0,square4,f,0.289,3,V,1.0
V1,18.0,45.0,61.0,53.0,72.0,72,1304.0,square4,f,0.113,3,V,1.0
V1,19.0,49.0,63.0,54.0,76.0,76,1380.0,square4,f,0.244,3,V,1.0
V1,20.0,46.0,66.0,52.0,72.0,72,1452.0,square4,f,0.262,3,V,1.0
V1,21.0,50.0,65.0,51.0,73.0,73,1525.0,square4,f,0.245,3,V,1.0
V1,22.0,56.0,62.0,56.0,77.0,77,1602.0,square4,f,0.239,3,V,1.0
V1,23.0,45.0,67.0,54.0,83.0,83,1685.0,square4,f,0.229,3,V,1.0
V1,24.0,46.0,69.0,57.0,71.0,71,1756.0,square4,f,0.249,3,V,1.0
V1,25.0,41.0,65.0,55.0,76.0,76,1832.0,square4,f,0.188,3,V,1.0
V1,26.0,51.0,60.0,55.0,74.0,74,1906.0,square4,f,0.149,3,V,1.0
V1,27.0,52.0,63.0,56.0,73.0,73,1979.0,square4,f,0.196,3,V,1.0
V1,28.0,50.0,68.0,50.0,76.0,76,2055.0,square4,f,0.218,3,V,1.0
V1,29.0,51.0,60.0,54.0,74.0,74,2129.0,square4,f,0.231,3,V,1.0
V1,30.0,35.0,67.0,57.0,40.0,40,2169.0,square4,f,0.279,3,V,1.0
V1,31.0,38.0,60.0,52.0,35.0,60,2229.0,square2,j,0.31,1,V,1.0
V1,32.0,37.0,67.0,52.0,41.0,52,2281.0,square3,i,0.177,2,V,1.0
V1,33.0,37.0,62.0,53.0,42.0,37,2318.0,square1,r,0.099,0,V,1.0
V1,34.0,35.0,58.0,54.0,43.0,58,2376.0,square2,j,0.096,1,V,1.0
V1,35.0,40.0,60.0,50.0,44.0,60,2436.0,square2,j,0.212,1,V,1.0
V1,36.0,39.0,66.0,50.0,39.0,66,2502.0,square2,j,0.211,1,V,1.0
V1,37.0,32.0,59.0,54.0,38.0,59,2561.0,square2,j,0.213,1,V,1.0
V1,38.0,32.0,64.0,50.0,39.0,64,2625.0,square2,j,0.229,1,V,1.0
V1,39.0,37.0,60.0,45.0,40.0,60,2685.0,square2,j,0.262,1,V,1.0
V1,40.0,35.0,61.0,54.0,43.0,61,2746.0,square2,j,0.279,1,V,1.0
V1,41.0,33.0,62.0,49.0,42.0,62,2808.0,square2,j,0.232,1,V,1.0
V1,42.0,31.0,70.0,52.0,42.0,70,2878.0,square2,j,0.213,1,V,1.0
V1,43.0,37.0,59.0,48.0,41.0,59,2937.0,square2,j,0.213,1,V,1.0
V1,44.0,39.0,63.0,53.0,44.0,53,2990.0,square3,i,0.255,2,V,1.0
V1,45.0,37.0,62.0,48.0,41.0,48,3038.0,square3,i,0.007,2,V,1.0
V1,46.0,34.0,65.0,52.0,39.0,34,3072.0,square1,r,0.094,0,V,1.0
V1,47.0,42.0,59.0,52.0,43.0,43,3115.0,square4,f,0.001,3,V,1.0
V1,48.0,39.0,62.0,50.0,38.0,62,3177.0,square2,j,0.33,1,V,1.0
V1,49.0,33.0,63.0,49.0,40.0,63,3240.0,square2,j,0.16,1,V,1.0
V1,50.0,38.0,66.0,54.0,37.0,66,3306.0,square2,j,0.199,1,V,1.0
V1,51.0,33.0,66.0,50.0,37.0,66,3372.0,square2,j,0.178,1,V,1.0
V1,52.0,41.0,65.0,55.0,44.0,65,3437.0,square2,j,0.219,1,V,1.0
V1,53.0,75.0,50.0,46.0,60.0,50,3487.0,square2,j,0.215,1,V,1.0
V1,54.0,74.0,53.0,45.0,61.0,53,3540.0,square2,j,0.197,1,V,1.0
V1,55.0,74.0,54.0,43.0,65.0,54,3594.0,square2,j,0.212,1,V,1.0
V1,56.0,73.0,54.0,44.0,56.0,54,3648.0,square2,j,0.179,1,V,1.0
V1,57.0,67.0,58.0,52.0,63.0,58,3706.0,square2,j,0.25,1,V,1.0
V1,58.0,72.0,51.0,43.0,62.0,51,3757.0,square2,j,0.23,1,V,1.0
V1,59.0,68.0,47.0,49.0,56.0,47,3804.0,square2,j,0.249,1,V,1.0
V1,60.0,72.0,55.0,46.0,65.0,46,3850.0,square3,i,0.262,2,V,1.0
V1,61.0,76.0,50.0,46.0,62.0,76,3926.0,square1,r,0.223,0,V,1.0
V1,62.0,77.0,58.0,46.0,66.0,77,4003.0,square1,r,0.221,0,V,1.0
V1,63.0,72.0,53.0,48.0,66.0,72,4075.0,square1,r,0.163,0,V,1.0
V1,64.0,70.0,49.0,49.0,60.0,70,4145.0,square1,r,0.279,0,V,1.0
V1,65.0,68.0,49.0,46.0,66.0,68,4213.0,square1,r,0.179,0,V,1.0
V1,66.0,77.0,52.0,41.0,64.0,77,4290.0,square1,r,0.214,0,V,1.0
V1,67.0,74.0,56.0,42.0,69.0,74,4364.0,square1,r,0.277,0,V,1.0
V1,68.0,77.0,50.0,46.0,68.0,77,4441.0,square1,r,0.182,0,V,1.0
V1,69.0,76.0,48.0,45.0,63.0,76,4517.0,square1,r,0.181,0,V,1.0
V1,70.0,71.0,53.0,50.0,65.0,71,4588.0,square1,r,0.229,0,V,1.0
V1,71.0,70.0,56.0,44.0,59.0,70,4658.0,square1,r,0.246,0,V,1.0
V1,72.0,74.0,54.0,55.0,61.0,74,4732.0,square1,r,0.146,0,V,1.0
V1,73.0,73.0,53.0,47.0,61.0,73,4805.0,square1,r,0.23,0,V,1.0
V1,74.0,71.0,53.0,51.0,65.0,71,4876.0,square1,r,0.177,0,V,1.0
V1,75.0,72.0,51.0,48.0,64.0,72,4948.0,square1,r,0.263,0,V,1.0
V1,76.0,72.0,53.0,49.0,62.0,72,5020.0,square1,r,0.112,0,V,1.0
V1,77.0,62.0,76.0,64.0,86.0,62,5082.0,square1,r,0.167,0,V,1.0
V1,78.0,61.0,74.0,63.0,87.0,61,5143.0,square1,r,0.238,0,V,1.0
V1,79.0,56.0,78.0,67.0,89.0,56,5199.0,square1,r,0.156,0,V,1.0
V1,80.0,59.0,75.0,63.0,84.0,59,5258.0,square1,r,0.195,0,V,1.0
V1,81.0,63.0,74.0,68.0,82.0,63,5321.0,square1,r,0.123,0,V,1.0
V1,82.0,59.0,75.0,67.0,80.0,59,5380.0,square1,r,0.115,0,V,1.0
V1,83.0,58.0,77.0,63.0,82.0,58,5438.0,square1,r,0.078,0,V,1.0
V1,84.0,57.0,76.0,64.0,87.0,57,5495.0,square1,r,0.102,0,V,1.0
V1,85.0,61.0,73.0,66.0,83.0,66,5561.0,square3,i,0.292,2,V,1.0
V1,86.0,60.0,71.0,66.0,85.0,71,5632.0,square2,j,0.213,1,V,1.0
V1,87.0,61.0,80.0,73.0,84.0,84,5716.0,square4,f,0.27,3,V,1.0
V1,88.0,67.0,77.0,67.0,85.0,85,5801.0,square4,f,0.196,3,V,1.0
V1,89.0,60.0,79.0,63.0,86.0,86,5887.0,square4,f,0.112,3,V,1.0
V1,90.0,60.0,74.0,66.0,88.0,88,5975.0,square4,f,0.194,3,V,1.0
V1,91.0,57.0,81.0,61.0,79.0,79,6054.0,square4,f,0.17,3,V,1.0
V1,92.0,61.0,78.0,61.0,84.0,84,6138.0,square4,f,0.202,3,V,1.0
V1,93.0,64.0,72.0,69.0,83.0,83,6221.0,square4,f,0.233,3,V,1.0
V1,94.0,64.0,73.0,68.0,83.0,83,6304.0,square4,f,0.243,3,V,1.0
V1,95.0,61.0,69.0,68.0,87.0,87,6391.0,square4,f,0.248,3,V,1.0
V1,96.0,55.0,77.0,65.0,88.0,88,6479.0,square4,f,0.16,3,V,1.0
V1,97.0,61.0,75.0,63.0,82.0,82,6561.0,square4,f,0.162,3,V,1.0
V1,98.0,59.0,71.0,66.0,82.0,82,6643.0,square4,f,0.156,3,V,1.0
V1,99.0,61.0,69.0,67.0,84.0,84,6727.0,square4,f,0.15,3,V,1.0
V7,0.0,86.0,61.0,78.0,68.0,78,78.0,square3,r,0.548,2,V,7.0
V7,1.0,95.0,62.0,79.0,70.0,62,140.0,square2,i,0.112,1,V,7.0
V7,2.0,89.0,67.0,81.0,77.0,77,217.0,square4,j,0.176,3,V,7.0
V7,3.0,90.0,56.0,85.0,72.0,90,307.0,square1,f,0.132,0,V,7.0
V7,4.0,91.0,65.0,77.0,71.0,91,398.0,square1,f,0.127,0,V,7.0
V7,5.0,91.0,58.0,84.0,72.0,91,489.0,square1,f,0.215,0,V,7.0
V7,6.0,94.0,65.0,87.0,72.0,94,583.0,square1,f,0.196,0,V,7.0
V7,7.0,89.0,67.0,79.0,67.0,89,672.0,square1,f,0.163,0,V,7.0
V7,8.0,91.0,65.0,84.0,68.0,91,763.0,square1,f,0.142,0,V,7.0
V7,9.0,92.0,60.0,87.0,69.0,92,855.0,square1,f,0.163,0,V,7.0
V7,10.0,90.0,67.0,81.0,76.0,90,945.0,square1,f,0.278,0,V,7.0
V7,11.0,86.0,67.0,83.0,73.0,86,1031.0,square1,f,0.124,0,V,7.0
V7,12.0,90.0,62.0,80.0,72.0,90,1121.0,square1,f,0.179,0,V,7.0
V7,13.0,84.0,60.0,88.0,71.0,84,1205.0,square1,f,0.163,0,V,7.0
V7,14.0,95.0,64.0,80.0,70.0,95,1300.0,square1,f,0.158,0,V,7.0
V7,15.0,86.0,60.0,81.0,70.0,86,1386.0,square1,f,0.18,0,V,7.0
V7,16.0,85.0,65.0,77.0,69.0,85,1471.0,square1,f,0.177,0,V,7.0
V7,17.0,91.0,65.0,81.0,70.0,91,1562.0,square1,f,0.128,0,V,7.0
V7,18.0,95.0,61.0,81.0,76.0,95,1657.0,square1,f,0.149,0,V,7.0
V7,19.0,90.0,58.0,79.0,72.0,90,1747.0,square1,f,0.166,0,V,7.0
V7,20.0,94.0,68.0,80.0,79.0,94,1841.0,square1,f,0.113,0,V,7.0
V7,21.0,92.0,66.0,82.0,70.0,92,1933.0,square1,f,0.035,0,V,7.0
V7,22.0,92.0,64.0,83.0,72.0,92,2025.0,square1,f,0.095,0,V,7.0
V7,23.0,91.0,68.0,82.0,73.0,91,2116.0,square1,f,0.0,0,V,7.0
V7,24.0,87.0,71.0,82.0,72.0,87,2203.0,square1,f,1.015,0,V,7.0
V7,25.0,91.0,68.0,90.0,74.0,91,2294.0,square1,f,0.051,0,V,7.0
V7,26.0,89.0,65.0,83.0,72.0,89,2383.0,square1,f,0.712,0,V,7.0
V7,27.0,91.0,61.0,81.0,73.0,91,2474.0,square1,f,0.06,0,V,7.0
V7,28.0,90.0,66.0,81.0,72.0,90,2564.0,square1,f,0.062,0,V,7.0
V7,29.0,89.0,67.0,77.0,71.0,89,2653.0,square1,f,0.04,0,V,7.0
V7,30.0,95.0,68.0,84.0,71.0,95,2748.0,square1,f,0.063,0,V,7.0
V7,31.0,95.0,61.0,81.0,70.0,95,2843.0,square1,f,0.794,0,V,7.0
V7,32.0,89.0,65.0,82.0,75.0,89,2932.0,square1,f,0.061,0,V,7.0
V7,33.0,77.0,50.0,80.0,61.0,77,3009.0,square1,f,0.162,0,V,7.0
V7,34.0,76.0,54.0,78.0,61.0,78,3087.0,square3,r,0.128,2,V,7.0
V7,35.0,71.0,51.0,80.0,64.0,51,3138.0,square2,i,0.172,1,V,7.0
V7,36.0,75.0,51.0,80.0,62.0,62,3200.0,square4,j,0.176,3,V,7.0
V7,37.0,73.0,58.0,86.0,63.0,73,3273.0,square1,f,0.129,0,V,7.0
V7,38.0,73.0,50.0,86.0,61.0,86,3359.0,square3,r,0.143,2,V,7.0
V7,39.0,67.0,53.0,78.0,61.0,78,3437.0,square3,r,0.164,2,V,7.0
V7,40.0,71.0,53.0,84.0,58.0,84,3521.0,square3,r,0.114,2,V,7.0
V7,41.0,75.0,51.0,83.0,63.0,83,3604.0,square3,r,0.182,2,V,7.0
V7,42.0,69.0,48.0,87.0,63.0,87,3691.0,square3,r,0.079,2,V,7.0
V7,43.0,70.0,58.0,81.0,60.0,81,3772.0,square3,r,0.181,2,V,7.0
V7,44.0,68.0,56.0,76.0,63.0,76,3848.0,square3,r,0.215,2,V,7.0
V7,45.0,74.0,59.0,76.0,56.0,76,3924.0,square3,r,0.145,2,V,7.0
V7,46.0,72.0,54.0,77.0,61.0,77,4001.0,square3,r,0.133,2,V,7.0
V7,47.0,69.0,47.0,81.0,62.0,81,4082.0,square3,r,0.161,2,V,7.0
V7,48.0,75.0,52.0,81.0,57.0,81,4163.0,square3,r,0.195,2,V,7.0
V7,49.0,74.0,55.0,78.0,60.0,78,4241.0,square3,r,0.101,2,V,7.0
V7,50.0,71.0,51.0,80.0,61.0,80,4321.0,square3,r,0.181,2,V,7.0
V7,51.0,75.0,55.0,85.0,62.0,85,4406.0,square3,r,0.093,2,V,7.0
V7,52.0,75.0,59.0,76.0,59.0,76,4482.0,square3,r,0.13,2,V,7.0
V7,53.0,72.0,53.0,84.0,66.0,84,4566.0,square3,r,0.155,2,V,7.0
V7,54.0,69.0,51.0,81.0,60.0,81,4647.0,square3,r,0.104,2,V,7.0
V7,55.0,74.0,56.0,75.0,54.0,75,4722.0,square3,r,0.212,2,V,7.0
V7,56.0,76.0,51.0,83.0,58.0,83,4805.0,square3,r,0.229,2,V,7.0
V7,57.0,71.0,53.0,80.0,64.0,80,4885.0,square3,r,0.129,2,V,7.0
V7,58.0,81.0,56.0,79.0,61.0,56,4941.0,square2,i,0.178,1,V,7.0
V7,59.0,71.0,55.0,83.0,59.0,59,5000.0,square4,j,0.346,3,V,7.0
V7,60.0,73.0,53.0,83.0,64.0,73,5073.0,square1,f,0.012,0,V,7.0
V7,61.0,70.0,53.0,77.0,63.0,77,5150.0,square3,r,0.337,2,V,7.0
V7,62.0,71.0,54.0,76.0,61.0,76,5226.0,square3,r,0.075,2,V,7.0
V7,63.0,68.0,45.0,79.0,65.0,79,5305.0,square3,r,0.195,2,V,7.0
V7,64.0,65.0,55.0,79.0,59.0,79,5384.0,square3,r,0.11,2,V,7.0
V7,65.0,74.0,54.0,81.0,61.0,81,5465.0,square3,r,0.114,2,V,7.0
V7,66.0,70.0,56.0,81.0,63.0,81,5546.0,square3,r,0.033,2,V,7.0
V7,67.0,70.0,85.0,64.0,92.0,64,5610.0,square3,r,0.03,2,V,7.0
V7,68.0,73.0,85.0,68.0,92.0,73,5683.0,square1,f,0.01,0,V,7.0
V7,69.0,75.0,83.0,70.0,91.0,83,5766.0,square2,i,0.414,1,V,7.0
V7,70.0,75.0,85.0,69.0,91.0,91,5857.0,square4,j,0.181,3,V,7.0
V7,71.0,71.0,86.0,65.0,94.0,94,5951.0,square4,j,0.355,3,V,7.0
V7,72.0,77.0,86.0,65.0,98.0,98,6049.0,square4,j,0.156,3,V,7.0
V7,73.0,77.0,84.0,63.0,94.0,94,6143.0,square4,j,0.229,3,V,7.0
V7,74.0,71.0,86.0,64.0,91.0,91,6234.0,square4,j,0.16,3,V,7.0
V7,75.0,73.0,90.0,60.0,90.0,90,6324.0,square4,j,0.223,3,V,7.0
V7,76.0,79.0,84.0,68.0,95.0,95,6419.0,square4,j,0.167,3,V,7.0
V7,77.0,73.0,85.0,66.0,89.0,89,6508.0,square4,j,0.165,3,V,7.0
V7,78.0,75.0,82.0,67.0,91.0,91,6599.0,square4,j,0.21,3,V,7.0
V7,79.0,72.0,85.0,60.0,90.0,90,6689.0,square4,j,0.232,3,V,7.0
V7,80.0,73.0,83.0,66.0,97.0,97,6786.0,square4,j,0.21,3,V,7.0
V7,81.0,73.0,84.0,67.0,92.0,92,6878.0,square4,j,0.277,3,V,7.0
V7,82.0,69.0,84.0,65.0,91.0,91,6969.0,square4,j,0.145,3,V,7.0
V7,83.0,76.0,83.0,72.0,99.0,99,7068.0,square4,j,0.139,3,V,7.0
V7,84.0,72.0,84.0,70.0,94.0,94,7162.0,square4,j,0.179,3,V,7.0
V7,85.0,77.0,83.0,67.0,88.0,88,7250.0,square4,j,0.195,3,V,7.0
V7,86.0,76.0,80.0,67.0,90.0,90,7340.0,square4,j,0.279,3,V,7.0
V7,87.0,70.0,86.0,67.0,95.0,95,7435.0,square4,j,0.204,3,V,7.0
V7,88.0,76.0,84.0,67.0,100.0,100,7535.0,square4,j,0.206,3,V,7.0
V7,89.0,71.0,88.0,60.0,97.0,97,7632.0,square4,j,0.296,3,V,7.0
V7,90.0,69.0,82.0,71.0,95.0,95,7727.0,square4,j,0.181,3,V,7.0
V7,91.0,80.0,84.0,65.0,92.0,92,7819.0,square4,j,0.245,3,V,7.0
V7,92.0,77.0,85.0,68.0,85.0,85,7904.0,square4,j,0.152,3,V,7.0
V7,93.0,72.0,84.0,66.0,91.0,91,7995.0,square4,j,0.178,3,V,7.0
V7,94.0,69.0,83.0,66.0,95.0,95,8090.0,square4,j,0.221,3,V,7.0
V7,95.0,70.0,86.0,75.0,91.0,91,8181.0,square4,j,0.229,3,V,7.0
V7,96.0,74.0,85.0,66.0,88.0,88,8269.0,square4,j,0.167,3,V,7.0
V7,97.0,77.0,82.0,73.0,91.0,91,8360.0,square4,j,0.18,3,V,7.0
V7,98.0,76.0,91.0,62.0,94.0,94,8454.0,square4,j,0.249,3,V,7.0
V7,99.0,74.0,84.0,67.0,88.0,88,8542.0,square4,j,0.159,3,V,7.0
V9,0.0,20.0,29.0,37.0,45.0,99999,0.0,invalid,,,-1,V,9.0
V9,1.0,21.0,32.0,39.0,45.0,21,21.0,square1,r,0.546,0,V,9.0
V9,2.0,16.0,27.0,41.0,48.0,41,62.0,square3,i,0.306,2,V,9.0
V9,3.0,20.0,30.0,42.0,50.0,30,92.0,square2,j,0.206,1,V,9.0
V9,4.0,22.0,34.0,37.0,47.0,47,139.0,square4,f,0.296,3,V,9.0
V9,5.0,17.0,32.0,38.0,49.0,49,188.0,square4,f,0.231,3,V,9.0
V9,6.0,17.0,25.0,39.0,47.0,47,235.0,square4,f,0.245,3,V,9.0
V9,7.0,22.0,28.0,33.0,48.0,48,283.0,square4,f,0.114,3,V,9.0
V9,8.0,20.0,24.0,34.0,41.0,41,324.0,square4,f,0.115,3,V,9.0
V9,9.0,20.0,33.0,30.0,51.0,51,375.0,square4,f,0.12,3,V,9.0
V9,10.0,21.0,35.0,38.0,50.0,50,425.0,square4,f,0.297,3,V,9.0
V9,11.0,19.0,29.0,44.0,45.0,45,470.0,square4,f,0.016,3,V,9.0
V9,12.0,27.0,24.0,38.0,54.0,54,524.0,square4,f,0.148,3,V,9.0
V9,13.0,15.0,26.0,37.0,50.0,37,561.0,square3,i,0.068,2,V,9.0
V9,14.0,24.0,26.0,39.0,42.0,24,585.0,square1,r,0.88,0,V,9.0
V9,15.0,26.0,27.0,43.0,49.0,27,612.0,square2,j,0.164,1,V,9.0
V9,16.0,19.0,30.0,42.0,49.0,49,661.0,square4,f,0.947,3,V,9.0
V9,17.0,21.0,30.0,34.0,49.0,49,710.0,square4,f,0.186,3,V,9.0
V9,18.0,25.0,33.0,41.0,51.0,51,761.0,square4,f,0.431,3,V,9.0
V9,19.0,17.0,31.0,41.0,45.0,45,806.0,square4,f,0.197,3,V,9.0
V9,20.0,19.0,31.0,34.0,49.0,49,855.0,square4,f,0.148,3,V,9.0
V9,21.0,23.0,29.0,37.0,48.0,48,903.0,square4,f,0.146,3,V,9.0
V9,22.0,15.0,32.0,36.0,48.0,48,951.0,square4,f,0.08,3,V,9.0
V9,23.0,25.0,33.0,39.0,47.0,47,998.0,square4,f,0.125,3,V,9.0
V9,24.0,21.0,30.0,38.0,52.0,52,1050.0,square4,f,0.062,3,V,9.0
V9,25.0,25.0,29.0,42.0,48.0,48,1098.0,square4,f,0.146,3,V,9.0
V9,26.0,22.0,29.0,39.0,47.0,47,1145.0,square4,f,0.094,3,V,9.0
V9,27.0,17.0,31.0,45.0,41.0,41,1186.0,square4,f,0.089,3,V,9.0
V9,28.0,29.0,28.0,43.0,43.0,43,1229.0,square4,f,0.046,3,V,9.0
V9,29.0,20.0,31.0,43.0,49.0,49,1278.0,square4,f,0.027,3,V,9.0
V9,30.0,23.0,33.0,39.0,48.0,48,1326.0,square4,f,0.068,3,V,9.0
V9,31.0,20.0,27.0,38.0,53.0,53,1379.0,square4,f,0.001,3,V,9.0
V9,32.0,23.0,29.0,37.0,49.0,49,1428.0,square4,f,0.062,3,V,9.0
V9,33.0,24.0,33.0,37.0,49.0,49,1477.0,square4,f,0.001,3,V,9.0
V9,34.0,43.0,58.0,48.0,30.0,30,1507.0,square4,f,0.46,3,V,9.0
V9,35.0,48.0,59.0,45.0,34.0,48,1555.0,square1,r,0.535,0,V,9.0
V9,36.0,39.0,56.0,54.0,32.0,39,1594.0,square1,r,0.547,0,V,9.0
V9,37.0,40.0,57.0,50.0,35.0,50,1644.0,square3,i,0.528,2,V,9.0
V9,38.0,49.0,62.0,51.0,33.0,51,1695.0,square3,i,0.178,2,V,9.0
V9,39.0,45.0,61.0,48.0,34.0,48,1743.0,square3,i,0.529,2,V,9.0
V9,40.0,40.0,65.0,51.0,29.0,65,1808.0,square2,j,0.235,1,V,9.0
V9,41.0,44.0,57.0,50.0,38.0,57,1865.0,square2,j,0.168,1,V,9.0
V9,42.0,40.0,57.0,49.0,33.0,57,1922.0,square2,j,0.094,1,V,9.0
V9,43.0,42.0,64.0,54.0,35.0,64,1986.0,square2,j,0.07,1,V,9.0
V9,44.0,44.0,55.0,49.0,39.0,55,2041.0,square2,j,0.03,1,V,9.0
V9,45.0,37.0,66.0,51.0,35.0,66,2107.0,square2,j,0.571,1,V,9.0
V9,46.0,40.0,59.0,51.0,32.0,59,2166.0,square2,j,0.129,1,V,9.0
V9,47.0,38.0,62.0,57.0,31.0,62,2228.0,square2,j,0.109,1,V,9.0
V9,48.0,43.0,61.0,54.0,34.0,61,2289.0,square2,j,0.058,1,V,9.0
V9,49.0,43.0,61.0,49.0,40.0,61,2350.0,square2,j,0.005,1,V,9.0
V9,50.0,37.0,58.0,51.0,32.0,58,2408.0,square2,j,0.114,1,V,9.0
V9,51.0,44.0,63.0,48.0,39.0,63,2471.0,square2,j,0.127,1,V,9.0
V9,52.0,35.0,65.0,48.0,30.0,65,2536.0,square2,j,0.299,1,V,9.0
V9,53.0,43.0,59.0,48.0,39.0,59,2595.0,square2,j,0.096,1,V,9.0
V9,54.0,43.0,59.0,52.0,30.0,59,2654.0,square2,j,0.128,1,V,9.0
V9,55.0,41.0,58.0,51.0,34.0,58,2712.0,square2,j,0.313,1,V,9.0
V9,56.0,44.0,63.0,50.0,33.0,63,2775.0,square2,j,0.062,1,V,9.0
V9,57.0,42.0,60.0,49.0,32.0,60,2835.0,square2,j,0.273,1,V,9.0
V9,58.0,44.0,62.0,57.0,30.0,62,2897.0,square2,j,0.297,1,V,9.0
V9,59.0,45.0,61.0,45.0,31.0,61,2958.0,square2,j,0.034,1,V,9.0
V9,60.0,43.0,63.0,53.0,33.0,63,3021.0,square2,j,0.046,1,V,9.0
V9,61.0,39.0,56.0,55.0,31.0,31,3052.0,square4,f,0.011,3,V,9.0
V9,62.0,39.0,61.0,50.0,34.0,61,3113.0,square2,j,0.136,1,V,9.0
V9,63.0,44.0,57.0,48.0,36.0,48,3161.0,square3,i,0.231,2,V,9.0
V9,64.0,40.0,60.0,58.0,35.0,60,3221.0,square2,j,0.229,1,V,9.0
V9,65.0,42.0,60.0,54.0,38.0,42,3263.0,square1,r,0.709,0,V,9.0
V9,66.0,41.0,60.0,54.0,37.0,60,3323.0,square2,j,0.042,1,V,9.0
V9,67.0,43.0,61.0,54.0,40.0,61,3384.0,square2,j,0.243,1,V,9.0
V9,68.0,45.0,40.0,26.0,18.0,40,3424.0,square2,j,0.281,1,V,9.0
V9,69.0,50.0,41.0,29.0,20.0,20,3444.0,square4,f,0.625,3,V,9.0
V9,70.0,43.0,36.0,27.0,15.0,43,3487.0,square1,r,0.734,0,V,9.0
V9,71.0,44.0,40.0,28.0,18.0,28,3515.0,square3,i,0.366,2,V,9.0
V9,72.0,42.0,38.0,27.0,18.0,38,3553.0,square2,j,0.213,1,V,9.0
V9,73.0,46.0,33.0,25.0,19.0,46,3599.0,square1,r,0.295,0,V,9.0
V9,74.0,47.0,40.0,28.0,20.0,47,3646.0,square1,r,0.397,0,V,9.0
V9,75.0,39.0,39.0,27.0,25.0,39,3685.0,square1,r,0.247,0,V,9.0
V9,76.0,50.0,31.0,29.0,23.0,50,3735.0,square1,r,0.2,0,V,9.0
V9,77.0,44.0,37.0,28.0,13.0,44,3779.0,square1,r,0.136,0,V,9.0
V9,78.0,43.0,36.0,23.0,17.0,43,3822.0,square1,r,0.195,0,V,9.0
V9,79.0,42.0,36.0,28.0,24.0,42,3864.0,square1,r,0.25,0,V,9.0
V9,80.0,47.0,35.0,30.0,14.0,47,3911.0,square1,r,0.294,0,V,9.0
V9,81.0,46.0,33.0,29.0,18.0,46,3957.0,square1,r,0.196,0,V,9.0
V9,82.0,46.0,35.0,28.0,18.0,46,4003.0,square1,r,0.211,0,V,9.0
V9,83.0,47.0,41.0,32.0,15.0,47,4050.0,square1,r,0.169,0,V,9.0
V9,84.0,45.0,38.0,31.0,18.0,45,4095.0,square1,r,0.06,0,V,9.0
V9,85.0,42.0,35.0,30.0,21.0,42,4137.0,square1,r,0.06,0,V,9.0
V9,86.0,49.0,39.0,23.0,18.0,49,4186.0,square1,r,0.0,0,V,9.0
V9,87.0,49.0,39.0,27.0,16.0,49,4235.0,square1,r,0.148,0,V,9.0
V9,88.0,45.0,38.0,25.0,14.0,45,4280.0,square1,r,0.001,0,V,9.0
V9,89.0,45.0,32.0,28.0,19.0,45,4325.0,square1,r,0.029,0,V,9.0
V9,90.0,44.0,35.0,29.0,20.0,44,4369.0,square1,r,0.061,0,V,9.0
V9,91.0,42.0,38.0,32.0,16.0,42,4411.0,square1,r,0.083,0,V,9.0
V9,92.0,45.0,36.0,23.0,20.0,45,4456.0,square1,r,0.078,0,V,9.0
V9,93.0,45.0,35.0,26.0,18.0,45,4501.0,square1,r,0.064,0,V,9.0
V9,94.0,44.0,37.0,27.0,13.0,44,4545.0,square1,r,0.08,0,V,9.0
V9,95.0,46.0,36.0,25.0,20.0,46,4591.0,square1,r,0.095,0,V,9.0
V9,96.0,43.0,39.0,27.0,16.0,43,4634.0,square1,r,0.095,0,V,9.0
V9,97.0,48.0,39.0,30.0,16.0,48,4682.0,square1,r,0.116,0,V,9.0
V9,98.0,49.0,40.0,26.0,20.0,49,4731.0,square1,r,0.123,0,V,9.0
V9,99.0,49.0,41.0,27.0,18.0,49,4780.0,square1,r,0.058,0,V,9.0
