block,Trial,square1,square2,square3,square4,currPoints,totalPoints,square,choiceKey.keys,choiceKey.rt,armNum,blockType,blockNum
prac,0.0,100.0,0.0,0.0,0.0,0,0.0,square3,,,2,p,0.0
prac,1.0,100.0,0.0,0.0,0.0,100,100.0,square1,,,0,p,0.0
prac,2.0,100.0,0.0,0.0,0.0,100,200.0,square1,,,0,p,0.0
prac,3.0,100.0,0.0,0.0,0.0,100,300.0,square1,,,0,p,0.0
prac,4.0,100.0,0.0,0.0,0.0,0,300.0,square4,,,3,p,0.0
prac,5.0,100.0,0.0,0.0,0.0,0,300.0,square2,,,1,p,0.0
prac,6.0,100.0,0.0,0.0,0.0,100,400.0,square1,,,0,p,0.0
prac,7.0,100.0,0.0,0.0,0.0,100,500.0,square1,,,0,p,0.0
prac,8.0,100.0,0.0,0.0,0.0,100,600.0,square1,,,0,p,0.0
prac,9.0,100.0,0.0,0.0,0.0,100,700.0,square1,,,0,p,0.0
V5,0.0,46.0,21.0,37.0,28.0,37,37.0,square3,f,1.543,2,V,5.0
V5,1.0,43.0,27.0,36.0,31.0,27,64.0,square2,r,0.1511,1,V,5.0
V5,2.0,50.0,18.0,43.0,32.0,32,96.0,square4,i,0.2252,3,V,5.0
V5,3.0,53.0,23.0,36.0,34.0,53,149.0,square1,j,0.3899,0,V,5.0
V5,4.0,52.0,19.0,38.0,34.0,52,201.0,square1,j,0.3193,0,V,5.0
V5,5.0,50.0,22.0,41.0,29.0,50,251.0,square1,j,0.4056,0,V,5.0
V5,6.0,52.0,19.0,40.0,33.0,52,303.0,square1,j,0.3359,0,V,5.0
V5,7.0,48.0,24.0,36.0,27.0,48,351.0,square1,j,0.2447,0,V,5.0
V5,8.0,50.0,24.0,35.0,33.0,50,401.0,square1,j,0.2792,0,V,5.0
V5,9.0,48.0,25.0,39.0,34.0,48,449.0,square1,j,0.2439,0,V,5.0
V5,10.0,52.0,19.0,32.0,34.0,52,501.0,square1,j,0.3632,0,V,5.0
V5,11.0,48.0,22.0,32.0,32.0,48,549.0,square1,j,0.2896,0,V,5.0
V5,12.0,47.0,17.0,43.0,29.0,47,596.0,square1,j,0.2925,0,V,5.0
V5,13.0,46.0,21.0,42.0,29.0,46,642.0,square1,j,0.3255,0,V,5.0
V5,14.0,47.0,28.0,42.0,28.0,47,689.0,square1,j,0.2437,0,V,5.0
V5,15.0,50.0,29.0,38.0,36.0,50,739.0,square1,j,0.0447,0,V,5.0
V5,16.0,49.0,24.0,36.0,34.0,49,788.0,square1,j,0.2181,0,V,5.0
V5,17.0,50.0,20.0,38.0,35.0,50,838.0,square1,j,0.265,0,V,5.0
V5,18.0,49.0,22.0,46.0,29.0,49,887.0,square1,j,0.1499,0,V,5.0
V5,19.0,46.0,23.0,40.0,31.0,46,933.0,square1,j,0.2659,0,V,5.0
V5,20.0,51.0,22.0,41.0,28.0,51,984.0,square1,j,0.181,0,V,5.0
V5,21.0,51.0,26.0,36.0,31.0,51,1035.0,square1,j,0.0748,0,V,5.0
V5,22.0,47.0,18.0,41.0,28.0,47,1082.0,square1,j,0.099,0,V,5.0
V5,23.0,52.0,20.0,36.0,29.0,52,1134.0,square1,j,0.0543,0,V,5.0
V5,24.0,51.0,21.0,41.0,34.0,51,1185.0,square1,j,0.2127,0,V,5.0
V5,25.0,50.0,20.0,41.0,27.0,50,1235.0,square1,j,0.0685,0,V,5.0
V5,26.0,49.0,29.0,37.0,28.0,37,1272.0,square3,f,0.0023,2,V,5.0
V5,27.0,10.0,13.0,42.0,32.0,13,1285.0,square2,r,0.3839,1,V,5.0
V5,28.0,9.0,19.0,40.0,27.0,27,1312.0,square4,i,0.0012,3,V,5.0
V5,29.0,17.0,17.0,38.0,29.0,17,1329.0,square1,j,0.5492,0,V,5.0
V5,30.0,8.0,18.0,36.0,29.0,36,1365.0,square3,f,0.3979,2,V,5.0
V5,31.0,16.0,24.0,34.0,29.0,24,1389.0,square2,r,0.2924,1,V,5.0
V5,32.0,9.0,17.0,35.0,31.0,31,1420.0,square4,i,0.2992,3,V,5.0
V5,33.0,11.0,19.0,36.0,28.0,36,1456.0,square3,f,0.2166,2,V,5.0
V5,34.0,10.0,19.0,38.0,28.0,38,1494.0,square3,f,0.5501,2,V,5.0
V5,35.0,5.0,23.0,40.0,34.0,40,1534.0,square3,f,0.2325,2,V,5.0
V5,36.0,17.0,20.0,36.0,31.0,36,1570.0,square3,f,0.1821,2,V,5.0
V5,37.0,12.0,13.0,36.0,30.0,36,1606.0,square3,f,0.1214,2,V,5.0
V5,38.0,14.0,24.0,35.0,27.0,35,1641.0,square3,f,0.1671,2,V,5.0
V5,39.0,13.0,20.0,39.0,32.0,39,1680.0,square3,f,0.2003,2,V,5.0
V5,40.0,9.0,15.0,37.0,24.0,37,1717.0,square3,f,0.6023,2,V,5.0
V5,41.0,9.0,14.0,38.0,31.0,38,1755.0,square3,f,0.5907,2,V,5.0
V5,42.0,14.0,17.0,43.0,31.0,43,1798.0,square3,f,0.3283,2,V,5.0
V5,43.0,10.0,18.0,39.0,23.0,39,1837.0,square3,f,0.5349,2,V,5.0
V5,44.0,10.0,20.0,33.0,32.0,33,1870.0,square3,f,0.0996,2,V,5.0
V5,45.0,16.0,17.0,37.0,29.0,37,1907.0,square3,f,0.2345,2,V,5.0
V5,46.0,9.0,22.0,37.0,25.0,37,1944.0,square3,f,0.249,2,V,5.0
V5,47.0,10.0,22.0,35.0,26.0,35,1979.0,square3,f,0.2805,2,V,5.0
V5,48.0,11.0,16.0,39.0,23.0,39,2018.0,square3,f,0.1287,2,V,5.0
V5,49.0,13.0,16.0,33.0,27.0,33,2051.0,square3,f,0.8009,2,V,5.0
V5,50.0,12.0,16.0,39.0,24.0,39,2090.0,square3,f,0.2591,2,V,5.0
V5,51.0,10.0,21.0,43.0,28.0,43,2133.0,square3,f,0.3347,2,V,5.0
V5,52.0,8.0,15.0,36.0,28.0,36,2169.0,square3,f,0.4277,2,V,5.0
V5,53.0,38.0,20.0,31.0,54.0,31,2200.0,square3,f,0.3694,2,V,5.0
V5,54.0,39.0,20.0,35.0,51.0,35,2235.0,square3,f,0.3005,2,V,5.0
V5,55.0,41.0,21.0,27.0,50.0,27,2262.0,square3,f,0.2664,2,V,5.0
V5,56.0,39.0,23.0,28.0,49.0,23,2285.0,square2,r,0.2272,1,V,5.0
V5,57.0,36.0,28.0,29.0,59.0,59,2344.0,square4,i,0.1709,3,V,5.0
V5,58.0,38.0,22.0,28.0,49.0,38,2382.0,square1,j,0.3317,0,V,5.0
V5,59.0,44.0,23.0,30.0,51.0,51,2433.0,square4,i,0.0547,3,V,5.0
V5,60.0,43.0,21.0,31.0,48.0,48,2481.0,square4,i,0.0816,3,V,5.0
V5,61.0,39.0,24.0,35.0,50.0,50,2531.0,square4,i,0.665,3,V,5.0
V5,62.0,38.0,25.0,31.0,52.0,52,2583.0,square4,i,0.3145,3,V,5.0
V5,63.0,41.0,14.0,31.0,52.0,52,2635.0,square4,i,0.1732,3,V,5.0
V5,64.0,43.0,23.0,30.0,51.0,51,2686.0,square4,i,0.2352,3,V,5.0
V5,65.0,41.0,23.0,35.0,52.0,52,2738.0,square4,i,0.6647,3,V,5.0
V5,66.0,41.0,17.0,33.0,47.0,47,2785.0,square4,i,0.5319,3,V,5.0
V5,67.0,44.0,23.0,32.0,49.0,49,2834.0,square4,i,0.5709,3,V,5.0
V5,68.0,44.0,24.0,31.0,44.0,44,2878.0,square4,i,0.3161,3,V,5.0
V5,69.0,43.0,28.0,27.0,48.0,48,2926.0,square4,i,0.4268,3,V,5.0
V5,70.0,38.0,22.0,26.0,50.0,50,2976.0,square4,i,0.4031,3,V,5.0
V5,71.0,41.0,29.0,26.0,53.0,53,3029.0,square4,i,0.2351,3,V,5.0
V5,72.0,40.0,20.0,28.0,51.0,51,3080.0,square4,i,0.3261,3,V,5.0
V5,73.0,59.0,44.0,51.0,35.0,35,3115.0,square4,i,0.3402,3,V,5.0
V5,74.0,60.0,38.0,55.0,43.0,60,3175.0,square1,j,0.4124,0,V,5.0
V5,75.0,63.0,45.0,50.0,37.0,50,3225.0,square3,f,0.2681,2,V,5.0
V5,76.0,62.0,42.0,50.0,37.0,99999,3225.0,invalid,,,-1,V,5.0
V5,77.0,57.0,37.0,52.0,35.0,37,3262.0,square2,r,1.6709,1,V,5.0
V5,78.0,66.0,45.0,54.0,37.0,66,3328.0,square1,j,0.1934,0,V,5.0
V5,79.0,64.0,37.0,48.0,35.0,64,3392.0,square1,j,0.2924,0,V,5.0
V5,80.0,63.0,40.0,56.0,38.0,63,3455.0,square1,j,0.117,0,V,5.0
V5,81.0,62.0,41.0,54.0,32.0,62,3517.0,square1,j,0.1031,0,V,5.0
V5,82.0,58.0,41.0,59.0,39.0,58,3575.0,square1,j,0.2288,0,V,5.0
V5,83.0,66.0,46.0,54.0,35.0,66,3641.0,square1,j,0.0597,0,V,5.0
V5,84.0,67.0,44.0,52.0,33.0,67,3708.0,square1,j,0.6228,0,V,5.0
V5,85.0,67.0,45.0,46.0,36.0,67,3775.0,square1,j,0.2081,0,V,5.0
V5,86.0,65.0,44.0,51.0,38.0,65,3840.0,square1,j,0.3087,0,V,5.0
V5,87.0,64.0,49.0,48.0,35.0,64,3904.0,square1,j,0.2293,0,V,5.0
V5,88.0,68.0,47.0,56.0,36.0,68,3972.0,square1,j,0.2943,0,V,5.0
V5,89.0,60.0,42.0,57.0,32.0,60,4032.0,square1,j,0.2354,0,V,5.0
V5,90.0,59.0,43.0,53.0,34.0,59,4091.0,square1,j,0.003,0,V,5.0
V5,91.0,64.0,43.0,51.0,34.0,64,4155.0,square1,j,0.2386,0,V,5.0
V5,92.0,65.0,41.0,57.0,38.0,65,4220.0,square1,j,0.3397,0,V,5.0
V5,93.0,59.0,48.0,54.0,40.0,59,4279.0,square1,j,0.1461,0,V,5.0
V5,94.0,66.0,44.0,53.0,43.0,66,4345.0,square1,j,0.3428,0,V,5.0
V5,95.0,63.0,43.0,50.0,40.0,63,4408.0,square1,j,0.0933,0,V,5.0
V5,96.0,62.0,44.0,50.0,33.0,62,4470.0,square1,j,0.2609,0,V,5.0
V5,97.0,64.0,49.0,55.0,37.0,64,4534.0,square1,j,0.1267,0,V,5.0
V5,98.0,65.0,44.0,53.0,36.0,65,4599.0,square1,j,0.0947,0,V,5.0
V5,99.0,65.0,42.0,55.0,35.0,65,4664.0,square1,j,0.0618,0,V,5.0
V4,0.0,63.0,38.0,47.0,55.0,99999,0.0,invalid,,,-1,V,4.0
V4,1.0,66.0,42.0,43.0,59.0,99999,0.0,invalid,,,-1,V,4.0
V4,2.0,66.0,39.0,57.0,59.0,39,39.0,square2,f,0.8601,1,V,4.0
V4,3.0,66.0,37.0,51.0,59.0,66,105.0,square1,r,0.0657,0,V,4.0
V4,4.0,69.0,37.0,50.0,55.0,50,155.0,square3,i,0.0667,2,V,4.0
V4,5.0,64.0,44.0,46.0,62.0,62,217.0,square4,j,0.0022,3,V,4.0
V4,6.0,75.0,43.0,49.0,57.0,75,292.0,square1,r,0.0681,0,V,4.0
V4,7.0,62.0,41.0,52.0,59.0,62,354.0,square1,r,0.1423,0,V,4.0
V4,8.0,65.0,41.0,44.0,60.0,65,419.0,square1,r,0.4689,0,V,4.0
V4,9.0,68.0,35.0,44.0,64.0,68,487.0,square1,r,0.2279,0,V,4.0
V4,10.0,67.0,44.0,48.0,61.0,67,554.0,square1,r,0.2256,0,V,4.0
V4,11.0,61.0,40.0,48.0,56.0,61,615.0,square1,r,0.0126,0,V,4.0
V4,12.0,68.0,41.0,49.0,55.0,68,683.0,square1,r,0.3044,0,V,4.0
V4,13.0,63.0,42.0,47.0,60.0,42,725.0,square2,f,0.1982,1,V,4.0
V4,14.0,63.0,40.0,51.0,55.0,63,788.0,square1,r,0.2457,0,V,4.0
V4,15.0,62.0,41.0,52.0,62.0,62,850.0,square1,r,0.0021,0,V,4.0
V4,16.0,69.0,37.0,47.0,60.0,69,919.0,square1,r,0.2392,0,V,4.0
V4,17.0,66.0,40.0,48.0,56.0,66,985.0,square1,r,0.0433,0,V,4.0
V4,18.0,67.0,43.0,47.0,59.0,67,1052.0,square1,r,0.0039,0,V,4.0
V4,19.0,64.0,42.0,51.0,59.0,64,1116.0,square1,r,0.0609,0,V,4.0
V4,20.0,67.0,40.0,47.0,58.0,67,1183.0,square1,r,0.5952,0,V,4.0
V4,21.0,60.0,41.0,50.0,59.0,60,1243.0,square1,r,0.1487,0,V,4.0
V4,22.0,66.0,43.0,54.0,55.0,66,1309.0,square1,r,0.2443,0,V,4.0
V4,23.0,67.0,37.0,50.0,62.0,67,1376.0,square1,r,0.1425,0,V,4.0
V4,24.0,67.0,37.0,49.0,60.0,67,1443.0,square1,r,0.2656,0,V,4.0
V4,25.0,67.0,39.0,55.0,52.0,67,1510.0,square1,r,0.2948,0,V,4.0
V4,26.0,64.0,39.0,51.0,63.0,51,1561.0,square3,i,0.1626,2,V,4.0
V4,27.0,68.0,36.0,55.0,60.0,60,1621.0,square4,j,0.6443,3,V,4.0
V4,28.0,67.0,40.0,46.0,54.0,40,1661.0,square2,f,0.3018,1,V,4.0
V4,29.0,67.0,41.0,50.0,57.0,67,1728.0,square1,r,0.0919,0,V,4.0
V4,30.0,66.0,39.0,49.0,53.0,66,1794.0,square1,r,0.003,0,V,4.0
V4,31.0,70.0,38.0,48.0,58.0,70,1864.0,square1,r,0.543,0,V,4.0
V4,32.0,63.0,40.0,53.0,61.0,63,1927.0,square1,r,0.3054,0,V,4.0
V4,33.0,66.0,41.0,51.0,56.0,66,1993.0,square1,r,0.3268,0,V,4.0
V4,34.0,64.0,39.0,46.0,57.0,64,2057.0,square1,r,0.1622,0,V,4.0
V4,35.0,69.0,36.0,50.0,58.0,69,2126.0,square1,r,0.1776,0,V,4.0
V4,36.0,60.0,43.0,53.0,54.0,60,2186.0,square1,r,0.3307,0,V,4.0
V4,37.0,52.0,78.0,68.0,66.0,52,2238.0,square1,r,0.2341,0,V,4.0
V4,38.0,44.0,81.0,68.0,62.0,44,2282.0,square1,r,0.1444,0,V,4.0
V4,39.0,59.0,71.0,70.0,63.0,70,2352.0,square3,i,0.6479,2,V,4.0
V4,40.0,53.0,77.0,73.0,59.0,73,2425.0,square3,i,0.0765,2,V,4.0
V4,41.0,53.0,76.0,74.0,66.0,74,2499.0,square3,i,0.7922,2,V,4.0
V4,42.0,51.0,79.0,73.0,59.0,73,2572.0,square3,i,0.1655,2,V,4.0
V4,43.0,48.0,76.0,68.0,65.0,68,2640.0,square3,i,0.0479,2,V,4.0
V4,44.0,57.0,83.0,78.0,63.0,78,2718.0,square3,i,0.2274,2,V,4.0
V4,45.0,54.0,74.0,69.0,61.0,69,2787.0,square3,i,0.1009,2,V,4.0
V4,46.0,53.0,85.0,66.0,62.0,66,2853.0,square3,i,0.8938,2,V,4.0
V4,47.0,56.0,83.0,68.0,57.0,68,2921.0,square3,i,0.1437,2,V,4.0
V4,48.0,49.0,74.0,73.0,59.0,73,2994.0,square3,i,0.1882,2,V,4.0
V4,49.0,54.0,74.0,70.0,60.0,70,3064.0,square3,i,0.2362,2,V,4.0
V4,50.0,47.0,83.0,69.0,60.0,69,3133.0,square3,i,0.0892,2,V,4.0
V4,51.0,54.0,78.0,73.0,56.0,73,3206.0,square3,i,0.0012,2,V,4.0
V4,52.0,52.0,76.0,71.0,58.0,71,3277.0,square3,i,0.01,2,V,4.0
V4,53.0,51.0,82.0,76.0,63.0,76,3353.0,square3,i,0.0025,2,V,4.0
V4,54.0,57.0,76.0,69.0,64.0,69,3422.0,square3,i,0.7004,2,V,4.0
V4,55.0,49.0,75.0,68.0,59.0,68,3490.0,square3,i,0.1443,2,V,4.0
V4,56.0,55.0,81.0,66.0,65.0,66,3556.0,square3,i,0.326,2,V,4.0
V4,57.0,58.0,80.0,72.0,63.0,72,3628.0,square3,i,0.1129,2,V,4.0
V4,58.0,49.0,81.0,66.0,62.0,66,3694.0,square3,i,0.1999,2,V,4.0
V4,59.0,57.0,78.0,73.0,59.0,73,3767.0,square3,i,0.1652,2,V,4.0
V4,60.0,48.0,79.0,66.0,59.0,66,3833.0,square3,i,0.1548,2,V,4.0
V4,61.0,53.0,80.0,72.0,60.0,72,3905.0,square3,i,0.3391,2,V,4.0
V4,62.0,53.0,79.0,70.0,61.0,70,3975.0,square3,i,0.2327,2,V,4.0
V4,63.0,81.0,66.0,90.0,66.0,90,4065.0,square3,i,0.713,2,V,4.0
V4,64.0,80.0,64.0,85.0,76.0,85,4150.0,square3,i,0.1831,2,V,4.0
V4,65.0,77.0,61.0,92.0,74.0,92,4242.0,square3,i,0.366,2,V,4.0
V4,66.0,89.0,65.0,91.0,73.0,91,4333.0,square3,i,0.277,2,V,4.0
V4,67.0,86.0,64.0,92.0,70.0,92,4425.0,square3,i,0.4027,2,V,4.0
V4,68.0,82.0,60.0,91.0,77.0,91,4516.0,square3,i,0.3129,2,V,4.0
V4,69.0,78.0,69.0,90.0,70.0,90,4606.0,square3,i,0.2436,2,V,4.0
V4,70.0,85.0,64.0,95.0,73.0,95,4701.0,square3,i,0.3106,2,V,4.0
V4,71.0,85.0,61.0,88.0,69.0,88,4789.0,square3,i,0.0992,2,V,4.0
V4,72.0,86.0,63.0,87.0,75.0,87,4876.0,square3,i,0.0792,2,V,4.0
V4,73.0,86.0,69.0,92.0,70.0,92,4968.0,square3,i,0.0758,2,V,4.0
V4,74.0,81.0,62.0,90.0,69.0,90,5058.0,square3,i,0.2986,2,V,4.0
V4,75.0,83.0,66.0,88.0,74.0,88,5146.0,square3,i,0.0749,2,V,4.0
V4,76.0,80.0,64.0,92.0,75.0,92,5238.0,square3,i,0.3338,2,V,4.0
V4,77.0,81.0,65.0,91.0,74.0,91,5329.0,square3,i,0.499,2,V,4.0
V4,78.0,78.0,70.0,89.0,73.0,89,5418.0,square3,i,0.7788,2,V,4.0
V4,79.0,84.0,66.0,85.0,75.0,85,5503.0,square3,i,0.2308,2,V,4.0
V4,80.0,83.0,65.0,93.0,74.0,93,5596.0,square3,i,0.5442,2,V,4.0
V4,81.0,86.0,59.0,91.0,74.0,91,5687.0,square3,i,0.1978,2,V,4.0
V4,82.0,87.0,64.0,92.0,73.0,92,5779.0,square3,i,0.23,2,V,4.0
V4,83.0,83.0,68.0,86.0,70.0,86,5865.0,square3,i,0.1825,2,V,4.0
V4,84.0,82.0,62.0,87.0,73.0,87,5952.0,square3,i,0.1409,2,V,4.0
V4,85.0,85.0,61.0,90.0,70.0,90,6042.0,square3,i,0.2265,2,V,4.0
V4,86.0,84.0,66.0,97.0,71.0,97,6139.0,square3,i,0.4093,2,V,4.0
V4,87.0,82.0,64.0,87.0,71.0,87,6226.0,square3,i,0.3618,2,V,4.0
V4,88.0,80.0,67.0,93.0,72.0,93,6319.0,square3,i,0.2595,2,V,4.0
V4,89.0,78.0,64.0,92.0,75.0,92,6411.0,square3,i,0.2079,2,V,4.0
V4,90.0,75.0,66.0,88.0,72.0,88,6499.0,square3,i,0.4699,2,V,4.0
V4,91.0,82.0,59.0,91.0,76.0,91,6590.0,square3,i,0.2013,2,V,4.0
V4,92.0,84.0,62.0,91.0,70.0,91,6681.0,square3,i,0.3255,2,V,4.0
V4,93.0,80.0,61.0,94.0,76.0,94,6775.0,square3,i,0.276,2,V,4.0
V4,94.0,83.0,64.0,88.0,72.0,88,6863.0,square3,i,0.4393,2,V,4.0
V4,95.0,82.0,60.0,94.0,69.0,94,6957.0,square3,i,0.125,2,V,4.0
V4,96.0,84.0,63.0,92.0,72.0,92,7049.0,square3,i,0.1746,2,V,4.0
V4,97.0,84.0,62.0,85.0,70.0,85,7134.0,square3,i,0.104,2,V,4.0
V4,98.0,81.0,64.0,93.0,72.0,93,7227.0,square3,i,0.1592,2,V,4.0
V4,99.0,80.0,61.0,92.0,75.0,92,7319.0,square3,i,0.1918,2,V,4.0
V6,0.0,43.0,59.0,68.0,49.0,99999,0.0,invalid,,,-1,V,6.0
V6,1.0,43.0,62.0,71.0,50.0,99999,0.0,invalid,,,-1,V,6.0
V6,2.0,48.0,61.0,72.0,51.0,61,61.0,square2,i,0.5005,1,V,6.0
V6,3.0,46.0,55.0,71.0,51.0,71,132.0,square3,j,0.1181,2,V,6.0
V6,4.0,44.0,61.0,74.0,48.0,44,176.0,square1,f,0.163,0,V,6.0
V6,5.0,45.0,62.0,70.0,51.0,51,227.0,square4,r,0.0986,3,V,6.0
V6,6.0,42.0,67.0,73.0,46.0,73,300.0,square3,j,0.0017,2,V,6.0
V6,7.0,44.0,63.0,71.0,53.0,71,371.0,square3,j,0.4116,2,V,6.0
V6,8.0,41.0,62.0,73.0,52.0,73,444.0,square3,j,0.2822,2,V,6.0
V6,9.0,46.0,59.0,72.0,54.0,72,516.0,square3,j,0.3798,2,V,6.0
V6,10.0,45.0,59.0,70.0,53.0,70,586.0,square3,j,0.3285,2,V,6.0
V6,11.0,45.0,60.0,70.0,49.0,70,656.0,square3,j,0.2796,2,V,6.0
V6,12.0,45.0,66.0,64.0,48.0,64,720.0,square3,j,0.1854,2,V,6.0
V6,13.0,45.0,61.0,69.0,47.0,69,789.0,square3,j,0.665,2,V,6.0
V6,14.0,47.0,60.0,71.0,56.0,71,860.0,square3,j,0.3106,2,V,6.0
V6,15.0,46.0,64.0,67.0,52.0,67,927.0,square3,j,0.2919,2,V,6.0
V6,16.0,50.0,60.0,69.0,54.0,69,996.0,square3,j,0.2781,2,V,6.0
V6,17.0,43.0,60.0,70.0,53.0,70,1066.0,square3,j,0.2958,2,V,6.0
V6,18.0,46.0,63.0,72.0,55.0,72,1138.0,square3,j,0.2909,2,V,6.0
V6,19.0,46.0,65.0,73.0,51.0,73,1211.0,square3,j,0.2921,2,V,6.0
V6,20.0,44.0,63.0,66.0,51.0,66,1277.0,square3,j,0.164,2,V,6.0
V6,21.0,43.0,63.0,70.0,49.0,70,1347.0,square3,j,0.1902,2,V,6.0
V6,22.0,45.0,63.0,71.0,50.0,71,1418.0,square3,j,0.2595,2,V,6.0
V6,23.0,45.0,38.0,28.0,60.0,28,1446.0,square3,j,0.2601,2,V,6.0
V6,24.0,46.0,33.0,33.0,53.0,46,1492.0,square1,f,0.3963,0,V,6.0
V6,25.0,45.0,36.0,32.0,63.0,63,1555.0,square4,r,0.1918,3,V,6.0
V6,26.0,52.0,37.0,28.0,57.0,37,1592.0,square2,i,0.3041,1,V,6.0
V6,27.0,45.0,33.0,30.0,62.0,62,1654.0,square4,r,0.7142,3,V,6.0
V6,28.0,43.0,37.0,24.0,51.0,51,1705.0,square4,r,0.1281,3,V,6.0
V6,29.0,48.0,39.0,34.0,61.0,61,1766.0,square4,r,0.2426,3,V,6.0
V6,30.0,48.0,44.0,35.0,59.0,59,1825.0,square4,r,0.1864,3,V,6.0
V6,31.0,50.0,39.0,34.0,53.0,53,1878.0,square4,r,0.158,3,V,6.0
V6,32.0,44.0,33.0,33.0,54.0,54,1932.0,square4,r,0.2338,3,V,6.0
V6,33.0,48.0,37.0,30.0,56.0,56,1988.0,square4,r,0.6512,3,V,6.0
V6,34.0,52.0,37.0,27.0,59.0,59,2047.0,square4,r,0.5468,3,V,6.0
V6,35.0,47.0,32.0,29.0,59.0,59,2106.0,square4,r,0.3771,3,V,6.0
V6,36.0,45.0,37.0,27.0,56.0,56,2162.0,square4,r,0.2094,3,V,6.0
V6,37.0,39.0,37.0,31.0,57.0,57,2219.0,square4,r,0.2882,3,V,6.0
V6,38.0,50.0,38.0,29.0,56.0,56,2275.0,square4,r,0.4776,3,V,6.0
V6,39.0,48.0,37.0,27.0,57.0,57,2332.0,square4,r,0.5781,3,V,6.0
V6,40.0,53.0,37.0,29.0,57.0,57,2389.0,square4,r,0.2605,3,V,6.0
V6,41.0,41.0,34.0,33.0,58.0,58,2447.0,square4,r,0.4922,3,V,6.0
V6,42.0,50.0,37.0,31.0,57.0,57,2504.0,square4,r,0.4916,3,V,6.0
V6,43.0,48.0,34.0,30.0,58.0,58,2562.0,square4,r,0.2968,3,V,6.0
V6,44.0,44.0,37.0,33.0,60.0,60,2622.0,square4,r,0.2412,3,V,6.0
V6,45.0,44.0,32.0,33.0,55.0,55,2677.0,square4,r,0.4471,3,V,6.0
V6,46.0,44.0,36.0,33.0,59.0,59,2736.0,square4,r,0.2745,3,V,6.0
V6,47.0,42.0,34.0,29.0,52.0,52,2788.0,square4,r,0.1424,3,V,6.0
V6,48.0,46.0,41.0,28.0,60.0,60,2848.0,square4,r,0.4293,3,V,6.0
V6,49.0,46.0,40.0,27.0,55.0,55,2903.0,square4,r,0.2609,3,V,6.0
V6,50.0,46.0,41.0,32.0,55.0,55,2958.0,square4,r,0.2755,3,V,6.0
V6,51.0,41.0,39.0,30.0,55.0,55,3013.0,square4,r,0.2314,3,V,6.0
V6,52.0,47.0,37.0,31.0,55.0,55,3068.0,square4,r,0.0735,3,V,6.0
V6,53.0,57.0,36.0,30.0,58.0,58,3126.0,square4,r,0.4483,3,V,6.0
V6,54.0,42.0,38.0,28.0,50.0,50,3176.0,square4,r,0.2896,3,V,6.0
V6,55.0,56.0,42.0,67.0,46.0,46,3222.0,square4,r,0.249,3,V,6.0
V6,56.0,54.0,37.0,68.0,46.0,46,3268.0,square4,r,0.0028,3,V,6.0
V6,57.0,57.0,40.0,64.0,52.0,52,3320.0,square4,r,1.5637,3,V,6.0
V6,58.0,53.0,45.0,68.0,45.0,45,3365.0,square4,r,0.6578,3,V,6.0
V6,59.0,59.0,41.0,69.0,49.0,49,3414.0,square4,r,0.4575,3,V,6.0
V6,60.0,62.0,41.0,71.0,51.0,51,3465.0,square4,r,0.2936,3,V,6.0
V6,61.0,58.0,50.0,72.0,51.0,51,3516.0,square4,r,0.2095,3,V,6.0
V6,62.0,61.0,43.0,65.0,47.0,47,3563.0,square4,r,0.0212,3,V,6.0
V6,63.0,55.0,40.0,67.0,51.0,51,3614.0,square4,r,0.2939,3,V,6.0
V6,64.0,56.0,43.0,67.0,47.0,47,3661.0,square4,r,0.2651,3,V,6.0
V6,65.0,62.0,46.0,67.0,48.0,48,3709.0,square4,r,0.0911,3,V,6.0
V6,66.0,55.0,44.0,67.0,48.0,48,3757.0,square4,r,0.0937,3,V,6.0
V6,67.0,61.0,46.0,70.0,49.0,49,3806.0,square4,r,0.1157,3,V,6.0
V6,68.0,63.0,41.0,72.0,46.0,46,3852.0,square4,r,0.411,3,V,6.0
V6,69.0,59.0,41.0,68.0,48.0,48,3900.0,square4,r,0.34,3,V,6.0
V6,70.0,59.0,37.0,70.0,45.0,45,3945.0,square4,r,0.429,3,V,6.0
V6,71.0,83.0,64.0,56.0,70.0,70,4015.0,square4,r,0.0879,3,V,6.0
V6,72.0,82.0,59.0,53.0,75.0,75,4090.0,square4,r,0.2241,3,V,6.0
V6,73.0,85.0,67.0,58.0,73.0,73,4163.0,square4,r,0.0991,3,V,6.0
V6,74.0,79.0,67.0,61.0,73.0,73,4236.0,square4,r,0.0226,3,V,6.0
V6,75.0,84.0,62.0,53.0,69.0,69,4305.0,square4,r,0.275,3,V,6.0
V6,76.0,81.0,60.0,55.0,76.0,76,4381.0,square4,r,0.1086,3,V,6.0
V6,77.0,84.0,61.0,60.0,72.0,72,4453.0,square4,r,0.6823,3,V,6.0
V6,78.0,90.0,61.0,54.0,74.0,74,4527.0,square4,r,0.4622,3,V,6.0
V6,79.0,80.0,64.0,51.0,75.0,75,4602.0,square4,r,0.2883,3,V,6.0
V6,80.0,85.0,62.0,56.0,78.0,78,4680.0,square4,r,0.1559,3,V,6.0
V6,81.0,86.0,65.0,58.0,69.0,69,4749.0,square4,r,0.1439,3,V,6.0
V6,82.0,83.0,62.0,58.0,77.0,77,4826.0,square4,r,0.1266,3,V,6.0
V6,83.0,87.0,61.0,59.0,70.0,70,4896.0,square4,r,0.1759,3,V,6.0
V6,84.0,89.0,65.0,54.0,78.0,78,4974.0,square4,r,0.0317,3,V,6.0
V6,85.0,78.0,63.0,55.0,75.0,75,5049.0,square4,r,0.0118,3,V,6.0
V6,86.0,87.0,67.0,52.0,75.0,75,5124.0,square4,r,0.1038,3,V,6.0
V6,87.0,86.0,62.0,60.0,75.0,75,5199.0,square4,r,0.2413,3,V,6.0
V6,88.0,79.0,67.0,56.0,76.0,76,5275.0,square4,r,0.7457,3,V,6.0
V6,89.0,83.0,61.0,57.0,75.0,75,5350.0,square4,r,0.1187,3,V,6.0
V6,90.0,83.0,67.0,51.0,76.0,76,5426.0,square4,r,0.2941,3,V,6.0
V6,91.0,83.0,63.0,55.0,69.0,69,5495.0,square4,r,0.1229,3,V,6.0
V6,92.0,89.0,56.0,53.0,68.0,68,5563.0,square4,r,0.2285,3,V,6.0
V6,93.0,84.0,61.0,59.0,74.0,74,5637.0,square4,r,0.0476,3,V,6.0
V6,94.0,77.0,58.0,58.0,76.0,76,5713.0,square4,r,0.0945,3,V,6.0
V6,95.0,82.0,60.0,53.0,74.0,74,5787.0,square4,r,0.2897,3,V,6.0
V6,96.0,87.0,61.0,56.0,71.0,71,5858.0,square4,r,0.0982,3,V,6.0
V6,97.0,83.0,66.0,55.0,75.0,75,5933.0,square4,r,0.144,3,V,6.0
V6,98.0,81.0,63.0,55.0,76.0,76,6009.0,square4,r,0.2261,3,V,6.0
V6,99.0,92.0,63.0,61.0,78.0,78,6087.0,square4,r,1.5027,3,V,6.0
S8,0.0,58.0,60.0,52.0,45.0,99999,0.0,invalid,,,-1,S,8.0
S8,1.0,55.0,57.0,56.0,52.0,56,56.0,square3,f,0.9007,2,S,8.0
S8,2.0,54.0,58.0,58.0,49.0,58,114.0,square2,j,0.1758,1,S,8.0
S8,3.0,55.0,62.0,52.0,53.0,53,167.0,square4,i,0.1488,3,S,8.0
S8,4.0,55.0,60.0,49.0,51.0,55,222.0,square1,r,0.0177,0,S,8.0
S8,5.0,48.0,63.0,61.0,49.0,63,285.0,square2,j,0.4597,1,S,8.0
S8,6.0,58.0,63.0,59.0,55.0,63,348.0,square2,j,0.0903,1,S,8.0
S8,7.0,56.0,53.0,49.0,51.0,53,401.0,square2,j,0.1734,1,S,8.0
S8,8.0,61.0,63.0,66.0,49.0,63,464.0,square2,j,0.617,1,S,8.0
S8,9.0,60.0,59.0,53.0,47.0,59,523.0,square2,j,0.0319,1,S,8.0
S8,10.0,55.0,63.0,52.0,55.0,63,586.0,square2,j,0.1047,1,S,8.0
S8,11.0,62.0,60.0,54.0,50.0,60,646.0,square2,j,0.1836,1,S,8.0
S8,12.0,58.0,64.0,51.0,52.0,64,710.0,square2,j,0.1365,1,S,8.0
S8,13.0,62.0,59.0,53.0,53.0,59,769.0,square2,j,0.1069,1,S,8.0
S8,14.0,51.0,62.0,61.0,54.0,62,831.0,square2,j,0.2244,1,S,8.0
S8,15.0,56.0,68.0,56.0,50.0,68,899.0,square2,j,0.1607,1,S,8.0
S8,16.0,58.0,64.0,56.0,50.0,64,963.0,square2,j,0.1188,1,S,8.0
S8,17.0,64.0,63.0,60.0,42.0,63,1026.0,square2,j,0.0536,1,S,8.0
S8,18.0,54.0,64.0,57.0,55.0,64,1090.0,square2,j,0.7072,1,S,8.0
S8,19.0,56.0,53.0,57.0,53.0,53,1143.0,square2,j,0.5411,1,S,8.0
S8,20.0,59.0,64.0,56.0,49.0,64,1207.0,square2,j,0.2549,1,S,8.0
S8,21.0,54.0,59.0,55.0,48.0,59,1266.0,square2,j,0.2902,1,S,8.0
S8,22.0,63.0,63.0,59.0,49.0,63,1329.0,square2,j,0.2275,1,S,8.0
S8,23.0,59.0,60.0,48.0,52.0,60,1389.0,square2,j,0.0523,1,S,8.0
S8,24.0,55.0,53.0,60.0,50.0,53,1442.0,square2,j,0.2809,1,S,8.0
S8,25.0,57.0,60.0,55.0,54.0,60,1502.0,square2,j,0.159,1,S,8.0
S8,26.0,62.0,66.0,57.0,58.0,66,1568.0,square2,j,0.0146,1,S,8.0
S8,27.0,58.0,55.0,52.0,48.0,55,1623.0,square2,j,0.1857,1,S,8.0
S8,28.0,53.0,59.0,53.0,55.0,59,1682.0,square2,j,0.6599,1,S,8.0
S8,29.0,60.0,58.0,57.0,53.0,58,1740.0,square2,j,0.0109,1,S,8.0
S8,30.0,57.0,67.0,52.0,56.0,67,1807.0,square2,j,0.1129,1,S,8.0
S8,31.0,60.0,58.0,52.0,50.0,58,1865.0,square2,j,0.0026,1,S,8.0
S8,32.0,54.0,61.0,56.0,57.0,61,1926.0,square2,j,0.2469,1,S,8.0
S8,33.0,66.0,64.0,63.0,52.0,64,1990.0,square2,j,0.0901,1,S,8.0
S8,34.0,54.0,65.0,66.0,56.0,65,2055.0,square2,j,0.2145,1,S,8.0
S8,35.0,54.0,62.0,61.0,48.0,62,2117.0,square2,j,0.2054,1,S,8.0
S8,36.0,53.0,63.0,54.0,55.0,63,2180.0,square2,j,0.0265,1,S,8.0
S8,37.0,64.0,58.0,57.0,51.0,58,2238.0,square2,j,0.1327,1,S,8.0
S8,38.0,68.0,65.0,59.0,57.0,65,2303.0,square2,j,0.1432,1,S,8.0
S8,39.0,64.0,65.0,51.0,55.0,65,2368.0,square2,j,0.7323,1,S,8.0
S8,40.0,63.0,61.0,57.0,47.0,61,2429.0,square2,j,0.1062,1,S,8.0
S8,41.0,65.0,58.0,55.0,49.0,58,2487.0,square2,j,0.487,1,S,8.0
S8,42.0,52.0,60.0,51.0,56.0,60,2547.0,square2,j,0.2271,1,S,8.0
S8,43.0,63.0,57.0,48.0,50.0,57,2604.0,square2,j,0.0198,1,S,8.0
S8,44.0,59.0,63.0,53.0,53.0,63,2667.0,square2,j,0.6231,1,S,8.0
S8,45.0,62.0,62.0,60.0,53.0,62,2729.0,square2,j,0.0825,1,S,8.0
S8,46.0,56.0,62.0,57.0,60.0,62,2791.0,square2,j,0.3466,1,S,8.0
S8,47.0,60.0,63.0,58.0,56.0,63,2854.0,square2,j,0.0673,1,S,8.0
S8,48.0,59.0,63.0,49.0,53.0,63,2917.0,square2,j,0.0765,1,S,8.0
S8,49.0,67.0,67.0,59.0,55.0,99999,2917.0,invalid,,,-1,S,8.0
S4,0.0,18.0,16.0,34.0,20.0,99999,0.0,invalid,,,-1,S,4.0
S4,1.0,33.0,26.0,26.0,23.0,23,23.0,square4,f,0.0023,3,S,4.0
S4,2.0,35.0,15.0,33.0,22.0,15,38.0,square2,r,0.022,1,S,4.0
S4,3.0,28.0,19.0,27.0,27.0,28,66.0,square1,i,0.1171,0,S,4.0
S4,4.0,27.0,16.0,25.0,28.0,25,91.0,square3,j,0.0826,2,S,4.0
S4,5.0,23.0,22.0,31.0,24.0,23,114.0,square1,i,0.0012,0,S,4.0
S4,6.0,25.0,20.0,34.0,23.0,25,139.0,square1,i,0.0437,0,S,4.0
S4,7.0,21.0,22.0,30.0,21.0,21,160.0,square1,i,0.5613,0,S,4.0
S4,8.0,33.0,24.0,33.0,17.0,33,193.0,square1,i,0.1498,0,S,4.0
S4,9.0,24.0,18.0,31.0,28.0,24,217.0,square1,i,0.1625,0,S,4.0
S4,10.0,31.0,26.0,35.0,20.0,31,248.0,square1,i,0.2287,0,S,4.0
S4,11.0,25.0,15.0,31.0,25.0,25,273.0,square1,i,0.0766,0,S,4.0
S4,12.0,24.0,16.0,29.0,22.0,24,297.0,square1,i,0.2462,0,S,4.0
S4,13.0,28.0,23.0,25.0,17.0,28,325.0,square1,i,0.2118,0,S,4.0
S4,14.0,22.0,23.0,21.0,23.0,22,347.0,square1,i,0.2856,0,S,4.0
S4,15.0,25.0,19.0,28.0,25.0,25,372.0,square1,i,0.2629,0,S,4.0
S4,16.0,26.0,17.0,30.0,21.0,26,398.0,square1,i,0.1211,0,S,4.0
S4,17.0,22.0,21.0,29.0,22.0,22,420.0,square1,i,0.4,0,S,4.0
S4,18.0,28.0,22.0,32.0,22.0,28,448.0,square1,i,0.091,0,S,4.0
S4,19.0,26.0,19.0,31.0,26.0,26,474.0,square1,i,0.1353,0,S,4.0
S4,20.0,28.0,18.0,28.0,25.0,28,502.0,square1,i,0.2007,0,S,4.0
S4,21.0,33.0,26.0,21.0,29.0,33,535.0,square1,i,0.1284,0,S,4.0
S4,22.0,31.0,19.0,29.0,20.0,31,566.0,square1,i,0.2627,0,S,4.0
S4,23.0,27.0,21.0,36.0,26.0,27,593.0,square1,i,0.5852,0,S,4.0
S4,24.0,28.0,15.0,32.0,21.0,28,621.0,square1,i,0.1457,0,S,4.0
S4,25.0,27.0,18.0,28.0,25.0,27,648.0,square1,i,0.3251,0,S,4.0
S4,26.0,26.0,20.0,27.0,14.0,26,674.0,square1,i,0.2239,0,S,4.0
S4,27.0,28.0,19.0,36.0,18.0,28,702.0,square1,i,0.091,0,S,4.0
S4,28.0,28.0,19.0,28.0,23.0,28,730.0,square1,i,0.0029,0,S,4.0
S4,29.0,25.0,22.0,29.0,23.0,25,755.0,square1,i,0.2599,0,S,4.0
S4,30.0,26.0,16.0,30.0,20.0,26,781.0,square1,i,0.8152,0,S,4.0
S4,31.0,23.0,25.0,26.0,30.0,23,804.0,square1,i,0.1622,0,S,4.0
S4,32.0,21.0,26.0,22.0,23.0,21,825.0,square1,i,0.0782,0,S,4.0
S4,33.0,25.0,22.0,24.0,17.0,25,850.0,square1,i,0.1322,0,S,4.0
S4,34.0,30.0,22.0,33.0,24.0,30,880.0,square1,i,0.3525,0,S,4.0
S4,35.0,23.0,21.0,35.0,26.0,23,903.0,square1,i,0.4606,0,S,4.0
S4,36.0,19.0,21.0,33.0,24.0,19,922.0,square1,i,0.1337,0,S,4.0
S4,37.0,20.0,17.0,26.0,26.0,20,942.0,square1,i,0.2696,0,S,4.0
S4,38.0,28.0,20.0,28.0,26.0,28,970.0,square1,i,0.4125,0,S,4.0
S4,39.0,28.0,23.0,40.0,27.0,28,998.0,square1,i,0.1968,0,S,4.0
S4,40.0,25.0,24.0,32.0,22.0,25,1023.0,square1,i,0.0821,0,S,4.0
S4,41.0,23.0,23.0,26.0,17.0,23,1046.0,square1,i,0.0976,0,S,4.0
S4,42.0,26.0,18.0,33.0,22.0,26,1072.0,square1,i,0.1277,0,S,4.0
S4,43.0,22.0,21.0,36.0,25.0,22,1094.0,square1,i,0.1161,0,S,4.0
S4,44.0,21.0,18.0,33.0,14.0,21,1115.0,square1,i,0.2218,0,S,4.0
S4,45.0,29.0,19.0,30.0,29.0,29,1144.0,square1,i,0.4989,0,S,4.0
S4,46.0,21.0,16.0,22.0,23.0,21,1165.0,square1,i,0.2598,0,S,4.0
S4,47.0,22.0,18.0,28.0,22.0,22,1187.0,square1,i,0.3149,0,S,4.0
S4,48.0,33.0,21.0,32.0,26.0,33,1220.0,square1,i,0.1709,0,S,4.0
S4,49.0,23.0,17.0,20.0,21.0,23,1243.0,square1,i,0.333,0,S,4.0
S7,0.0,68.0,73.0,62.0,57.0,99999,0.0,invalid,,,-1,S,7.0
S7,1.0,74.0,67.0,66.0,59.0,66,66.0,square3,r,0.3153,2,S,7.0
S7,2.0,68.0,69.0,65.0,60.0,60,126.0,square4,i,0.0785,3,S,7.0
S7,3.0,74.0,68.0,65.0,63.0,74,200.0,square1,j,0.2155,0,S,7.0
S7,4.0,68.0,74.0,67.0,63.0,74,274.0,square2,f,0.1953,1,S,7.0
S7,5.0,68.0,67.0,61.0,57.0,67,341.0,square2,f,0.2068,1,S,7.0
S7,6.0,72.0,64.0,65.0,51.0,72,413.0,square1,j,0.2823,0,S,7.0
S7,7.0,69.0,63.0,69.0,63.0,63,476.0,square2,f,0.1757,1,S,7.0
S7,8.0,71.0,68.0,63.0,54.0,71,547.0,square1,j,0.9942,0,S,7.0
S7,9.0,81.0,66.0,68.0,62.0,81,628.0,square1,j,0.1213,0,S,7.0
S7,10.0,72.0,73.0,68.0,61.0,72,700.0,square1,j,0.2595,0,S,7.0
S7,11.0,72.0,72.0,62.0,58.0,72,772.0,square1,j,0.0177,0,S,7.0
S7,12.0,66.0,66.0,62.0,61.0,66,838.0,square1,j,0.1043,0,S,7.0
S7,13.0,73.0,75.0,75.0,68.0,75,913.0,square2,f,0.0028,1,S,7.0
S7,14.0,71.0,73.0,72.0,66.0,71,984.0,square1,j,0.0486,0,S,7.0
S7,15.0,75.0,68.0,68.0,65.0,68,1052.0,square2,f,0.1455,1,S,7.0
S7,16.0,67.0,65.0,62.0,56.0,67,1119.0,square1,j,0.1486,0,S,7.0
S7,17.0,72.0,67.0,63.0,64.0,67,1186.0,square2,f,0.1435,1,S,7.0
S7,18.0,73.0,69.0,66.0,65.0,73,1259.0,square1,j,0.0195,0,S,7.0
S7,19.0,75.0,70.0,62.0,58.0,75,1334.0,square1,j,0.2282,0,S,7.0
S7,20.0,76.0,63.0,67.0,62.0,76,1410.0,square1,j,0.2304,0,S,7.0
S7,21.0,79.0,76.0,63.0,64.0,79,1489.0,square1,j,0.3324,0,S,7.0
S7,22.0,67.0,72.0,63.0,62.0,67,1556.0,square1,j,0.2005,0,S,7.0
S7,23.0,69.0,71.0,70.0,62.0,69,1625.0,square1,j,0.1997,0,S,7.0
S7,24.0,74.0,67.0,70.0,62.0,74,1699.0,square1,j,0.1826,0,S,7.0
S7,25.0,70.0,67.0,72.0,62.0,70,1769.0,square1,j,0.1845,0,S,7.0
S7,26.0,72.0,62.0,74.0,65.0,72,1841.0,square1,j,0.2791,0,S,7.0
S7,27.0,69.0,70.0,68.0,62.0,69,1910.0,square1,j,0.2289,0,S,7.0
S7,28.0,65.0,66.0,60.0,62.0,65,1975.0,square1,j,0.1274,0,S,7.0
S7,29.0,70.0,64.0,60.0,68.0,70,2045.0,square1,j,0.2942,0,S,7.0
S7,30.0,69.0,69.0,64.0,57.0,69,2114.0,square1,j,0.2096,0,S,7.0
S7,31.0,77.0,67.0,65.0,60.0,77,2191.0,square1,j,0.228,0,S,7.0
S7,32.0,67.0,75.0,65.0,58.0,75,2266.0,square2,f,0.0026,1,S,7.0
S7,33.0,74.0,66.0,66.0,60.0,74,2340.0,square1,j,0.1002,0,S,7.0
S7,34.0,72.0,72.0,66.0,61.0,72,2412.0,square1,j,0.1238,0,S,7.0
S7,35.0,67.0,68.0,64.0,62.0,67,2479.0,square1,j,0.0129,0,S,7.0
S7,36.0,64.0,63.0,70.0,58.0,64,2543.0,square1,j,0.2472,0,S,7.0
S7,37.0,80.0,72.0,64.0,53.0,80,2623.0,square1,j,0.0663,0,S,7.0
S7,38.0,78.0,69.0,76.0,67.0,78,2701.0,square1,j,0.1259,0,S,7.0
S7,39.0,69.0,66.0,60.0,67.0,69,2770.0,square1,j,0.0831,0,S,7.0
S7,40.0,72.0,71.0,63.0,66.0,72,2842.0,square1,j,0.7771,0,S,7.0
S7,41.0,80.0,73.0,65.0,63.0,80,2922.0,square1,j,0.2015,0,S,7.0
S7,42.0,77.0,60.0,65.0,59.0,77,2999.0,square1,j,0.1999,0,S,7.0
S7,43.0,70.0,72.0,70.0,63.0,70,3069.0,square1,j,0.7645,0,S,7.0
S7,44.0,77.0,70.0,66.0,58.0,77,3146.0,square1,j,0.1195,0,S,7.0
S7,45.0,75.0,69.0,73.0,58.0,75,3221.0,square1,j,0.2334,0,S,7.0
S7,46.0,74.0,71.0,63.0,63.0,74,3295.0,square1,j,0.1435,0,S,7.0
S7,47.0,73.0,75.0,71.0,64.0,73,3368.0,square1,j,0.2343,0,S,7.0
S7,48.0,78.0,79.0,64.0,58.0,78,3446.0,square1,j,0.1586,0,S,7.0
S7,49.0,75.0,72.0,66.0,72.0,75,3521.0,square1,j,0.0508,0,S,7.0
S6,0.0,40.0,29.0,39.0,26.0,40,40.0,square1,r,1.5819,0,S,6.0
S6,1.0,34.0,40.0,31.0,25.0,40,80.0,square2,i,0.0027,1,S,6.0
S6,2.0,37.0,31.0,25.0,30.0,30,110.0,square4,j,0.329,3,S,6.0
S6,3.0,39.0,37.0,30.0,27.0,30,140.0,square3,f,0.1243,2,S,6.0
S6,4.0,42.0,40.0,28.0,32.0,42,182.0,square1,r,0.3802,0,S,6.0
S6,5.0,35.0,35.0,39.0,29.0,35,217.0,square2,i,0.0758,1,S,6.0
S6,6.0,48.0,30.0,37.0,33.0,48,265.0,square1,r,0.0991,0,S,6.0
S6,7.0,47.0,34.0,31.0,29.0,34,299.0,square2,i,0.3165,1,S,6.0
S6,8.0,43.0,35.0,30.0,25.0,43,342.0,square1,r,0.4313,0,S,6.0
S6,9.0,36.0,38.0,35.0,35.0,36,378.0,square1,r,0.2774,0,S,6.0
S6,10.0,38.0,35.0,31.0,21.0,38,416.0,square1,r,0.2794,0,S,6.0
S6,11.0,30.0,36.0,31.0,20.0,30,446.0,square1,r,0.0182,0,S,6.0
S6,12.0,37.0,40.0,33.0,22.0,37,483.0,square1,r,1.0261,0,S,6.0
S6,13.0,32.0,41.0,35.0,29.0,32,515.0,square1,r,0.1333,0,S,6.0
S6,14.0,41.0,29.0,30.0,32.0,41,556.0,square1,r,0.2319,0,S,6.0
S6,15.0,43.0,37.0,31.0,27.0,43,599.0,square1,r,0.2437,0,S,6.0
S6,16.0,34.0,34.0,35.0,31.0,34,633.0,square1,r,0.2809,0,S,6.0
S6,17.0,47.0,40.0,29.0,28.0,47,680.0,square1,r,0.0989,0,S,6.0
S6,18.0,37.0,38.0,34.0,35.0,37,717.0,square1,r,0.4327,0,S,6.0
S6,19.0,36.0,39.0,31.0,26.0,99999,717.0,invalid,,,-1,S,6.0
S6,20.0,44.0,40.0,31.0,25.0,44,761.0,square1,r,0.3003,0,S,6.0
S6,21.0,39.0,41.0,35.0,24.0,39,800.0,square1,r,0.5253,0,S,6.0
S6,22.0,41.0,38.0,41.0,31.0,41,841.0,square1,r,0.3315,0,S,6.0
S6,23.0,37.0,31.0,30.0,32.0,37,878.0,square1,r,0.5143,0,S,6.0
S6,24.0,48.0,34.0,34.0,21.0,48,926.0,square1,r,0.984,0,S,6.0
S6,25.0,42.0,45.0,26.0,29.0,42,968.0,square1,r,0.4505,0,S,6.0
S6,26.0,40.0,39.0,36.0,28.0,40,1008.0,square1,r,0.4136,0,S,6.0
S6,27.0,42.0,33.0,29.0,29.0,42,1050.0,square1,r,0.3377,0,S,6.0
S6,28.0,41.0,30.0,29.0,29.0,41,1091.0,square1,r,0.3495,0,S,6.0
S6,29.0,42.0,40.0,32.0,27.0,42,1133.0,square1,r,0.2847,0,S,6.0
S6,30.0,42.0,36.0,30.0,26.0,42,1175.0,square1,r,0.3323,0,S,6.0
S6,31.0,42.0,34.0,35.0,29.0,42,1217.0,square1,r,0.2273,0,S,6.0
S6,32.0,35.0,36.0,31.0,23.0,35,1252.0,square1,r,0.0784,0,S,6.0
S6,33.0,35.0,31.0,35.0,30.0,35,1287.0,square1,r,0.0749,0,S,6.0
S6,34.0,40.0,38.0,31.0,27.0,40,1327.0,square1,r,0.1416,0,S,6.0
S6,35.0,42.0,37.0,34.0,34.0,42,1369.0,square1,r,0.1418,0,S,6.0
S6,36.0,37.0,46.0,31.0,34.0,37,1406.0,square1,r,0.2653,0,S,6.0
S6,37.0,38.0,40.0,30.0,26.0,38,1444.0,square1,r,0.2503,0,S,6.0
S6,38.0,36.0,34.0,31.0,33.0,36,1480.0,square1,r,0.1996,0,S,6.0
S6,39.0,44.0,37.0,33.0,31.0,44,1524.0,square1,r,0.3512,0,S,6.0
S6,40.0,40.0,38.0,31.0,25.0,40,1564.0,square1,r,0.3929,0,S,6.0
S6,41.0,49.0,35.0,35.0,28.0,49,1613.0,square1,r,0.45,0,S,6.0
S6,42.0,44.0,40.0,32.0,28.0,44,1657.0,square1,r,0.4598,0,S,6.0
S6,43.0,43.0,36.0,33.0,26.0,43,1700.0,square1,r,0.7215,0,S,6.0
S6,44.0,38.0,33.0,34.0,26.0,38,1738.0,square1,r,1.0491,0,S,6.0
S6,45.0,32.0,35.0,30.0,28.0,32,1770.0,square1,r,0.3346,0,S,6.0
S6,46.0,38.0,36.0,34.0,30.0,38,1808.0,square1,r,0.9011,0,S,6.0
S6,47.0,44.0,35.0,32.0,31.0,44,1852.0,square1,r,0.3479,0,S,6.0
S6,48.0,40.0,40.0,31.0,33.0,40,1892.0,square1,r,0.2491,0,S,6.0
S6,49.0,41.0,29.0,29.0,29.0,41,1933.0,square1,r,0.4179,0,S,6.0
S11,0.0,49.0,53.0,49.0,45.0,53,53.0,square2,r,1.6635,1,S,11.0
S11,1.0,54.0,56.0,42.0,50.0,50,103.0,square4,i,0.2639,3,S,11.0
S11,2.0,39.0,51.0,39.0,43.0,39,142.0,square3,j,0.1973,2,S,11.0
S11,3.0,53.0,50.0,38.0,43.0,53,195.0,square1,f,0.0244,0,S,11.0
S11,4.0,47.0,54.0,39.0,48.0,54,249.0,square2,r,0.1244,1,S,11.0
S11,5.0,47.0,52.0,40.0,46.0,47,296.0,square1,f,0.0421,0,S,11.0
S11,6.0,47.0,46.0,44.0,54.0,46,342.0,square2,r,0.0926,1,S,11.0
S11,7.0,48.0,51.0,35.0,51.0,51,393.0,square2,r,0.4016,1,S,11.0
S11,8.0,52.0,49.0,36.0,43.0,49,442.0,square2,r,0.3307,1,S,11.0
S11,9.0,47.0,53.0,41.0,55.0,53,495.0,square2,r,0.0987,1,S,11.0
S11,10.0,44.0,48.0,41.0,43.0,48,543.0,square2,r,0.2682,1,S,11.0
S11,11.0,41.0,54.0,38.0,43.0,54,597.0,square2,r,0.09,1,S,11.0
S11,12.0,45.0,54.0,44.0,45.0,54,651.0,square2,r,0.2444,1,S,11.0
S11,13.0,54.0,52.0,44.0,50.0,52,703.0,square2,r,0.294,1,S,11.0
S11,14.0,57.0,58.0,36.0,45.0,58,761.0,square2,r,0.1904,1,S,11.0
S11,15.0,48.0,54.0,43.0,49.0,54,815.0,square2,r,0.1672,1,S,11.0
S11,16.0,58.0,47.0,42.0,46.0,47,862.0,square2,r,0.0782,1,S,11.0
S11,17.0,41.0,61.0,42.0,53.0,61,923.0,square2,r,0.1056,1,S,11.0
S11,18.0,51.0,58.0,33.0,39.0,58,981.0,square2,r,0.1238,1,S,11.0
S11,19.0,48.0,49.0,37.0,42.0,49,1030.0,square2,r,0.0343,1,S,11.0
S11,20.0,52.0,52.0,45.0,46.0,52,1082.0,square2,r,0.6031,1,S,11.0
S11,21.0,47.0,53.0,44.0,51.0,53,1135.0,square2,r,0.3095,1,S,11.0
S11,22.0,49.0,54.0,37.0,41.0,54,1189.0,square2,r,0.2466,1,S,11.0
S11,23.0,52.0,54.0,41.0,45.0,54,1243.0,square2,r,0.3013,1,S,11.0
S11,24.0,42.0,56.0,41.0,45.0,56,1299.0,square2,r,0.214,1,S,11.0
S11,25.0,52.0,56.0,42.0,44.0,56,1355.0,square2,r,0.0907,1,S,11.0
S11,26.0,43.0,56.0,41.0,45.0,56,1411.0,square2,r,0.2316,1,S,11.0
S11,27.0,48.0,50.0,40.0,43.0,50,1461.0,square2,r,0.0023,1,S,11.0
S11,28.0,46.0,49.0,38.0,48.0,49,1510.0,square2,r,0.2613,1,S,11.0
S11,29.0,46.0,55.0,40.0,42.0,55,1565.0,square2,r,0.3343,1,S,11.0
S11,30.0,46.0,56.0,43.0,37.0,56,1621.0,square2,r,0.3596,1,S,11.0
S11,31.0,42.0,49.0,44.0,42.0,49,1670.0,square2,r,0.36,1,S,11.0
S11,32.0,51.0,52.0,36.0,40.0,52,1722.0,square2,r,0.2526,1,S,11.0
S11,33.0,44.0,53.0,39.0,43.0,53,1775.0,square2,r,0.9453,1,S,11.0
S11,34.0,52.0,52.0,43.0,49.0,52,1827.0,square2,r,0.2718,1,S,11.0
S11,35.0,53.0,51.0,38.0,45.0,51,1878.0,square2,r,0.3061,1,S,11.0
S11,36.0,50.0,44.0,42.0,48.0,44,1922.0,square2,r,0.3274,1,S,11.0
S11,37.0,49.0,51.0,40.0,48.0,51,1973.0,square2,r,0.0594,1,S,11.0
S11,38.0,47.0,47.0,39.0,38.0,47,2020.0,square2,r,0.6709,1,S,11.0
S11,39.0,51.0,55.0,40.0,42.0,55,2075.0,square2,r,0.2935,1,S,11.0
S11,40.0,50.0,52.0,41.0,44.0,52,2127.0,square2,r,0.538,1,S,11.0
S11,41.0,47.0,50.0,46.0,50.0,50,2177.0,square2,r,0.1223,1,S,11.0
S11,42.0,52.0,48.0,41.0,47.0,48,2225.0,square2,r,0.3589,1,S,11.0
S11,43.0,50.0,56.0,34.0,42.0,56,2281.0,square2,r,0.1427,1,S,11.0
S11,44.0,42.0,48.0,37.0,49.0,48,2329.0,square2,r,0.3115,1,S,11.0
S11,45.0,47.0,47.0,41.0,40.0,47,2376.0,square2,r,0.2115,1,S,11.0
S11,46.0,50.0,56.0,40.0,44.0,56,2432.0,square2,r,0.175,1,S,11.0
S11,47.0,46.0,48.0,38.0,47.0,48,2480.0,square2,r,0.2917,1,S,11.0
S11,48.0,45.0,54.0,44.0,41.0,54,2534.0,square2,r,0.3224,1,S,11.0
S11,49.0,44.0,53.0,41.0,41.0,53,2587.0,square2,r,0.1959,1,S,11.0
S1,0.0,72.0,58.0,70.0,66.0,99999,0.0,invalid,,,-1,S,1.0
S1,1.0,75.0,64.0,66.0,69.0,75,75.0,square1,r,0.1357,0,S,1.0
S1,2.0,75.0,62.0,62.0,79.0,62,137.0,square3,i,0.0754,2,S,1.0
S1,3.0,68.0,62.0,63.0,69.0,62,199.0,square2,j,0.1311,1,S,1.0
S1,4.0,82.0,63.0,64.0,73.0,73,272.0,square4,f,0.1007,3,S,1.0
S1,5.0,66.0,70.0,65.0,73.0,66,338.0,square1,r,0.0342,0,S,1.0
S1,6.0,73.0,65.0,62.0,65.0,73,411.0,square1,r,0.0555,0,S,1.0
S1,7.0,70.0,61.0,65.0,66.0,70,481.0,square1,r,0.7566,0,S,1.0
S1,8.0,78.0,63.0,67.0,68.0,78,559.0,square1,r,0.1377,0,S,1.0
S1,9.0,74.0,67.0,66.0,68.0,74,633.0,square1,r,0.1088,0,S,1.0
S1,10.0,73.0,59.0,68.0,68.0,73,706.0,square1,r,0.1929,0,S,1.0
S1,11.0,76.0,65.0,62.0,81.0,76,782.0,square1,r,0.2477,0,S,1.0
S1,12.0,77.0,66.0,69.0,63.0,77,859.0,square1,r,0.5836,0,S,1.0
S1,13.0,75.0,63.0,68.0,73.0,75,934.0,square1,r,0.2737,0,S,1.0
S1,14.0,67.0,60.0,67.0,69.0,67,1001.0,square1,r,0.2164,0,S,1.0
S1,15.0,70.0,63.0,69.0,73.0,70,1071.0,square1,r,0.2283,0,S,1.0
S1,16.0,69.0,61.0,69.0,69.0,69,1140.0,square1,r,0.4109,0,S,1.0
S1,17.0,73.0,68.0,67.0,73.0,73,1213.0,square1,r,0.1707,0,S,1.0
S1,18.0,70.0,58.0,73.0,66.0,70,1283.0,square1,r,0.1982,0,S,1.0
S1,19.0,75.0,58.0,62.0,68.0,75,1358.0,square1,r,0.314,0,S,1.0
S1,20.0,76.0,58.0,72.0,67.0,76,1434.0,square1,r,0.027,0,S,1.0
S1,21.0,69.0,66.0,66.0,67.0,69,1503.0,square1,r,0.1084,0,S,1.0
S1,22.0,70.0,68.0,65.0,65.0,70,1573.0,square1,r,0.199,0,S,1.0
S1,23.0,71.0,60.0,64.0,64.0,71,1644.0,square1,r,0.1195,0,S,1.0
S1,24.0,70.0,72.0,62.0,67.0,70,1714.0,square1,r,0.5026,0,S,1.0
S1,25.0,68.0,60.0,70.0,65.0,68,1782.0,square1,r,0.9025,0,S,1.0
S1,26.0,76.0,64.0,72.0,69.0,76,1858.0,square1,r,0.2767,0,S,1.0
S1,27.0,71.0,56.0,70.0,65.0,71,1929.0,square1,r,1.2643,0,S,1.0
S1,28.0,67.0,67.0,71.0,76.0,67,1996.0,square1,r,0.4466,0,S,1.0
S1,29.0,78.0,64.0,64.0,74.0,78,2074.0,square1,r,0.2462,0,S,1.0
S1,30.0,74.0,63.0,65.0,71.0,74,2148.0,square1,r,0.1084,0,S,1.0
S1,31.0,78.0,58.0,69.0,69.0,78,2226.0,square1,r,0.059,0,S,1.0
S1,32.0,71.0,67.0,68.0,60.0,71,2297.0,square1,r,0.2596,0,S,1.0
S1,33.0,68.0,63.0,65.0,73.0,68,2365.0,square1,r,0.294,0,S,1.0
S1,34.0,71.0,62.0,74.0,73.0,71,2436.0,square1,r,0.0458,0,S,1.0
S1,35.0,75.0,59.0,67.0,77.0,75,2511.0,square1,r,0.3296,0,S,1.0
S1,36.0,77.0,60.0,66.0,67.0,77,2588.0,square1,r,0.355,0,S,1.0
S1,37.0,69.0,60.0,69.0,75.0,69,2657.0,square1,r,1.4891,0,S,1.0
S1,38.0,77.0,64.0,62.0,70.0,77,2734.0,square1,r,0.4235,0,S,1.0
S1,39.0,72.0,66.0,69.0,65.0,72,2806.0,square1,r,0.2953,0,S,1.0
S1,40.0,69.0,63.0,66.0,69.0,69,2875.0,square1,r,0.2219,0,S,1.0
S1,41.0,72.0,62.0,70.0,70.0,72,2947.0,square1,r,0.2014,0,S,1.0
S1,42.0,78.0,60.0,63.0,62.0,78,3025.0,square1,r,0.1756,0,S,1.0
S1,43.0,71.0,62.0,67.0,73.0,71,3096.0,square1,r,0.2101,0,S,1.0
S1,44.0,75.0,63.0,69.0,73.0,75,3171.0,square1,r,0.1269,0,S,1.0
S1,45.0,66.0,60.0,68.0,73.0,66,3237.0,square1,r,0.8589,0,S,1.0
S1,46.0,74.0,67.0,69.0,71.0,74,3311.0,square1,r,0.3266,0,S,1.0
S1,47.0,71.0,66.0,68.0,70.0,71,3382.0,square1,r,0.2959,0,S,1.0
S1,48.0,72.0,75.0,71.0,77.0,72,3454.0,square1,r,0.4101,0,S,1.0
S1,49.0,65.0,57.0,66.0,75.0,65,3519.0,square1,r,0.5249,0,S,1.0
