block,Trial,square1,square2,square3,square4,currPoints,totalPoints,square,choiceKey.keys,choiceKey.rt,armNum,blockType,blockNum
prac,0.0,100.0,0.0,0.0,0.0,100,100.0,square1,,,0,p,0.0
prac,1.0,100.0,0.0,0.0,0.0,0,100.0,square3,,,2,p,0.0
prac,2.0,100.0,0.0,0.0,0.0,0,100.0,square4,,,3,p,0.0
prac,3.0,100.0,0.0,0.0,0.0,100,200.0,square1,,,0,p,0.0
prac,4.0,100.0,0.0,0.0,0.0,0,200.0,square2,,,1,p,0.0
prac,5.0,100.0,0.0,0.0,0.0,0,200.0,square4,,,3,p,0.0
prac,6.0,100.0,0.0,0.0,0.0,0,200.0,square3,,,2,p,0.0
prac,7.0,100.0,0.0,0.0,0.0,100,300.0,square1,,,0,p,0.0
prac,8.0,100.0,0.0,0.0,0.0,100,400.0,square1,,,0,p,0.0
prac,9.0,100.0,0.0,0.0,0.0,100,500.0,square1,,,0,p,0.0
NS2,0.0,44.0,66.0,42.0,38.0,42,42.0,square3,r,0.7761,2,N,2.0
NS2,1.0,44.0,66.0,47.0,43.0,66,108.0,square2,i,0.6924,1,N,2.0
NS2,2.0,42.0,62.0,53.0,43.0,43,151.0,square4,f,0.0819,3,N,2.0
NS2,3.0,46.0,58.0,48.0,46.0,46,197.0,square1,j,0.814,0,N,2.0
NS2,4.0,47.0,61.0,51.0,42.0,51,248.0,square3,r,0.2408,2,N,2.0
NS2,5.0,51.0,58.0,50.0,50.0,50,298.0,square3,r,0.3658,2,N,2.0
NS2,6.0,52.0,58.0,43.0,48.0,43,341.0,square3,r,0.2079,2,N,2.0
NS2,7.0,50.0,52.0,43.0,50.0,52,393.0,square2,i,0.96,1,N,2.0
NS2,8.0,54.0,58.0,41.0,46.0,46,439.0,square4,f,0.1652,3,N,2.0
NS2,9.0,52.0,59.0,42.0,46.0,52,491.0,square1,j,0.696,0,N,2.0
NS2,10.0,50.0,52.0,37.0,48.0,37,528.0,square3,r,0.3983,2,N,2.0
NS2,11.0,45.0,56.0,38.0,43.0,56,584.0,square2,i,0.2434,1,N,2.0
NS2,12.0,50.0,56.0,37.0,48.0,48,632.0,square4,f,0.0491,3,N,2.0
NS2,13.0,47.0,63.0,36.0,49.0,47,679.0,square1,j,0.6977,0,N,2.0
NS2,14.0,51.0,56.0,39.0,49.0,51,730.0,square1,j,0.3173,0,N,2.0
NS2,15.0,46.0,64.0,39.0,50.0,39,769.0,square3,r,0.2292,2,N,2.0
NS2,16.0,51.0,61.0,37.0,47.0,37,806.0,square3,r,0.766,2,N,2.0
NS2,17.0,59.0,68.0,46.0,53.0,46,852.0,square3,r,0.493,2,N,2.0
NS2,18.0,53.0,65.0,42.0,49.0,53,905.0,square1,j,0.9778,0,N,2.0
NS2,19.0,52.0,67.0,47.0,49.0,49,954.0,square4,f,0.5987,3,N,2.0
NS2,20.0,56.0,64.0,45.0,48.0,48,1002.0,square4,f,0.449,3,N,2.0
NS2,21.0,57.0,73.0,46.0,44.0,46,1048.0,square3,r,0.5307,2,N,2.0
NS2,22.0,54.0,76.0,36.0,47.0,36,1084.0,square3,r,0.4831,2,N,2.0
NS2,23.0,55.0,77.0,35.0,42.0,77,1161.0,square2,i,0.0578,1,N,2.0
NS2,24.0,53.0,68.0,35.0,46.0,68,1229.0,square2,i,0.3611,1,N,2.0
NS2,25.0,55.0,73.0,29.0,45.0,55,1284.0,square1,j,0.695,0,N,2.0
NS2,26.0,52.0,69.0,30.0,49.0,52,1336.0,square1,j,1.0336,0,N,2.0
NS2,27.0,52.0,62.0,33.0,52.0,52,1388.0,square4,f,0.4767,3,N,2.0
NS2,28.0,58.0,62.0,33.0,47.0,33,1421.0,square3,r,0.543,2,N,2.0
NS2,29.0,56.0,65.0,38.0,46.0,38,1459.0,square3,r,0.5296,2,N,2.0
NS2,30.0,56.0,66.0,37.0,50.0,37,1496.0,square3,r,0.0443,2,N,2.0
NS2,31.0,50.0,64.0,35.0,45.0,35,1531.0,square3,r,0.5673,2,N,2.0
NS2,32.0,56.0,62.0,38.0,45.0,62,1593.0,square2,i,0.4413,1,N,2.0
NS2,33.0,59.0,58.0,34.0,48.0,58,1651.0,square2,i,0.4942,1,N,2.0
NS2,34.0,55.0,59.0,36.0,48.0,59,1710.0,square2,i,0.1273,1,N,2.0
NS2,35.0,54.0,57.0,33.0,48.0,57,1767.0,square2,i,0.0956,1,N,2.0
NS2,36.0,53.0,58.0,34.0,51.0,51,1818.0,square4,f,0.8596,3,N,2.0
NS2,37.0,46.0,53.0,32.0,55.0,55,1873.0,square4,f,0.4627,3,N,2.0
NS2,38.0,46.0,59.0,37.0,49.0,46,1919.0,square1,j,0.1037,0,N,2.0
NS2,39.0,53.0,59.0,36.0,48.0,53,1972.0,square1,j,0.1605,0,N,2.0
NS2,40.0,46.0,60.0,37.0,42.0,37,2009.0,square3,r,0.3799,2,N,2.0
NS2,41.0,51.0,57.0,42.0,41.0,42,2051.0,square3,r,0.1496,2,N,2.0
NS2,42.0,49.0,53.0,46.0,41.0,53,2104.0,square2,i,0.3661,1,N,2.0
NS2,43.0,49.0,57.0,43.0,39.0,39,2143.0,square4,f,0.6818,3,N,2.0
NS2,44.0,48.0,55.0,48.0,37.0,48,2191.0,square1,j,0.1635,0,N,2.0
NS2,45.0,49.0,52.0,34.0,36.0,49,2240.0,square1,j,0.8798,0,N,2.0
NS2,46.0,50.0,46.0,39.0,34.0,39,2279.0,square3,r,0.3959,2,N,2.0
NS2,47.0,55.0,48.0,39.0,26.0,48,2327.0,square2,i,0.6839,1,N,2.0
NS2,48.0,55.0,42.0,41.0,31.0,42,2369.0,square2,i,0.2163,1,N,2.0
NS2,49.0,55.0,41.0,36.0,36.0,36,2405.0,square4,f,0.9917,3,N,2.0
NS2,50.0,50.0,43.0,43.0,36.0,36,2441.0,square4,f,0.4029,3,N,2.0
NS2,51.0,49.0,40.0,44.0,32.0,49,2490.0,square1,j,0.428,0,N,2.0
NS2,52.0,54.0,45.0,40.0,32.0,54,2544.0,square1,j,0.4496,0,N,2.0
NS2,53.0,55.0,44.0,42.0,38.0,44,2588.0,square2,i,1.1106,1,N,2.0
NS2,54.0,57.0,44.0,42.0,37.0,44,2632.0,square2,i,0.4977,1,N,2.0
NS2,55.0,56.0,47.0,35.0,29.0,29,2661.0,square4,f,0.6238,3,N,2.0
NS2,56.0,56.0,45.0,31.0,36.0,56,2717.0,square1,j,0.4937,0,N,2.0
NS2,57.0,48.0,43.0,33.0,36.0,48,2765.0,square1,j,0.8091,0,N,2.0
NS2,58.0,46.0,44.0,30.0,40.0,46,2811.0,square1,j,0.4116,0,N,2.0
NS2,59.0,45.0,36.0,33.0,37.0,45,2856.0,square1,j,0.3437,0,N,2.0
NS2,60.0,45.0,37.0,32.0,38.0,45,2901.0,square1,j,0.4129,0,N,2.0
NS2,61.0,47.0,37.0,31.0,37.0,47,2948.0,square1,j,0.3688,0,N,2.0
NS2,62.0,46.0,36.0,28.0,34.0,28,2976.0,square3,r,0.4605,2,N,2.0
NS2,63.0,53.0,36.0,26.0,43.0,36,3012.0,square2,i,0.0628,1,N,2.0
NS2,64.0,53.0,37.0,24.0,45.0,37,3049.0,square2,i,0.4632,1,N,2.0
NS2,65.0,49.0,34.0,27.0,49.0,34,3083.0,square2,i,0.0767,1,N,2.0
NS2,66.0,50.0,30.0,26.0,57.0,50,3133.0,square1,j,0.0785,0,N,2.0
NS2,67.0,49.0,28.0,32.0,55.0,49,3182.0,square1,j,0.4157,0,N,2.0
NS2,68.0,53.0,23.0,35.0,55.0,53,3235.0,square1,j,0.4293,0,N,2.0
NS2,69.0,49.0,29.0,33.0,51.0,49,3284.0,square1,j,0.5607,0,N,2.0
NS2,70.0,54.0,27.0,30.0,60.0,54,3338.0,square1,j,0.3442,0,N,2.0
NS2,71.0,57.0,28.0,31.0,59.0,57,3395.0,square1,j,0.5515,0,N,2.0
NS2,72.0,55.0,25.0,29.0,61.0,55,3450.0,square1,j,0.3464,0,N,2.0
NS2,73.0,63.0,29.0,31.0,56.0,63,3513.0,square1,j,0.7507,0,N,2.0
NS2,74.0,59.0,34.0,34.0,58.0,59,3572.0,square1,j,0.6319,0,N,2.0
NS2,75.0,58.0,37.0,31.0,53.0,58,3630.0,square1,j,1.0627,0,N,2.0
NS2,76.0,62.0,41.0,25.0,53.0,62,3692.0,square1,j,0.3265,0,N,2.0
NS2,77.0,60.0,37.0,30.0,52.0,60,3752.0,square1,j,0.3934,0,N,2.0
NS2,78.0,63.0,37.0,37.0,50.0,63,3815.0,square1,j,0.5793,0,N,2.0
NS2,79.0,66.0,44.0,32.0,47.0,66,3881.0,square1,j,0.2975,0,N,2.0
NS2,80.0,65.0,41.0,30.0,45.0,65,3946.0,square1,j,0.6508,0,N,2.0
NS2,81.0,60.0,37.0,26.0,49.0,60,4006.0,square1,j,0.4124,0,N,2.0
NS2,82.0,68.0,38.0,28.0,46.0,68,4074.0,square1,j,0.2125,0,N,2.0
NS2,83.0,63.0,42.0,30.0,49.0,63,4137.0,square1,j,0.0621,0,N,2.0
NS2,84.0,71.0,41.0,37.0,51.0,71,4208.0,square1,j,0.1455,0,N,2.0
NS2,85.0,63.0,47.0,29.0,40.0,63,4271.0,square1,j,0.163,0,N,2.0
NS2,86.0,67.0,42.0,36.0,44.0,67,4338.0,square1,j,0.1286,0,N,2.0
NS2,87.0,62.0,45.0,31.0,41.0,62,4400.0,square1,j,0.0471,0,N,2.0
NS2,88.0,63.0,39.0,32.0,44.0,63,4463.0,square1,j,0.0648,0,N,2.0
NS2,89.0,66.0,39.0,37.0,39.0,39,4502.0,square2,i,0.9136,1,N,2.0
NS2,90.0,53.0,38.0,35.0,40.0,53,4555.0,square1,j,0.5132,0,N,2.0
NS2,91.0,57.0,39.0,38.0,43.0,57,4612.0,square1,j,0.1754,0,N,2.0
NS2,92.0,53.0,36.0,40.0,47.0,53,4665.0,square1,j,0.0684,0,N,2.0
NS2,93.0,47.0,39.0,43.0,38.0,47,4712.0,square1,j,0.0494,0,N,2.0
NS2,94.0,45.0,33.0,46.0,40.0,45,4757.0,square1,j,0.3326,0,N,2.0
NS2,95.0,49.0,38.0,53.0,36.0,49,4806.0,square1,j,0.2481,0,N,2.0
NS2,96.0,50.0,39.0,46.0,34.0,50,4856.0,square1,j,0.2331,0,N,2.0
NS2,97.0,57.0,37.0,44.0,41.0,44,4900.0,square3,r,0.2277,2,N,2.0
NS2,98.0,55.0,43.0,39.0,43.0,43,4943.0,square4,f,0.4795,3,N,2.0
NS2,99.0,56.0,46.0,41.0,41.0,41,4984.0,square4,f,0.3158,3,N,2.0
NS3,0.0,52.0,26.0,68.0,52.0,52,52.0,square4,r,0.791,3,N,3.0
NS3,1.0,57.0,23.0,69.0,48.0,69,121.0,square3,i,0.1066,2,N,3.0
NS3,2.0,59.0,26.0,70.0,52.0,26,147.0,square2,j,0.3013,1,N,3.0
NS3,3.0,57.0,24.0,70.0,52.0,52,199.0,square4,r,0.0763,3,N,3.0
NS3,4.0,59.0,30.0,74.0,49.0,49,248.0,square4,r,0.2446,3,N,3.0
NS3,5.0,55.0,24.0,67.0,51.0,51,299.0,square4,r,0.0342,3,N,3.0
NS3,6.0,54.0,27.0,73.0,55.0,55,354.0,square4,r,0.252,3,N,3.0
NS3,7.0,55.0,28.0,66.0,43.0,28,382.0,square2,j,0.1676,1,N,3.0
NS3,8.0,57.0,30.0,65.0,45.0,65,447.0,square3,i,0.3346,2,N,3.0
NS3,9.0,53.0,33.0,54.0,37.0,54,501.0,square3,i,0.3183,2,N,3.0
NS3,10.0,46.0,27.0,54.0,43.0,54,555.0,square3,i,0.3928,2,N,3.0
NS3,11.0,48.0,31.0,58.0,51.0,58,613.0,square3,i,0.0165,2,N,3.0
NS3,12.0,50.0,27.0,54.0,53.0,54,667.0,square3,i,0.0017,2,N,3.0
NS3,13.0,49.0,28.0,62.0,50.0,49,716.0,square1,f,0.0054,0,N,3.0
NS3,14.0,53.0,28.0,62.0,52.0,53,769.0,square1,f,0.1896,0,N,3.0
NS3,15.0,52.0,25.0,57.0,57.0,52,821.0,square1,f,0.1516,0,N,3.0
NS3,16.0,48.0,29.0,56.0,56.0,56,877.0,square3,i,0.1606,2,N,3.0
NS3,17.0,39.0,21.0,58.0,56.0,58,935.0,square3,i,0.0797,2,N,3.0
NS3,18.0,40.0,23.0,58.0,60.0,58,993.0,square3,i,0.0696,2,N,3.0
NS3,19.0,40.0,26.0,63.0,58.0,63,1056.0,square3,i,0.0011,2,N,3.0
NS3,20.0,46.0,24.0,60.0,56.0,60,1116.0,square3,i,0.1961,2,N,3.0
NS3,21.0,42.0,27.0,61.0,55.0,61,1177.0,square3,i,0.0292,2,N,3.0
NS3,22.0,45.0,26.0,62.0,56.0,62,1239.0,square3,i,0.1617,2,N,3.0
NS3,23.0,39.0,21.0,64.0,60.0,64,1303.0,square3,i,0.0628,2,N,3.0
NS3,24.0,44.0,21.0,59.0,64.0,59,1362.0,square3,i,0.1511,2,N,3.0
NS3,25.0,44.0,22.0,58.0,65.0,58,1420.0,square3,i,0.1178,2,N,3.0
NS3,26.0,42.0,26.0,60.0,62.0,62,1482.0,square4,r,0.0503,3,N,3.0
NS3,27.0,38.0,18.0,55.0,67.0,67,1549.0,square4,r,0.0176,3,N,3.0
NS3,28.0,41.0,23.0,56.0,60.0,60,1609.0,square4,r,0.0525,3,N,3.0
NS3,29.0,38.0,16.0,52.0,66.0,66,1675.0,square4,r,0.1348,3,N,3.0
NS3,30.0,36.0,13.0,61.0,64.0,64,1739.0,square4,r,0.0865,3,N,3.0
NS3,31.0,42.0,13.0,54.0,63.0,63,1802.0,square4,r,0.0011,3,N,3.0
NS3,32.0,38.0,18.0,50.0,62.0,62,1864.0,square4,r,0.1515,3,N,3.0
NS3,33.0,29.0,20.0,51.0,64.0,64,1928.0,square4,r,0.1093,3,N,3.0
NS3,34.0,32.0,21.0,45.0,63.0,63,1991.0,square4,r,0.1087,3,N,3.0
NS3,35.0,30.0,17.0,46.0,65.0,65,2056.0,square4,r,0.1576,3,N,3.0
NS3,36.0,35.0,16.0,47.0,69.0,69,2125.0,square4,r,0.1685,3,N,3.0
NS3,37.0,34.0,18.0,45.0,68.0,18,2143.0,square2,j,0.6008,1,N,3.0
NS3,38.0,40.0,14.0,50.0,74.0,74,2217.0,square4,r,0.1841,3,N,3.0
NS3,39.0,39.0,15.0,49.0,73.0,73,2290.0,square4,r,0.0747,3,N,3.0
NS3,40.0,42.0,15.0,51.0,74.0,74,2364.0,square4,r,0.0848,3,N,3.0
NS3,41.0,38.0,17.0,43.0,74.0,74,2438.0,square4,r,0.0501,3,N,3.0
NS3,42.0,36.0,16.0,46.0,74.0,74,2512.0,square4,r,0.0013,3,N,3.0
NS3,43.0,41.0,21.0,44.0,76.0,76,2588.0,square4,r,0.1897,3,N,3.0
NS3,44.0,41.0,26.0,35.0,70.0,70,2658.0,square4,r,0.2243,3,N,3.0
NS3,45.0,39.0,27.0,33.0,75.0,75,2733.0,square4,r,0.0764,3,N,3.0
NS3,46.0,45.0,25.0,38.0,77.0,77,2810.0,square4,r,0.1515,3,N,3.0
NS3,47.0,41.0,20.0,34.0,76.0,76,2886.0,square4,r,0.0014,3,N,3.0
NS3,48.0,37.0,25.0,34.0,77.0,77,2963.0,square4,r,0.0351,3,N,3.0
NS3,49.0,41.0,18.0,40.0,78.0,78,3041.0,square4,r,0.0507,3,N,3.0
NS3,50.0,42.0,17.0,41.0,83.0,83,3124.0,square4,r,0.0534,3,N,3.0
NS3,51.0,53.0,18.0,39.0,83.0,83,3207.0,square4,r,0.1004,3,N,3.0
NS3,52.0,55.0,19.0,34.0,82.0,82,3289.0,square4,r,0.1722,3,N,3.0
NS3,53.0,52.0,17.0,39.0,77.0,77,3366.0,square4,r,0.0588,3,N,3.0
NS3,54.0,55.0,21.0,46.0,77.0,77,3443.0,square4,r,0.1005,3,N,3.0
NS3,55.0,48.0,21.0,49.0,75.0,75,3518.0,square4,r,0.1009,3,N,3.0
NS3,56.0,50.0,25.0,51.0,74.0,74,3592.0,square4,r,0.0579,3,N,3.0
NS3,57.0,54.0,23.0,46.0,66.0,66,3658.0,square4,r,0.0664,3,N,3.0
NS3,58.0,60.0,25.0,50.0,72.0,50,3708.0,square3,i,0.1048,2,N,3.0
NS3,59.0,54.0,23.0,46.0,72.0,72,3780.0,square4,r,0.1346,3,N,3.0
NS3,60.0,51.0,26.0,50.0,72.0,72,3852.0,square4,r,0.071,3,N,3.0
NS3,61.0,57.0,27.0,54.0,71.0,71,3923.0,square4,r,0.0125,3,N,3.0
NS3,62.0,51.0,27.0,54.0,64.0,64,3987.0,square4,r,0.1063,3,N,3.0
NS3,63.0,54.0,25.0,42.0,62.0,62,4049.0,square4,r,0.2682,3,N,3.0
NS3,64.0,54.0,25.0,47.0,62.0,62,4111.0,square4,r,0.1088,3,N,3.0
NS3,65.0,48.0,26.0,45.0,60.0,60,4171.0,square4,r,0.2535,3,N,3.0
NS3,66.0,49.0,22.0,47.0,60.0,60,4231.0,square4,r,0.318,3,N,3.0
NS3,67.0,49.0,26.0,45.0,65.0,65,4296.0,square4,r,0.2177,3,N,3.0
NS3,68.0,54.0,26.0,47.0,67.0,67,4363.0,square4,r,0.2334,3,N,3.0
NS3,69.0,48.0,22.0,45.0,56.0,56,4419.0,square4,r,0.271,3,N,3.0
NS3,70.0,55.0,26.0,48.0,61.0,61,4480.0,square4,r,0.0579,3,N,3.0
NS3,71.0,55.0,29.0,43.0,60.0,43,4523.0,square3,i,0.8023,2,N,3.0
NS3,72.0,56.0,30.0,43.0,51.0,43,4566.0,square3,i,0.3679,2,N,3.0
NS3,73.0,55.0,27.0,47.0,56.0,47,4613.0,square3,i,0.3021,2,N,3.0
NS3,74.0,63.0,26.0,44.0,55.0,44,4657.0,square3,i,0.3099,2,N,3.0
NS3,75.0,61.0,34.0,45.0,62.0,45,4702.0,square3,i,0.3686,2,N,3.0
NS3,76.0,55.0,28.0,45.0,62.0,62,4764.0,square4,r,0.4675,3,N,3.0
NS3,77.0,58.0,31.0,53.0,66.0,66,4830.0,square4,r,0.7255,3,N,3.0
NS3,78.0,55.0,29.0,51.0,60.0,60,4890.0,square4,r,0.2745,3,N,3.0
NS3,79.0,51.0,29.0,52.0,68.0,68,4958.0,square4,r,0.3354,3,N,3.0
NS3,80.0,55.0,31.0,48.0,59.0,59,5017.0,square4,r,0.2683,3,N,3.0
NS3,81.0,56.0,38.0,56.0,64.0,64,5081.0,square4,r,0.2854,3,N,3.0
NS3,82.0,54.0,27.0,54.0,55.0,55,5136.0,square4,r,0.3398,3,N,3.0
NS3,83.0,62.0,30.0,49.0,58.0,58,5194.0,square4,r,0.0012,3,N,3.0
NS3,84.0,64.0,24.0,47.0,62.0,62,5256.0,square4,r,0.0515,3,N,3.0
NS3,85.0,65.0,23.0,54.0,63.0,63,5319.0,square4,r,0.1513,3,N,3.0
NS3,86.0,68.0,25.0,56.0,65.0,25,5344.0,square2,j,0.0012,1,N,3.0
NS3,87.0,65.0,22.0,55.0,60.0,65,5409.0,square1,f,0.2192,0,N,3.0
NS3,88.0,64.0,20.0,58.0,65.0,64,5473.0,square1,f,0.1298,0,N,3.0
NS3,89.0,68.0,13.0,62.0,64.0,68,5541.0,square1,f,0.1472,0,N,3.0
NS3,90.0,72.0,13.0,52.0,64.0,72,5613.0,square1,f,0.0449,0,N,3.0
NS3,91.0,67.0,20.0,52.0,69.0,67,5680.0,square1,f,0.4628,0,N,3.0
NS3,92.0,72.0,21.0,58.0,64.0,64,5744.0,square4,r,0.3866,3,N,3.0
NS3,93.0,73.0,16.0,54.0,67.0,73,5817.0,square1,f,0.3299,0,N,3.0
NS3,94.0,69.0,17.0,51.0,64.0,69,5886.0,square1,f,0.178,0,N,3.0
NS3,95.0,62.0,19.0,60.0,62.0,62,5948.0,square1,f,0.0361,0,N,3.0
NS3,96.0,67.0,15.0,56.0,67.0,67,6015.0,square1,f,0.213,0,N,3.0
NS3,97.0,61.0,17.0,58.0,62.0,61,6076.0,square1,f,0.1493,0,N,3.0
NS3,98.0,59.0,13.0,58.0,58.0,59,6135.0,square1,f,0.1325,0,N,3.0
NS3,99.0,62.0,15.0,51.0,60.0,60,6195.0,square4,r,0.1961,3,N,3.0
NS4,0.0,55.0,53.0,59.0,44.0,59,59.0,square3,r,0.894,2,N,4.0
NS4,1.0,49.0,56.0,64.0,41.0,64,123.0,square3,r,0.0347,2,N,4.0
NS4,2.0,50.0,54.0,71.0,48.0,50,173.0,square1,i,0.1463,0,N,4.0
NS4,3.0,53.0,58.0,67.0,50.0,53,226.0,square1,i,0.0351,0,N,4.0
NS4,4.0,49.0,51.0,70.0,55.0,70,296.0,square3,r,0.2021,2,N,4.0
NS4,5.0,55.0,59.0,73.0,58.0,73,369.0,square3,r,0.084,2,N,4.0
NS4,6.0,56.0,54.0,71.0,57.0,71,440.0,square3,r,0.0682,2,N,4.0
NS4,7.0,60.0,54.0,75.0,52.0,54,494.0,square2,f,1.9678,1,N,4.0
NS4,8.0,58.0,53.0,74.0,52.0,53,547.0,square2,f,0.1229,1,N,4.0
NS4,9.0,46.0,48.0,78.0,51.0,51,598.0,square4,j,0.3009,3,N,4.0
NS4,10.0,55.0,48.0,78.0,51.0,51,649.0,square4,j,0.0207,3,N,4.0
NS4,11.0,55.0,44.0,79.0,49.0,49,698.0,square4,j,0.1343,3,N,4.0
NS4,12.0,50.0,40.0,79.0,50.0,79,777.0,square3,r,0.0871,2,N,4.0
NS4,13.0,45.0,39.0,79.0,53.0,79,856.0,square3,r,0.1171,2,N,4.0
NS4,14.0,44.0,38.0,77.0,56.0,77,933.0,square3,r,0.0389,2,N,4.0
NS4,15.0,45.0,32.0,68.0,52.0,68,1001.0,square3,r,0.0407,2,N,4.0
NS4,16.0,49.0,32.0,74.0,53.0,74,1075.0,square3,r,0.1672,2,N,4.0
NS4,17.0,45.0,32.0,69.0,51.0,69,1144.0,square3,r,0.117,2,N,4.0
NS4,18.0,50.0,34.0,69.0,47.0,69,1213.0,square3,r,0.1121,2,N,4.0
NS4,19.0,50.0,36.0,65.0,53.0,65,1278.0,square3,r,0.0724,2,N,4.0
NS4,20.0,45.0,36.0,62.0,53.0,62,1340.0,square3,r,0.1227,2,N,4.0
NS4,21.0,49.0,35.0,62.0,55.0,62,1402.0,square3,r,0.0016,2,N,4.0
NS4,22.0,53.0,32.0,61.0,60.0,61,1463.0,square3,r,0.2009,2,N,4.0
NS4,23.0,52.0,33.0,58.0,54.0,58,1521.0,square3,r,0.1719,2,N,4.0
NS4,24.0,48.0,32.0,52.0,60.0,52,1573.0,square3,r,0.302,2,N,4.0
NS4,25.0,47.0,30.0,53.0,57.0,53,1626.0,square3,r,0.1684,2,N,4.0
NS4,26.0,50.0,30.0,60.0,55.0,60,1686.0,square3,r,0.0728,2,N,4.0
NS4,27.0,50.0,28.0,62.0,47.0,62,1748.0,square3,r,0.1549,2,N,4.0
NS4,28.0,54.0,28.0,58.0,49.0,58,1806.0,square3,r,0.0511,2,N,4.0
NS4,29.0,44.0,29.0,50.0,49.0,50,1856.0,square3,r,0.139,2,N,4.0
NS4,30.0,43.0,26.0,55.0,57.0,43,1899.0,square1,i,0.326,0,N,4.0
NS4,31.0,43.0,25.0,60.0,54.0,43,1942.0,square1,i,0.0686,0,N,4.0
NS4,32.0,34.0,27.0,58.0,56.0,27,1969.0,square2,f,0.0688,1,N,4.0
NS4,33.0,34.0,20.0,60.0,62.0,62,2031.0,square4,j,0.2095,3,N,4.0
NS4,34.0,38.0,28.0,58.0,57.0,57,2088.0,square4,j,0.2015,3,N,4.0
NS4,35.0,40.0,24.0,63.0,59.0,59,2147.0,square4,j,0.1237,3,N,4.0
NS4,36.0,36.0,30.0,56.0,63.0,56,2203.0,square3,r,0.1179,2,N,4.0
NS4,37.0,40.0,29.0,54.0,63.0,54,2257.0,square3,r,0.0403,2,N,4.0
NS4,38.0,40.0,33.0,53.0,69.0,53,2310.0,square3,r,0.072,2,N,4.0
NS4,39.0,36.0,30.0,57.0,67.0,67,2377.0,square4,j,0.016,3,N,4.0
NS4,40.0,33.0,33.0,58.0,68.0,68,2445.0,square4,j,0.1581,3,N,4.0
NS4,41.0,34.0,28.0,58.0,72.0,72,2517.0,square4,j,0.0508,3,N,4.0
NS4,42.0,35.0,30.0,60.0,70.0,70,2587.0,square4,j,0.0171,3,N,4.0
NS4,43.0,35.0,34.0,57.0,63.0,63,2650.0,square4,j,0.0011,3,N,4.0
NS4,44.0,30.0,32.0,59.0,69.0,69,2719.0,square4,j,0.0591,3,N,4.0
NS4,45.0,29.0,31.0,60.0,66.0,66,2785.0,square4,j,0.0015,3,N,4.0
NS4,46.0,35.0,34.0,66.0,66.0,66,2851.0,square4,j,0.0177,3,N,4.0
NS4,47.0,35.0,28.0,63.0,62.0,62,2913.0,square4,j,0.1441,3,N,4.0
NS4,48.0,37.0,37.0,61.0,55.0,55,2968.0,square4,j,0.0503,3,N,4.0
NS4,49.0,40.0,34.0,59.0,54.0,54,3022.0,square4,j,0.2017,3,N,4.0
NS4,50.0,39.0,38.0,68.0,51.0,51,3073.0,square4,j,0.0056,3,N,4.0
NS4,51.0,46.0,28.0,69.0,48.0,69,3142.0,square3,r,0.0016,2,N,4.0
NS4,52.0,40.0,34.0,62.0,49.0,62,3204.0,square3,r,0.056,2,N,4.0
NS4,53.0,39.0,34.0,63.0,48.0,63,3267.0,square3,r,0.1013,2,N,4.0
NS4,54.0,44.0,31.0,58.0,47.0,58,3325.0,square3,r,0.0843,2,N,4.0
NS4,55.0,42.0,30.0,68.0,46.0,42,3367.0,square1,i,0.1819,0,N,4.0
NS4,56.0,36.0,25.0,69.0,44.0,25,3392.0,square2,f,0.1343,1,N,4.0
NS4,57.0,35.0,29.0,71.0,46.0,29,3421.0,square2,f,0.1007,1,N,4.0
NS4,58.0,43.0,28.0,68.0,47.0,68,3489.0,square3,r,0.1842,2,N,4.0
NS4,59.0,43.0,27.0,67.0,43.0,67,3556.0,square3,r,0.1687,2,N,4.0
NS4,60.0,40.0,25.0,72.0,46.0,72,3628.0,square3,r,0.0081,2,N,4.0
NS4,61.0,39.0,32.0,63.0,43.0,63,3691.0,square3,r,0.118,2,N,4.0
NS4,62.0,39.0,29.0,61.0,39.0,61,3752.0,square3,r,0.0168,2,N,4.0
NS4,63.0,41.0,28.0,59.0,40.0,59,3811.0,square3,r,0.1175,2,N,4.0
NS4,64.0,41.0,31.0,57.0,51.0,51,3862.0,square4,j,0.0417,3,N,4.0
NS4,65.0,46.0,36.0,59.0,58.0,58,3920.0,square4,j,0.0339,3,N,4.0
NS4,66.0,45.0,36.0,53.0,46.0,46,3966.0,square4,j,0.0348,3,N,4.0
NS4,67.0,40.0,34.0,49.0,46.0,46,4012.0,square4,j,0.0833,3,N,4.0
NS4,68.0,43.0,37.0,48.0,48.0,48,4060.0,square3,r,0.1516,2,N,4.0
NS4,69.0,42.0,36.0,44.0,56.0,44,4104.0,square3,r,0.101,2,N,4.0
NS4,70.0,40.0,38.0,47.0,58.0,47,4151.0,square3,r,0.2678,2,N,4.0
NS4,71.0,36.0,34.0,42.0,63.0,36,4187.0,square1,i,0.0671,0,N,4.0
NS4,72.0,38.0,36.0,36.0,66.0,38,4225.0,square1,i,0.1518,0,N,4.0
NS4,73.0,36.0,40.0,40.0,66.0,36,4261.0,square1,i,0.0417,0,N,4.0
NS4,74.0,31.0,38.0,46.0,67.0,38,4299.0,square2,f,0.1845,1,N,4.0
NS4,75.0,40.0,33.0,42.0,64.0,33,4332.0,square2,f,0.0683,1,N,4.0
NS4,76.0,38.0,35.0,42.0,64.0,42,4374.0,square3,r,0.3132,2,N,4.0
NS4,77.0,40.0,35.0,39.0,66.0,39,4413.0,square3,r,0.1618,2,N,4.0
NS4,78.0,40.0,33.0,38.0,68.0,68,4481.0,square4,j,0.1299,3,N,4.0
NS4,79.0,40.0,38.0,31.0,70.0,70,4551.0,square4,j,0.1704,3,N,4.0
NS4,80.0,37.0,35.0,33.0,73.0,73,4624.0,square4,j,0.0598,3,N,4.0
NS4,81.0,34.0,35.0,30.0,70.0,70,4694.0,square4,j,0.1792,3,N,4.0
NS4,82.0,35.0,37.0,31.0,66.0,66,4760.0,square4,j,0.1446,3,N,4.0
NS4,83.0,42.0,32.0,28.0,67.0,67,4827.0,square4,j,0.0284,3,N,4.0
NS4,84.0,38.0,35.0,30.0,68.0,68,4895.0,square4,j,0.0555,3,N,4.0
NS4,85.0,43.0,35.0,32.0,64.0,64,4959.0,square4,j,0.1646,3,N,4.0
NS4,86.0,49.0,35.0,32.0,70.0,70,5029.0,square4,j,0.0381,3,N,4.0
NS4,87.0,48.0,34.0,32.0,69.0,69,5098.0,square4,j,0.2785,3,N,4.0
NS4,88.0,50.0,35.0,30.0,64.0,30,5128.0,square3,r,0.1207,2,N,4.0
NS4,89.0,48.0,34.0,32.0,68.0,68,5196.0,square4,j,0.0271,3,N,4.0
NS4,90.0,53.0,29.0,27.0,68.0,68,5264.0,square4,j,0.1126,3,N,4.0
NS4,91.0,54.0,27.0,34.0,68.0,68,5332.0,square4,j,0.3924,3,N,4.0
NS4,92.0,52.0,20.0,35.0,69.0,69,5401.0,square4,j,0.0013,3,N,4.0
NS4,93.0,42.0,15.0,33.0,68.0,68,5469.0,square4,j,0.1,3,N,4.0
NS4,94.0,40.0,24.0,37.0,72.0,72,5541.0,square4,j,0.0416,3,N,4.0
NS4,95.0,43.0,25.0,43.0,69.0,69,5610.0,square4,j,0.0791,3,N,4.0
NS4,96.0,41.0,29.0,43.0,74.0,74,5684.0,square4,j,0.0295,3,N,4.0
NS4,97.0,46.0,32.0,42.0,78.0,78,5762.0,square4,j,0.1455,3,N,4.0
NS4,98.0,48.0,26.0,46.0,75.0,75,5837.0,square4,j,0.0146,3,N,4.0
NS4,99.0,46.0,27.0,45.0,71.0,71,5908.0,square4,j,0.0019,3,N,4.0
V1,0.0,46.0,61.0,52.0,71.0,46,46.0,square1,r,1.3408,0,V,1.0
V1,1.0,45.0,63.0,54.0,78.0,45,91.0,square1,r,0.1601,0,V,1.0
V1,2.0,51.0,58.0,59.0,77.0,58,149.0,square2,i,0.0059,1,V,1.0
V1,3.0,53.0,65.0,56.0,75.0,65,214.0,square2,i,0.0336,1,V,1.0
V1,4.0,49.0,68.0,53.0,72.0,53,267.0,square3,j,0.1358,2,V,1.0
V1,5.0,47.0,70.0,59.0,76.0,76,343.0,square4,f,1.6171,3,V,1.0
V1,6.0,55.0,63.0,54.0,76.0,76,419.0,square4,f,0.1209,3,V,1.0
V1,7.0,47.0,67.0,55.0,74.0,74,493.0,square4,f,0.0671,3,V,1.0
V1,8.0,47.0,65.0,46.0,76.0,76,569.0,square4,f,0.0508,3,V,1.0
V1,9.0,46.0,68.0,59.0,78.0,78,647.0,square4,f,0.3175,3,V,1.0
V1,10.0,58.0,67.0,58.0,79.0,79,726.0,square4,f,0.4182,3,V,1.0
V1,11.0,44.0,61.0,54.0,72.0,72,798.0,square4,f,0.1397,3,V,1.0
V1,12.0,44.0,65.0,56.0,75.0,75,873.0,square4,f,0.094,3,V,1.0
V1,13.0,47.0,63.0,53.0,73.0,73,946.0,square4,f,0.1017,3,V,1.0
V1,14.0,49.0,66.0,56.0,75.0,75,1021.0,square4,f,0.2005,3,V,1.0
V1,15.0,49.0,66.0,52.0,79.0,79,1100.0,square4,f,0.1342,3,V,1.0
V1,16.0,51.0,61.0,48.0,72.0,72,1172.0,square4,f,0.0568,3,V,1.0
V1,17.0,46.0,61.0,59.0,71.0,71,1243.0,square4,f,0.1681,3,V,1.0
V1,18.0,45.0,61.0,53.0,72.0,72,1315.0,square4,f,0.1847,3,V,1.0
V1,19.0,49.0,63.0,54.0,76.0,76,1391.0,square4,f,0.1601,3,V,1.0
V1,20.0,46.0,66.0,52.0,72.0,72,1463.0,square4,f,0.1848,3,V,1.0
V1,21.0,50.0,65.0,51.0,73.0,73,1536.0,square4,f,0.0185,3,V,1.0
V1,22.0,56.0,62.0,56.0,77.0,56,1592.0,square3,j,0.1344,2,V,1.0
V1,23.0,45.0,67.0,54.0,83.0,54,1646.0,square3,j,0.1785,2,V,1.0
V1,24.0,46.0,69.0,57.0,71.0,69,1715.0,square2,i,0.1254,1,V,1.0
V1,25.0,41.0,65.0,55.0,76.0,65,1780.0,square2,i,0.1509,1,V,1.0
V1,26.0,51.0,60.0,55.0,74.0,51,1831.0,square1,r,0.0434,0,V,1.0
V1,27.0,52.0,63.0,56.0,73.0,73,1904.0,square4,f,0.0731,3,V,1.0
V1,28.0,50.0,68.0,50.0,76.0,76,1980.0,square4,f,0.117,3,V,1.0
V1,29.0,51.0,60.0,54.0,74.0,74,2054.0,square4,f,0.1184,3,V,1.0
V1,30.0,35.0,67.0,57.0,40.0,40,2094.0,square4,f,0.1395,3,V,1.0
V1,31.0,38.0,60.0,52.0,35.0,35,2129.0,square4,f,0.168,3,V,1.0
V1,32.0,37.0,67.0,52.0,41.0,41,2170.0,square4,f,0.6516,3,V,1.0
V1,33.0,37.0,62.0,53.0,42.0,42,2212.0,square4,f,0.0677,3,V,1.0
V1,34.0,35.0,58.0,54.0,43.0,58,2270.0,square2,i,0.4008,1,V,1.0
V1,35.0,40.0,60.0,50.0,44.0,40,2310.0,square1,r,0.2856,0,V,1.0
V1,36.0,39.0,66.0,50.0,39.0,50,2360.0,square3,j,0.1006,2,V,1.0
V1,37.0,32.0,59.0,54.0,38.0,59,2419.0,square2,i,0.2176,1,V,1.0
V1,38.0,32.0,64.0,50.0,39.0,64,2483.0,square2,i,0.0881,1,V,1.0
V1,39.0,37.0,60.0,45.0,40.0,60,2543.0,square2,i,0.0965,1,V,1.0
V1,40.0,35.0,61.0,54.0,43.0,61,2604.0,square2,i,0.0019,1,V,1.0
V1,41.0,33.0,62.0,49.0,42.0,99999,2604.0,invalid,,,-1,V,1.0
V1,42.0,31.0,70.0,52.0,42.0,70,2674.0,square2,i,0.1891,1,V,1.0
V1,43.0,37.0,59.0,48.0,41.0,59,2733.0,square2,i,0.9259,1,V,1.0
V1,44.0,39.0,63.0,53.0,44.0,63,2796.0,square2,i,0.0509,1,V,1.0
V1,45.0,37.0,62.0,48.0,41.0,62,2858.0,square2,i,0.1516,1,V,1.0
V1,46.0,34.0,65.0,52.0,39.0,65,2923.0,square2,i,0.2169,1,V,1.0
V1,47.0,42.0,59.0,52.0,43.0,43,2966.0,square4,f,0.1502,3,V,1.0
V1,48.0,39.0,62.0,50.0,38.0,62,3028.0,square2,i,0.0353,1,V,1.0
V1,49.0,33.0,63.0,49.0,40.0,63,3091.0,square2,i,0.1168,1,V,1.0
V1,50.0,38.0,66.0,54.0,37.0,66,3157.0,square2,i,0.0345,1,V,1.0
V1,51.0,33.0,66.0,50.0,37.0,50,3207.0,square3,j,0.0345,2,V,1.0
V1,52.0,41.0,65.0,55.0,44.0,65,3272.0,square2,i,0.1685,1,V,1.0
V1,53.0,75.0,50.0,46.0,60.0,50,3322.0,square2,i,0.0951,1,V,1.0
V1,54.0,74.0,53.0,45.0,61.0,74,3396.0,square1,r,0.0009,0,V,1.0
V1,55.0,74.0,54.0,43.0,65.0,74,3470.0,square1,r,0.0889,0,V,1.0
V1,56.0,73.0,54.0,44.0,56.0,73,3543.0,square1,r,0.0406,0,V,1.0
V1,57.0,67.0,58.0,52.0,63.0,67,3610.0,square1,r,0.0799,0,V,1.0
V1,58.0,72.0,51.0,43.0,62.0,72,3682.0,square1,r,0.0016,0,V,1.0
V1,59.0,68.0,47.0,49.0,56.0,68,3750.0,square1,r,0.045,0,V,1.0
V1,60.0,72.0,55.0,46.0,65.0,72,3822.0,square1,r,0.0197,0,V,1.0
V1,61.0,76.0,50.0,46.0,62.0,50,3872.0,square2,i,0.0259,1,V,1.0
V1,62.0,77.0,58.0,46.0,66.0,77,3949.0,square1,r,0.1375,0,V,1.0
V1,63.0,72.0,53.0,48.0,66.0,72,4021.0,square1,r,0.0042,0,V,1.0
V1,64.0,70.0,49.0,49.0,60.0,70,4091.0,square1,r,0.0688,0,V,1.0
V1,65.0,68.0,49.0,46.0,66.0,66,4157.0,square4,f,0.0108,3,V,1.0
V1,66.0,77.0,52.0,41.0,64.0,64,4221.0,square4,f,0.295,3,V,1.0
V1,67.0,74.0,56.0,42.0,69.0,42,4263.0,square3,j,0.0845,2,V,1.0
V1,68.0,77.0,50.0,46.0,68.0,77,4340.0,square1,r,0.0014,0,V,1.0
V1,69.0,76.0,48.0,45.0,63.0,76,4416.0,square1,r,0.0275,0,V,1.0
V1,70.0,71.0,53.0,50.0,65.0,71,4487.0,square1,r,0.134,0,V,1.0
V1,71.0,70.0,56.0,44.0,59.0,70,4557.0,square1,r,0.1948,0,V,1.0
V1,72.0,74.0,54.0,55.0,61.0,74,4631.0,square1,r,0.1164,0,V,1.0
V1,73.0,73.0,53.0,47.0,61.0,73,4704.0,square1,r,0.1516,0,V,1.0
V1,74.0,71.0,53.0,51.0,65.0,71,4775.0,square1,r,0.078,0,V,1.0
V1,75.0,72.0,51.0,48.0,64.0,72,4847.0,square1,r,0.15,0,V,1.0
V1,76.0,72.0,53.0,49.0,62.0,72,4919.0,square1,r,0.2207,0,V,1.0
V1,77.0,62.0,76.0,64.0,86.0,62,4981.0,square1,r,0.2617,0,V,1.0
V1,78.0,61.0,74.0,63.0,87.0,61,5042.0,square1,r,0.1988,0,V,1.0
V1,79.0,56.0,78.0,67.0,89.0,56,5098.0,square1,r,0.1066,0,V,1.0
V1,80.0,59.0,75.0,63.0,84.0,75,5173.0,square2,i,0.1155,1,V,1.0
V1,81.0,63.0,74.0,68.0,82.0,74,5247.0,square2,i,0.1624,1,V,1.0
V1,82.0,59.0,75.0,67.0,80.0,75,5322.0,square2,i,0.0028,1,V,1.0
V1,83.0,58.0,77.0,63.0,82.0,77,5399.0,square2,i,0.0791,1,V,1.0
V1,84.0,57.0,76.0,64.0,87.0,76,5475.0,square2,i,0.0295,1,V,1.0
V1,85.0,61.0,73.0,66.0,83.0,73,5548.0,square2,i,0.0109,1,V,1.0
V1,86.0,60.0,71.0,66.0,85.0,71,5619.0,square2,i,0.1298,1,V,1.0
V1,87.0,61.0,80.0,73.0,84.0,80,5699.0,square2,i,0.149,1,V,1.0
V1,88.0,67.0,77.0,67.0,85.0,77,5776.0,square2,i,0.0488,1,V,1.0
V1,89.0,60.0,79.0,63.0,86.0,86,5862.0,square4,f,0.1518,3,V,1.0
V1,90.0,60.0,74.0,66.0,88.0,88,5950.0,square4,f,0.0127,3,V,1.0
V1,91.0,57.0,81.0,61.0,79.0,79,6029.0,square4,f,0.2122,3,V,1.0
V1,92.0,61.0,78.0,61.0,84.0,84,6113.0,square4,f,0.1453,3,V,1.0
V1,93.0,64.0,72.0,69.0,83.0,83,6196.0,square4,f,0.0771,3,V,1.0
V1,94.0,64.0,73.0,68.0,83.0,83,6279.0,square4,f,0.0019,3,V,1.0
V1,95.0,61.0,69.0,68.0,87.0,87,6366.0,square4,f,0.0635,3,V,1.0
V1,96.0,55.0,77.0,65.0,88.0,88,6454.0,square4,f,0.0311,3,V,1.0
V1,97.0,61.0,75.0,63.0,82.0,82,6536.0,square4,f,0.1316,3,V,1.0
V1,98.0,59.0,71.0,66.0,82.0,82,6618.0,square4,f,0.1294,3,V,1.0
V1,99.0,61.0,69.0,67.0,84.0,84,6702.0,square4,f,0.0791,3,V,1.0
V4,0.0,63.0,38.0,47.0,55.0,47,47.0,square3,r,0.315,2,V,4.0
V4,1.0,66.0,42.0,43.0,59.0,59,106.0,square4,i,0.3183,3,V,4.0
V4,2.0,66.0,39.0,57.0,59.0,59,165.0,square4,i,0.0345,3,V,4.0
V4,3.0,66.0,37.0,51.0,59.0,66,231.0,square1,f,0.1345,0,V,4.0
V4,4.0,69.0,37.0,50.0,55.0,69,300.0,square1,f,0.0679,0,V,4.0
V4,5.0,64.0,44.0,46.0,62.0,44,344.0,square2,j,0.0846,1,V,4.0
V4,6.0,75.0,43.0,49.0,57.0,75,419.0,square1,f,0.0508,0,V,4.0
V4,7.0,62.0,41.0,52.0,59.0,62,481.0,square1,f,0.056,0,V,4.0
V4,8.0,65.0,41.0,44.0,60.0,65,546.0,square1,f,0.0342,0,V,4.0
V4,9.0,68.0,35.0,44.0,64.0,68,614.0,square1,f,0.0713,0,V,4.0
V4,10.0,67.0,44.0,48.0,61.0,67,681.0,square1,f,0.0016,0,V,4.0
V4,11.0,61.0,40.0,48.0,56.0,61,742.0,square1,f,0.0682,0,V,4.0
V4,12.0,68.0,41.0,49.0,55.0,68,810.0,square1,f,0.0158,0,V,4.0
V4,13.0,63.0,42.0,47.0,60.0,63,873.0,square1,f,0.0774,0,V,4.0
V4,14.0,63.0,40.0,51.0,55.0,63,936.0,square1,f,0.2249,0,V,4.0
V4,15.0,62.0,41.0,52.0,62.0,52,988.0,square3,r,0.2127,2,V,4.0
V4,16.0,69.0,37.0,47.0,60.0,69,1057.0,square1,f,0.5975,0,V,4.0
V4,17.0,66.0,40.0,48.0,56.0,66,1123.0,square1,f,0.6502,0,V,4.0
V4,18.0,67.0,43.0,47.0,59.0,59,1182.0,square4,i,0.0504,3,V,4.0
V4,19.0,64.0,42.0,51.0,59.0,59,1241.0,square4,i,0.0297,3,V,4.0
V4,20.0,67.0,40.0,47.0,58.0,58,1299.0,square4,i,0.0014,3,V,4.0
V4,21.0,60.0,41.0,50.0,59.0,41,1340.0,square2,j,0.0425,1,V,4.0
V4,22.0,66.0,43.0,54.0,55.0,55,1395.0,square4,i,0.0857,3,V,4.0
V4,23.0,67.0,37.0,50.0,62.0,67,1462.0,square1,f,0.0013,0,V,4.0
V4,24.0,67.0,37.0,49.0,60.0,67,1529.0,square1,f,0.1366,0,V,4.0
V4,25.0,67.0,39.0,55.0,52.0,67,1596.0,square1,f,0.1292,0,V,4.0
V4,26.0,64.0,39.0,51.0,63.0,64,1660.0,square1,f,0.1434,0,V,4.0
V4,27.0,68.0,36.0,55.0,60.0,68,1728.0,square1,f,0.0149,0,V,4.0
V4,28.0,67.0,40.0,46.0,54.0,67,1795.0,square1,f,0.1285,0,V,4.0
V4,29.0,67.0,41.0,50.0,57.0,67,1862.0,square1,f,0.2393,0,V,4.0
V4,30.0,66.0,39.0,49.0,53.0,66,1928.0,square1,f,0.201,0,V,4.0
V4,31.0,70.0,38.0,48.0,58.0,70,1998.0,square1,f,0.2118,0,V,4.0
V4,32.0,63.0,40.0,53.0,61.0,63,2061.0,square1,f,0.1629,0,V,4.0
V4,33.0,66.0,41.0,51.0,56.0,66,2127.0,square1,f,0.1468,0,V,4.0
V4,34.0,64.0,39.0,46.0,57.0,64,2191.0,square1,f,1.3598,0,V,4.0
V4,35.0,69.0,36.0,50.0,58.0,50,2241.0,square3,r,0.2179,2,V,4.0
V4,36.0,60.0,43.0,53.0,54.0,54,2295.0,square4,i,0.1755,3,V,4.0
V4,37.0,52.0,78.0,68.0,66.0,52,2347.0,square1,f,0.061,0,V,4.0
V4,38.0,44.0,81.0,68.0,62.0,81,2428.0,square2,j,0.0591,1,V,4.0
V4,39.0,59.0,71.0,70.0,63.0,71,2499.0,square2,j,0.0098,1,V,4.0
V4,40.0,53.0,77.0,73.0,59.0,77,2576.0,square2,j,0.1131,1,V,4.0
V4,41.0,53.0,76.0,74.0,66.0,76,2652.0,square2,j,0.1005,1,V,4.0
V4,42.0,51.0,79.0,73.0,59.0,79,2731.0,square2,j,0.1136,1,V,4.0
V4,43.0,48.0,76.0,68.0,65.0,76,2807.0,square2,j,0.0969,1,V,4.0
V4,44.0,57.0,83.0,78.0,63.0,83,2890.0,square2,j,0.0436,1,V,4.0
V4,45.0,54.0,74.0,69.0,61.0,74,2964.0,square2,j,0.0532,1,V,4.0
V4,46.0,53.0,85.0,66.0,62.0,85,3049.0,square2,j,0.0634,1,V,4.0
V4,47.0,56.0,83.0,68.0,57.0,83,3132.0,square2,j,0.0185,1,V,4.0
V4,48.0,49.0,74.0,73.0,59.0,74,3206.0,square2,j,0.1452,1,V,4.0
V4,49.0,54.0,74.0,70.0,60.0,74,3280.0,square2,j,0.0259,1,V,4.0
V4,50.0,47.0,83.0,69.0,60.0,83,3363.0,square2,j,0.2629,1,V,4.0
V4,51.0,54.0,78.0,73.0,56.0,78,3441.0,square2,j,0.0759,1,V,4.0
V4,52.0,52.0,76.0,71.0,58.0,76,3517.0,square2,j,0.0526,1,V,4.0
V4,53.0,51.0,82.0,76.0,63.0,82,3599.0,square2,j,0.112,1,V,4.0
V4,54.0,57.0,76.0,69.0,64.0,76,3675.0,square2,j,0.0291,1,V,4.0
V4,55.0,49.0,75.0,68.0,59.0,75,3750.0,square2,j,0.027,1,V,4.0
V4,56.0,55.0,81.0,66.0,65.0,81,3831.0,square2,j,0.1346,1,V,4.0
V4,57.0,58.0,80.0,72.0,63.0,80,3911.0,square2,j,0.1833,1,V,4.0
V4,58.0,49.0,81.0,66.0,62.0,49,3960.0,square1,f,0.1004,0,V,4.0
V4,59.0,57.0,78.0,73.0,59.0,73,4033.0,square3,r,0.0924,2,V,4.0
V4,60.0,48.0,79.0,66.0,59.0,59,4092.0,square4,i,0.1255,3,V,4.0
V4,61.0,53.0,80.0,72.0,60.0,80,4172.0,square2,j,0.1289,1,V,4.0
V4,62.0,53.0,79.0,70.0,61.0,79,4251.0,square2,j,0.03,1,V,4.0
V4,63.0,81.0,66.0,90.0,66.0,66,4317.0,square2,j,0.0431,1,V,4.0
V4,64.0,80.0,64.0,85.0,76.0,64,4381.0,square2,j,0.0516,1,V,4.0
V4,65.0,77.0,61.0,92.0,74.0,61,4442.0,square2,j,0.0343,1,V,4.0
V4,66.0,89.0,65.0,91.0,73.0,65,4507.0,square2,j,0.0259,1,V,4.0
V4,67.0,86.0,64.0,92.0,70.0,64,4571.0,square2,j,0.0991,1,V,4.0
V4,68.0,82.0,60.0,91.0,77.0,60,4631.0,square2,j,0.0593,1,V,4.0
V4,69.0,78.0,69.0,90.0,70.0,69,4700.0,square2,j,0.0014,1,V,4.0
V4,70.0,85.0,64.0,95.0,73.0,64,4764.0,square2,j,0.0357,1,V,4.0
V4,71.0,85.0,61.0,88.0,69.0,61,4825.0,square2,j,0.079,1,V,4.0
V4,72.0,86.0,63.0,87.0,75.0,75,4900.0,square4,i,0.0339,3,V,4.0
V4,73.0,86.0,69.0,92.0,70.0,70,4970.0,square4,i,0.1114,3,V,4.0
V4,74.0,81.0,62.0,90.0,69.0,69,5039.0,square4,i,0.0492,3,V,4.0
V4,75.0,83.0,66.0,88.0,74.0,74,5113.0,square4,i,0.0201,3,V,4.0
V4,76.0,80.0,64.0,92.0,75.0,75,5188.0,square4,i,0.0341,3,V,4.0
V4,77.0,81.0,65.0,91.0,74.0,74,5262.0,square4,i,0.0303,3,V,4.0
V4,78.0,78.0,70.0,89.0,73.0,89,5351.0,square3,r,0.0127,2,V,4.0
V4,79.0,84.0,66.0,85.0,75.0,85,5436.0,square3,r,0.0616,2,V,4.0
V4,80.0,83.0,65.0,93.0,74.0,93,5529.0,square3,r,0.0105,2,V,4.0
V4,81.0,86.0,59.0,91.0,74.0,91,5620.0,square3,r,0.1683,2,V,4.0
V4,82.0,87.0,64.0,92.0,73.0,92,5712.0,square3,r,0.2452,2,V,4.0
V4,83.0,83.0,68.0,86.0,70.0,86,5798.0,square3,r,0.0138,2,V,4.0
V4,84.0,82.0,62.0,87.0,73.0,87,5885.0,square3,r,0.226,2,V,4.0
V4,85.0,85.0,61.0,90.0,70.0,90,5975.0,square3,r,0.2619,2,V,4.0
V4,86.0,84.0,66.0,97.0,71.0,97,6072.0,square3,r,0.2033,2,V,4.0
V4,87.0,82.0,64.0,87.0,71.0,82,6154.0,square1,f,0.1811,0,V,4.0
V4,88.0,80.0,67.0,93.0,72.0,93,6247.0,square3,r,0.0652,2,V,4.0
V4,89.0,78.0,64.0,92.0,75.0,92,6339.0,square3,r,0.0472,2,V,4.0
V4,90.0,75.0,66.0,88.0,72.0,88,6427.0,square3,r,0.0464,2,V,4.0
V4,91.0,82.0,59.0,91.0,76.0,76,6503.0,square4,i,0.6133,3,V,4.0
V4,92.0,84.0,62.0,91.0,70.0,62,6565.0,square2,j,0.0318,1,V,4.0
V4,93.0,80.0,61.0,94.0,76.0,94,6659.0,square3,r,0.2294,2,V,4.0
V4,94.0,83.0,64.0,88.0,72.0,88,6747.0,square3,r,0.0344,2,V,4.0
V4,95.0,82.0,60.0,94.0,69.0,94,6841.0,square3,r,0.0198,2,V,4.0
V4,96.0,84.0,63.0,92.0,72.0,92,6933.0,square3,r,0.1094,2,V,4.0
V4,97.0,84.0,62.0,85.0,70.0,85,7018.0,square3,r,0.2114,2,V,4.0
V4,98.0,81.0,64.0,93.0,72.0,93,7111.0,square3,r,0.0019,2,V,4.0
V4,99.0,80.0,61.0,92.0,75.0,92,7203.0,square3,r,0.1697,2,V,4.0
V8,0.0,49.0,55.0,64.0,74.0,55,55.0,square2,r,1.1136,1,V,8.0
V8,1.0,51.0,54.0,70.0,81.0,70,125.0,square3,i,0.2018,2,V,8.0
V8,2.0,46.0,62.0,70.0,77.0,77,202.0,square4,f,0.4454,3,V,8.0
V8,3.0,46.0,56.0,67.0,75.0,46,248.0,square1,j,0.068,0,V,8.0
V8,4.0,50.0,59.0,67.0,83.0,59,307.0,square2,r,0.0847,1,V,8.0
V8,5.0,51.0,54.0,65.0,78.0,65,372.0,square3,i,0.1994,2,V,8.0
V8,6.0,45.0,57.0,66.0,80.0,80,452.0,square4,f,0.0152,3,V,8.0
V8,7.0,46.0,64.0,68.0,77.0,46,498.0,square1,j,0.0015,0,V,8.0
V8,8.0,50.0,57.0,66.0,73.0,73,571.0,square4,f,0.0093,3,V,8.0
V8,9.0,46.0,56.0,71.0,72.0,72,643.0,square4,f,0.0434,3,V,8.0
V8,10.0,56.0,58.0,67.0,75.0,75,718.0,square4,f,0.0015,3,V,8.0
V8,11.0,50.0,61.0,69.0,74.0,74,792.0,square4,f,0.21,3,V,8.0
V8,12.0,59.0,59.0,69.0,77.0,77,869.0,square4,f,0.0338,3,V,8.0
V8,13.0,50.0,56.0,72.0,77.0,77,946.0,square4,f,0.2319,3,V,8.0
V8,14.0,48.0,55.0,65.0,80.0,80,1026.0,square4,f,0.088,3,V,8.0
V8,15.0,48.0,58.0,65.0,76.0,76,1102.0,square4,f,0.0467,3,V,8.0
V8,16.0,49.0,58.0,67.0,75.0,58,1160.0,square2,r,0.2279,1,V,8.0
V8,17.0,51.0,56.0,68.0,76.0,51,1211.0,square1,j,0.1433,0,V,8.0
V8,18.0,52.0,63.0,69.0,80.0,69,1280.0,square3,i,0.1927,2,V,8.0
V8,19.0,54.0,54.0,71.0,79.0,54,1334.0,square2,r,0.1322,1,V,8.0
V8,20.0,48.0,53.0,62.0,77.0,77,1411.0,square4,f,0.2111,3,V,8.0
V8,21.0,44.0,61.0,66.0,77.0,77,1488.0,square4,f,0.2637,3,V,8.0
V8,22.0,52.0,58.0,64.0,78.0,78,1566.0,square4,f,0.261,3,V,8.0
V8,23.0,50.0,49.0,67.0,79.0,49,1615.0,square2,r,0.0935,1,V,8.0
V8,24.0,49.0,59.0,69.0,74.0,49,1664.0,square1,j,0.0083,0,V,8.0
V8,25.0,46.0,61.0,65.0,81.0,65,1729.0,square3,i,0.2356,2,V,8.0
V8,26.0,49.0,58.0,63.0,35.0,58,1787.0,square2,r,0.0788,1,V,8.0
V8,27.0,48.0,51.0,66.0,41.0,41,1828.0,square4,f,0.1188,3,V,8.0
V8,28.0,46.0,55.0,65.0,38.0,46,1874.0,square1,j,0.0998,0,V,8.0
V8,29.0,47.0,58.0,69.0,40.0,69,1943.0,square3,i,0.3113,2,V,8.0
V8,30.0,42.0,55.0,67.0,43.0,55,1998.0,square2,r,0.0764,1,V,8.0
V8,31.0,49.0,56.0,64.0,36.0,64,2062.0,square3,i,0.1498,2,V,8.0
V8,32.0,49.0,55.0,69.0,38.0,69,2131.0,square3,i,0.0626,2,V,8.0
V8,33.0,44.0,52.0,65.0,48.0,65,2196.0,square3,i,0.1752,2,V,8.0
V8,34.0,44.0,57.0,70.0,45.0,70,2266.0,square3,i,0.1612,2,V,8.0
V8,35.0,44.0,54.0,68.0,38.0,68,2334.0,square3,i,0.0431,2,V,8.0
V8,36.0,45.0,56.0,64.0,40.0,64,2398.0,square3,i,0.0301,2,V,8.0
V8,37.0,47.0,57.0,66.0,37.0,37,2435.0,square4,f,0.0859,3,V,8.0
V8,38.0,49.0,50.0,66.0,37.0,50,2485.0,square2,r,0.3443,1,V,8.0
V8,39.0,51.0,56.0,61.0,39.0,51,2536.0,square1,j,0.1292,0,V,8.0
V8,40.0,47.0,59.0,66.0,41.0,66,2602.0,square3,i,0.0474,2,V,8.0
V8,41.0,42.0,56.0,69.0,42.0,69,2671.0,square3,i,0.1636,2,V,8.0
V8,42.0,47.0,57.0,72.0,35.0,72,2743.0,square3,i,0.0287,2,V,8.0
V8,43.0,47.0,57.0,63.0,44.0,63,2806.0,square3,i,0.1812,2,V,8.0
V8,44.0,45.0,58.0,67.0,42.0,67,2873.0,square3,i,0.0797,2,V,8.0
V8,45.0,44.0,56.0,66.0,43.0,66,2939.0,square3,i,0.1327,2,V,8.0
V8,46.0,46.0,53.0,70.0,37.0,70,3009.0,square3,i,0.0616,2,V,8.0
V8,47.0,54.0,53.0,71.0,41.0,71,3080.0,square3,i,0.1149,2,V,8.0
V8,48.0,49.0,53.0,69.0,37.0,69,3149.0,square3,i,0.0938,2,V,8.0
V8,49.0,39.0,57.0,65.0,47.0,65,3214.0,square3,i,0.0459,2,V,8.0
V8,50.0,48.0,55.0,65.0,41.0,65,3279.0,square3,i,0.1178,2,V,8.0
V8,51.0,45.0,61.0,68.0,43.0,68,3347.0,square3,i,0.0445,2,V,8.0
V8,52.0,53.0,52.0,68.0,37.0,52,3399.0,square2,r,0.0269,1,V,8.0
V8,53.0,47.0,55.0,66.0,46.0,46,3445.0,square4,f,0.436,3,V,8.0
V8,54.0,49.0,53.0,61.0,39.0,49,3494.0,square1,j,0.0283,0,V,8.0
V8,55.0,53.0,70.0,55.0,72.0,55,3549.0,square3,i,0.0987,2,V,8.0
V8,56.0,57.0,63.0,48.0,73.0,48,3597.0,square3,i,0.0122,2,V,8.0
V8,57.0,53.0,71.0,45.0,80.0,71,3668.0,square2,r,0.0101,1,V,8.0
V8,58.0,57.0,69.0,52.0,73.0,69,3737.0,square2,r,0.1619,1,V,8.0
V8,59.0,58.0,67.0,54.0,73.0,67,3804.0,square2,r,0.0955,1,V,8.0
V8,60.0,55.0,66.0,47.0,76.0,66,3870.0,square2,r,0.1283,1,V,8.0
V8,61.0,56.0,65.0,54.0,72.0,65,3935.0,square2,r,0.196,1,V,8.0
V8,62.0,56.0,65.0,49.0,75.0,65,4000.0,square2,r,0.0361,1,V,8.0
V8,63.0,61.0,65.0,44.0,78.0,65,4065.0,square2,r,0.0828,1,V,8.0
V8,64.0,54.0,66.0,48.0,75.0,66,4131.0,square2,r,0.0407,1,V,8.0
V8,65.0,59.0,65.0,46.0,79.0,65,4196.0,square2,r,0.0787,1,V,8.0
V8,66.0,51.0,62.0,46.0,73.0,46,4242.0,square3,i,0.1247,2,V,8.0
V8,67.0,60.0,70.0,45.0,76.0,45,4287.0,square3,i,0.0469,2,V,8.0
V8,68.0,63.0,64.0,47.0,73.0,63,4350.0,square1,j,0.0614,0,V,8.0
V8,69.0,58.0,66.0,43.0,77.0,77,4427.0,square4,f,0.0619,3,V,8.0
V8,70.0,59.0,65.0,49.0,73.0,73,4500.0,square4,f,0.0704,3,V,8.0
V8,71.0,60.0,64.0,49.0,79.0,79,4579.0,square4,f,0.1012,3,V,8.0
V8,72.0,96.0,68.0,78.0,67.0,67,4646.0,square4,f,0.2024,3,V,8.0
V8,73.0,96.0,68.0,79.0,64.0,64,4710.0,square4,f,0.2132,3,V,8.0
V8,74.0,92.0,67.0,81.0,62.0,62,4772.0,square4,f,0.2097,3,V,8.0
V8,75.0,96.0,72.0,83.0,62.0,83,4855.0,square3,i,0.0945,2,V,8.0
V8,76.0,94.0,70.0,77.0,57.0,77,4932.0,square3,i,0.1367,2,V,8.0
V8,77.0,91.0,68.0,81.0,59.0,81,5013.0,square3,i,0.146,2,V,8.0
V8,78.0,90.0,73.0,80.0,63.0,80,5093.0,square3,i,0.1359,2,V,8.0
V8,79.0,90.0,73.0,83.0,61.0,83,5176.0,square3,i,0.0076,2,V,8.0
V8,80.0,95.0,75.0,81.0,66.0,75,5251.0,square2,r,0.0014,1,V,8.0
V8,81.0,92.0,72.0,81.0,57.0,92,5343.0,square1,j,0.161,0,V,8.0
V8,82.0,91.0,71.0,80.0,61.0,91,5434.0,square1,j,0.1259,0,V,8.0
V8,83.0,90.0,66.0,83.0,62.0,90,5524.0,square1,j,0.0824,0,V,8.0
V8,84.0,93.0,67.0,87.0,65.0,93,5617.0,square1,j,0.1127,0,V,8.0
V8,85.0,85.0,70.0,80.0,62.0,85,5702.0,square1,j,0.1275,0,V,8.0
V8,86.0,84.0,72.0,85.0,62.0,84,5786.0,square1,j,0.1468,0,V,8.0
V8,87.0,91.0,68.0,82.0,65.0,91,5877.0,square1,j,0.1485,0,V,8.0
V8,88.0,93.0,67.0,83.0,61.0,61,5938.0,square4,f,0.0094,3,V,8.0
V8,89.0,95.0,68.0,78.0,66.0,95,6033.0,square1,j,0.1939,0,V,8.0
V8,90.0,91.0,73.0,80.0,60.0,91,6124.0,square1,j,0.1373,0,V,8.0
V8,91.0,93.0,68.0,81.0,64.0,93,6217.0,square1,j,0.1354,0,V,8.0
V8,92.0,90.0,75.0,82.0,67.0,90,6307.0,square1,j,0.3278,0,V,8.0
V8,93.0,92.0,70.0,82.0,66.0,92,6399.0,square1,j,0.1476,0,V,8.0
V8,94.0,90.0,71.0,78.0,63.0,90,6489.0,square1,j,0.3325,0,V,8.0
V8,95.0,88.0,65.0,78.0,63.0,88,6577.0,square1,j,0.0459,0,V,8.0
V8,96.0,89.0,72.0,85.0,62.0,72,6649.0,square2,r,0.3307,1,V,8.0
V8,97.0,92.0,72.0,77.0,67.0,77,6726.0,square3,i,0.1102,2,V,8.0
V8,98.0,86.0,63.0,82.0,62.0,86,6812.0,square1,j,0.0125,0,V,8.0
V8,99.0,90.0,66.0,75.0,61.0,61,6873.0,square4,f,0.1655,3,V,8.0
