block,Trial,square1,square2,square3,square4,currPoints,totalPoints,square,choiceKey.keys,choiceKey.rt,armNum,blockType,blockNum
prac,0.0,100.0,0.0,0.0,0.0,100.0,100.0,square1,,,0,p,0.0
prac,1.0,100.0,0.0,0.0,0.0,0.0,100.0,square3,,,2,p,0.0
prac,2.0,100.0,0.0,0.0,0.0,0.0,100.0,square4,,,3,p,0.0
prac,3.0,100.0,0.0,0.0,0.0,0.0,100.0,square2,,,1,p,0.0
prac,4.0,100.0,0.0,0.0,0.0,100.0,200.0,square1,,,0,p,0.0
prac,5.0,100.0,0.0,0.0,0.0,100.0,300.0,square1,,,0,p,0.0
prac,6.0,100.0,0.0,0.0,0.0,100.0,400.0,square1,,,0,p,0.0
prac,7.0,100.0,0.0,0.0,0.0,100.0,500.0,square1,,,0,p,0.0
prac,8.0,100.0,0.0,0.0,0.0,100.0,600.0,square1,,,0,p,0.0
prac,9.0,100.0,0.0,0.0,0.0,100.0,700.0,square1,,,0,p,0.0
V8,0.0,49.0,55.0,64.0,74.0,55.0,55.0,square2,f,1.0022,1,V,8.0
V8,1.0,51.0,54.0,70.0,81.0,81.0,136.0,square4,j,0.532,3,V,8.0
V8,2.0,46.0,62.0,70.0,77.0,77.0,213.0,square4,j,0.5941,3,V,8.0
V8,3.0,46.0,56.0,67.0,75.0,46.0,259.0,square1,i,0.4437,0,V,8.0
V8,4.0,50.0,59.0,67.0,83.0,67.0,326.0,square3,r,0.2934,2,V,8.0
V8,5.0,51.0,54.0,65.0,78.0,54.0,380.0,square2,f,0.1439,1,V,8.0
V8,6.0,45.0,57.0,66.0,80.0,80.0,460.0,square4,j,0.2922,3,V,8.0
V8,7.0,46.0,64.0,68.0,77.0,77.0,537.0,square4,j,0.3105,3,V,8.0
V8,8.0,50.0,57.0,66.0,73.0,73.0,610.0,square4,j,0.2931,3,V,8.0
V8,9.0,46.0,56.0,71.0,72.0,72.0,682.0,square4,j,0.3148,3,V,8.0
V8,10.0,56.0,58.0,67.0,75.0,75.0,757.0,square4,j,0.3489,3,V,8.0
V8,11.0,50.0,61.0,69.0,74.0,74.0,831.0,square4,j,0.2604,3,V,8.0
V8,12.0,59.0,59.0,69.0,77.0,77.0,908.0,square4,j,0.3446,3,V,8.0
V8,13.0,50.0,56.0,72.0,77.0,77.0,985.0,square4,j,0.1935,3,V,8.0
V8,14.0,48.0,55.0,65.0,80.0,80.0,1065.0,square4,j,0.2932,3,V,8.0
V8,15.0,48.0,58.0,65.0,76.0,76.0,1141.0,square4,j,0.2775,3,V,8.0
V8,16.0,49.0,58.0,67.0,75.0,75.0,1216.0,square4,j,0.3242,3,V,8.0
V8,17.0,51.0,56.0,68.0,76.0,76.0,1292.0,square4,j,0.3069,3,V,8.0
V8,18.0,52.0,63.0,69.0,80.0,80.0,1372.0,square4,j,0.3105,3,V,8.0
V8,19.0,54.0,54.0,71.0,79.0,79.0,1451.0,square4,j,0.3262,3,V,8.0
V8,20.0,48.0,53.0,62.0,77.0,77.0,1528.0,square4,j,0.2609,3,V,8.0
V8,21.0,44.0,61.0,66.0,77.0,77.0,1605.0,square4,j,0.3113,3,V,8.0
V8,22.0,52.0,58.0,64.0,78.0,78.0,1683.0,square4,j,0.3933,3,V,8.0
V8,23.0,50.0,49.0,67.0,79.0,79.0,1762.0,square4,j,0.3272,3,V,8.0
V8,24.0,49.0,59.0,69.0,74.0,74.0,1836.0,square4,j,0.3433,3,V,8.0
V8,25.0,46.0,61.0,65.0,81.0,81.0,1917.0,square4,j,0.364,3,V,8.0
V8,26.0,49.0,58.0,63.0,35.0,35.0,1952.0,square4,j,0.2394,3,V,8.0
V8,27.0,48.0,51.0,66.0,41.0,66.0,2018.0,square3,r,0.0005,2,V,8.0
V8,28.0,46.0,55.0,65.0,38.0,55.0,2073.0,square2,f,0.0006,1,V,8.0
V8,29.0,47.0,58.0,69.0,40.0,47.0,2120.0,square1,i,0.5217,0,V,8.0
V8,30.0,42.0,55.0,67.0,43.0,67.0,2187.0,square3,r,0.3664,2,V,8.0
V8,31.0,49.0,56.0,64.0,36.0,64.0,2251.0,square3,r,0.2484,2,V,8.0
V8,32.0,49.0,55.0,69.0,38.0,69.0,2320.0,square3,r,0.3651,2,V,8.0
V8,33.0,44.0,52.0,65.0,48.0,65.0,2385.0,square3,r,0.3771,2,V,8.0
V8,34.0,44.0,57.0,70.0,45.0,70.0,2455.0,square3,r,0.3152,2,V,8.0
V8,35.0,44.0,54.0,68.0,38.0,68.0,2523.0,square3,r,0.2827,2,V,8.0
V8,36.0,45.0,56.0,64.0,40.0,64.0,2587.0,square3,r,0.344,2,V,8.0
V8,37.0,47.0,57.0,66.0,37.0,66.0,2653.0,square3,r,0.3274,2,V,8.0
V8,38.0,49.0,50.0,66.0,37.0,66.0,2719.0,square3,r,0.1716,2,V,8.0
V8,39.0,51.0,56.0,61.0,39.0,61.0,2780.0,square3,r,0.3096,2,V,8.0
V8,40.0,47.0,59.0,66.0,41.0,66.0,2846.0,square3,r,0.2978,2,V,8.0
V8,41.0,42.0,56.0,69.0,42.0,69.0,2915.0,square3,r,0.3948,2,V,8.0
V8,42.0,47.0,57.0,72.0,35.0,72.0,2987.0,square3,r,0.3237,2,V,8.0
V8,43.0,47.0,57.0,63.0,44.0,63.0,3050.0,square3,r,0.3486,2,V,8.0
V8,44.0,45.0,58.0,67.0,42.0,67.0,3117.0,square3,r,0.4396,2,V,8.0
V8,45.0,44.0,56.0,66.0,43.0,66.0,3183.0,square3,r,0.2832,2,V,8.0
V8,46.0,46.0,53.0,70.0,37.0,70.0,3253.0,square3,r,0.346,2,V,8.0
V8,47.0,54.0,53.0,71.0,41.0,71.0,3324.0,square3,r,0.3398,2,V,8.0
V8,48.0,49.0,53.0,69.0,37.0,69.0,3393.0,square3,r,0.3483,2,V,8.0
V8,49.0,39.0,57.0,65.0,47.0,65.0,3458.0,square3,r,0.3404,2,V,8.0
V8,50.0,48.0,55.0,65.0,41.0,41.0,3499.0,square4,j,0.3903,3,V,8.0
V8,51.0,45.0,61.0,68.0,43.0,68.0,3567.0,square3,r,0.4983,2,V,8.0
V8,52.0,53.0,52.0,68.0,37.0,68.0,3635.0,square3,r,0.4431,2,V,8.0
V8,53.0,47.0,55.0,66.0,46.0,66.0,3701.0,square3,r,0.3039,2,V,8.0
V8,54.0,49.0,53.0,61.0,39.0,61.0,3762.0,square3,r,0.3898,2,V,8.0
V8,55.0,53.0,70.0,55.0,72.0,55.0,3817.0,square3,r,0.3424,2,V,8.0
V8,56.0,57.0,63.0,48.0,73.0,63.0,3880.0,square2,f,0.3323,1,V,8.0
V8,57.0,53.0,71.0,45.0,80.0,71.0,3951.0,square2,f,0.407,1,V,8.0
V8,58.0,57.0,69.0,52.0,73.0,69.0,4020.0,square2,f,0.4939,1,V,8.0
V8,59.0,58.0,67.0,54.0,73.0,58.0,4078.0,square1,i,0.3442,0,V,8.0
V8,60.0,55.0,66.0,47.0,76.0,76.0,4154.0,square4,j,0.1236,3,V,8.0
V8,61.0,56.0,65.0,54.0,72.0,65.0,4219.0,square2,f,0.4273,1,V,8.0
V8,62.0,56.0,65.0,49.0,75.0,75.0,4294.0,square4,j,0.2655,3,V,8.0
V8,63.0,61.0,65.0,44.0,78.0,78.0,4372.0,square4,j,0.3101,3,V,8.0
V8,64.0,54.0,66.0,48.0,75.0,75.0,4447.0,square4,j,0.4323,3,V,8.0
V8,65.0,59.0,65.0,46.0,79.0,79.0,4526.0,square4,j,0.3265,3,V,8.0
V8,66.0,51.0,62.0,46.0,73.0,73.0,4599.0,square4,j,0.3113,3,V,8.0
V8,67.0,60.0,70.0,45.0,76.0,76.0,4675.0,square4,j,0.2818,3,V,8.0
V8,68.0,63.0,64.0,47.0,73.0,73.0,4748.0,square4,j,0.3273,3,V,8.0
V8,69.0,58.0,66.0,43.0,77.0,77.0,4825.0,square4,j,0.2648,3,V,8.0
V8,70.0,59.0,65.0,49.0,73.0,73.0,4898.0,square4,j,0.259,3,V,8.0
V8,71.0,60.0,64.0,49.0,79.0,79.0,4977.0,square4,j,0.2103,3,V,8.0
V8,72.0,96.0,68.0,78.0,67.0,67.0,5044.0,square4,j,0.1953,3,V,8.0
V8,73.0,96.0,68.0,79.0,64.0,64.0,5108.0,square4,j,0.3831,3,V,8.0
V8,74.0,92.0,67.0,81.0,62.0,62.0,5170.0,square4,j,0.2442,3,V,8.0
V8,75.0,96.0,72.0,83.0,62.0,83.0,5253.0,square3,r,0.321,2,V,8.0
V8,76.0,94.0,70.0,77.0,57.0,77.0,5330.0,square3,r,0.2943,2,V,8.0
V8,77.0,91.0,68.0,81.0,59.0,81.0,5411.0,square3,r,0.3945,2,V,8.0
V8,78.0,90.0,73.0,80.0,63.0,80.0,5491.0,square3,r,0.3069,2,V,8.0
V8,79.0,90.0,73.0,83.0,61.0,83.0,5574.0,square3,r,0.3403,2,V,8.0
V8,80.0,95.0,75.0,81.0,66.0,81.0,5655.0,square3,r,0.3464,2,V,8.0
V8,81.0,92.0,72.0,81.0,57.0,81.0,5736.0,square3,r,0.3279,2,V,8.0
V8,82.0,91.0,71.0,80.0,61.0,80.0,5816.0,square3,r,0.4814,2,V,8.0
V8,83.0,90.0,66.0,83.0,62.0,83.0,5899.0,square3,r,0.323,2,V,8.0
V8,84.0,93.0,67.0,87.0,65.0,87.0,5986.0,square3,r,0.3066,2,V,8.0
V8,85.0,85.0,70.0,80.0,62.0,80.0,6066.0,square3,r,0.3625,2,V,8.0
V8,86.0,84.0,72.0,85.0,62.0,85.0,6151.0,square3,r,0.31,2,V,8.0
V8,87.0,91.0,68.0,82.0,65.0,82.0,6233.0,square3,r,0.3101,2,V,8.0
V8,88.0,93.0,67.0,83.0,61.0,83.0,6316.0,square3,r,0.2113,2,V,8.0
V8,89.0,95.0,68.0,78.0,66.0,78.0,6394.0,square3,r,0.26,2,V,8.0
V8,90.0,91.0,73.0,80.0,60.0,80.0,6474.0,square3,r,0.2651,2,V,8.0
V8,91.0,93.0,68.0,81.0,64.0,81.0,6555.0,square3,r,0.243,2,V,8.0
V8,92.0,90.0,75.0,82.0,67.0,82.0,6637.0,square3,r,0.2603,2,V,8.0
V8,93.0,92.0,70.0,82.0,66.0,82.0,6719.0,square3,r,0.2113,2,V,8.0
V8,94.0,90.0,71.0,78.0,63.0,78.0,6797.0,square3,r,0.2407,2,V,8.0
V8,95.0,88.0,65.0,78.0,63.0,78.0,6875.0,square3,r,0.1646,2,V,8.0
V8,96.0,89.0,72.0,85.0,62.0,85.0,6960.0,square3,r,0.2238,2,V,8.0
V8,97.0,92.0,72.0,77.0,67.0,77.0,7037.0,square3,r,0.2438,2,V,8.0
V8,98.0,86.0,63.0,82.0,62.0,82.0,7119.0,square3,r,0.3075,2,V,8.0
V8,99.0,90.0,66.0,75.0,61.0,75.0,7194.0,square3,r,0.2938,2,V,8.0
V2,0.0,33.0,24.0,43.0,18.0,18.0,18.0,square4,f,0.5535,3,V,2.0
V2,1.0,33.0,29.0,42.0,21.0,42.0,60.0,square3,j,0.2586,2,V,2.0
V2,2.0,37.0,26.0,45.0,22.0,26.0,86.0,square2,i,0.1642,1,V,2.0
V2,3.0,39.0,26.0,41.0,20.0,39.0,125.0,square1,r,0.1762,0,V,2.0
V2,4.0,29.0,32.0,45.0,19.0,19.0,144.0,square4,f,0.2277,3,V,2.0
V2,5.0,33.0,28.0,44.0,17.0,44.0,188.0,square3,j,0.2276,2,V,2.0
V2,6.0,32.0,24.0,49.0,20.0,49.0,237.0,square3,j,0.1822,2,V,2.0
V2,7.0,32.0,21.0,42.0,13.0,42.0,279.0,square3,j,0.2796,2,V,2.0
V2,8.0,35.0,23.0,45.0,19.0,45.0,324.0,square3,j,0.2428,2,V,2.0
V2,9.0,33.0,28.0,46.0,17.0,46.0,370.0,square3,j,0.2437,2,V,2.0
V2,10.0,39.0,27.0,45.0,21.0,45.0,415.0,square3,j,0.1937,2,V,2.0
V2,11.0,30.0,23.0,44.0,22.0,44.0,459.0,square3,j,0.295,2,V,2.0
V2,12.0,31.0,26.0,43.0,16.0,43.0,502.0,square3,j,0.3778,2,V,2.0
V2,13.0,35.0,26.0,43.0,22.0,43.0,545.0,square3,j,0.2307,2,V,2.0
V2,14.0,35.0,29.0,46.0,19.0,46.0,591.0,square3,j,0.1448,2,V,2.0
V2,15.0,36.0,22.0,44.0,20.0,44.0,635.0,square3,j,0.2439,2,V,2.0
V2,16.0,33.0,27.0,45.0,19.0,45.0,680.0,square3,j,0.3057,2,V,2.0
V2,17.0,35.0,25.0,41.0,15.0,41.0,721.0,square3,j,0.276,2,V,2.0
V2,18.0,37.0,27.0,51.0,21.0,51.0,772.0,square3,j,0.6236,2,V,2.0
V2,19.0,33.0,25.0,43.0,18.0,43.0,815.0,square3,j,0.2794,2,V,2.0
V2,20.0,39.0,25.0,43.0,20.0,43.0,858.0,square3,j,0.1767,2,V,2.0
V2,21.0,27.0,32.0,43.0,24.0,43.0,901.0,square3,j,0.0769,2,V,2.0
V2,22.0,35.0,27.0,50.0,13.0,50.0,951.0,square3,j,0.1939,2,V,2.0
V2,23.0,36.0,25.0,39.0,17.0,39.0,990.0,square3,j,0.1782,2,V,2.0
V2,24.0,32.0,45.0,39.0,59.0,45.0,1035.0,square2,i,0.2738,1,V,2.0
V2,25.0,26.0,43.0,37.0,55.0,26.0,1061.0,square1,r,0.2733,0,V,2.0
V2,26.0,23.0,45.0,39.0,58.0,58.0,1119.0,square4,f,0.1765,3,V,2.0
V2,27.0,30.0,44.0,40.0,56.0,56.0,1175.0,square4,f,0.2939,3,V,2.0
V2,28.0,34.0,48.0,41.0,54.0,48.0,1223.0,square2,i,0.2609,1,V,2.0
V2,29.0,29.0,42.0,35.0,54.0,54.0,1277.0,square4,f,0.078,3,V,2.0
V2,30.0,22.0,39.0,39.0,55.0,55.0,1332.0,square4,f,0.2614,3,V,2.0
V2,31.0,32.0,48.0,35.0,50.0,50.0,1382.0,square4,f,0.1287,3,V,2.0
V2,32.0,27.0,47.0,40.0,58.0,58.0,1440.0,square4,f,0.1771,3,V,2.0
V2,33.0,28.0,46.0,31.0,54.0,54.0,1494.0,square4,f,0.1737,3,V,2.0
V2,34.0,28.0,44.0,41.0,49.0,49.0,1543.0,square4,f,0.294,3,V,2.0
V2,35.0,31.0,44.0,33.0,59.0,59.0,1602.0,square4,f,0.2604,3,V,2.0
V2,36.0,29.0,48.0,30.0,55.0,55.0,1657.0,square4,f,0.2321,3,V,2.0
V2,37.0,25.0,45.0,32.0,51.0,51.0,1708.0,square4,f,0.2974,3,V,2.0
V2,38.0,29.0,48.0,33.0,54.0,54.0,1762.0,square4,f,0.1967,3,V,2.0
V2,39.0,29.0,44.0,33.0,54.0,54.0,1816.0,square4,f,0.2259,3,V,2.0
V2,40.0,33.0,42.0,37.0,61.0,61.0,1877.0,square4,f,0.3437,3,V,2.0
V2,41.0,28.0,45.0,41.0,57.0,57.0,1934.0,square4,f,0.2117,3,V,2.0
V2,42.0,33.0,46.0,36.0,54.0,54.0,1988.0,square4,f,0.0936,3,V,2.0
V2,43.0,31.0,42.0,40.0,57.0,57.0,2045.0,square4,f,0.1491,3,V,2.0
V2,44.0,27.0,45.0,38.0,56.0,56.0,2101.0,square4,f,0.1438,3,V,2.0
V2,45.0,27.0,44.0,32.0,51.0,51.0,2152.0,square4,f,0.1275,3,V,2.0
V2,46.0,28.0,44.0,39.0,57.0,57.0,2209.0,square4,f,0.127,3,V,2.0
V2,47.0,30.0,45.0,36.0,56.0,56.0,2265.0,square4,f,0.1773,3,V,2.0
V2,48.0,31.0,47.0,41.0,59.0,59.0,2324.0,square4,f,0.1991,3,V,2.0
V2,49.0,32.0,45.0,33.0,57.0,57.0,2381.0,square4,f,0.1881,3,V,2.0
V2,50.0,24.0,38.0,36.0,52.0,52.0,2433.0,square4,f,0.1609,3,V,2.0
V2,51.0,29.0,48.0,34.0,54.0,54.0,2487.0,square4,f,0.1781,3,V,2.0
V2,52.0,30.0,50.0,38.0,56.0,56.0,2543.0,square4,f,0.1448,3,V,2.0
V2,53.0,27.0,47.0,33.0,55.0,55.0,2598.0,square4,f,0.2447,3,V,2.0
V2,54.0,34.0,21.0,45.0,25.0,25.0,2623.0,square4,f,0.1618,3,V,2.0
V2,55.0,36.0,19.0,39.0,24.0,39.0,2662.0,square3,j,0.2443,2,V,2.0
V2,56.0,29.0,19.0,45.0,18.0,19.0,2681.0,square2,i,0.1116,1,V,2.0
V2,57.0,29.0,20.0,39.0,20.0,29.0,2710.0,square1,r,0.0005,0,V,2.0
V2,58.0,40.0,18.0,42.0,21.0,42.0,2752.0,square3,j,0.0619,2,V,2.0
V2,59.0,31.0,17.0,44.0,23.0,44.0,2796.0,square3,j,0.2288,2,V,2.0
V2,60.0,31.0,19.0,42.0,20.0,42.0,2838.0,square3,j,0.3391,2,V,2.0
V2,61.0,34.0,16.0,41.0,25.0,41.0,2879.0,square3,j,0.2162,2,V,2.0
V2,62.0,28.0,12.0,41.0,22.0,41.0,2920.0,square3,j,0.228,2,V,2.0
V2,63.0,32.0,14.0,45.0,26.0,45.0,2965.0,square3,j,0.1632,2,V,2.0
V2,64.0,36.0,21.0,41.0,25.0,41.0,3006.0,square3,j,0.2101,2,V,2.0
V2,65.0,32.0,13.0,39.0,24.0,39.0,3045.0,square3,j,0.1583,2,V,2.0
V2,66.0,35.0,15.0,42.0,20.0,42.0,3087.0,square3,j,0.2444,2,V,2.0
V2,67.0,30.0,23.0,47.0,27.0,47.0,3134.0,square3,j,0.2106,2,V,2.0
V2,68.0,31.0,17.0,43.0,24.0,43.0,3177.0,square3,j,0.2162,2,V,2.0
V2,69.0,33.0,20.0,41.0,20.0,20.0,3197.0,square4,f,0.1942,3,V,2.0
V2,70.0,37.0,17.0,43.0,21.0,43.0,3240.0,square3,j,0.4284,2,V,2.0
V2,71.0,45.0,31.0,36.0,58.0,36.0,3276.0,square3,j,0.3275,2,V,2.0
V2,72.0,47.0,31.0,31.0,54.0,31.0,3307.0,square3,j,0.2432,2,V,2.0
V2,73.0,50.0,30.0,33.0,55.0,30.0,3337.0,square2,i,0.3104,1,V,2.0
V2,74.0,45.0,31.0,36.0,51.0,45.0,3382.0,square1,r,0.4772,0,V,2.0
V2,75.0,47.0,28.0,38.0,54.0,47.0,3429.0,square1,r,0.3398,0,V,2.0
V2,76.0,52.0,33.0,35.0,60.0,52.0,3481.0,square1,r,0.2604,0,V,2.0
V2,77.0,41.0,29.0,37.0,53.0,41.0,3522.0,square1,r,0.3049,0,V,2.0
V2,78.0,51.0,24.0,34.0,56.0,51.0,3573.0,square1,r,0.1269,0,V,2.0
V2,79.0,41.0,34.0,36.0,52.0,41.0,3614.0,square1,r,0.2444,0,V,2.0
V2,80.0,48.0,31.0,37.0,51.0,48.0,3662.0,square1,r,0.1283,0,V,2.0
V2,81.0,43.0,32.0,40.0,53.0,43.0,3705.0,square1,r,0.2436,0,V,2.0
V2,82.0,48.0,25.0,37.0,58.0,48.0,3753.0,square1,r,0.1943,0,V,2.0
V2,83.0,45.0,32.0,36.0,61.0,45.0,3798.0,square1,r,0.1475,0,V,2.0
V2,84.0,47.0,29.0,39.0,60.0,60.0,3858.0,square4,f,0.2271,3,V,2.0
V2,85.0,49.0,30.0,39.0,54.0,54.0,3912.0,square4,f,0.249,3,V,2.0
V2,86.0,46.0,28.0,33.0,51.0,51.0,3963.0,square4,f,0.2897,3,V,2.0
V2,87.0,45.0,24.0,37.0,55.0,55.0,4018.0,square4,f,0.127,3,V,2.0
V2,88.0,48.0,29.0,42.0,54.0,54.0,4072.0,square4,f,0.1606,3,V,2.0
V2,89.0,43.0,31.0,38.0,52.0,52.0,4124.0,square4,f,0.06,3,V,2.0
V2,90.0,51.0,33.0,36.0,56.0,56.0,4180.0,square4,f,0.1139,3,V,2.0
V2,91.0,49.0,32.0,37.0,59.0,59.0,4239.0,square4,f,0.247,3,V,2.0
V2,92.0,47.0,29.0,37.0,56.0,56.0,4295.0,square4,f,0.2093,3,V,2.0
V2,93.0,45.0,27.0,35.0,56.0,45.0,4340.0,square1,r,0.2766,0,V,2.0
V2,94.0,45.0,31.0,31.0,49.0,49.0,4389.0,square4,f,0.1899,3,V,2.0
V2,95.0,47.0,33.0,36.0,52.0,36.0,4425.0,square3,j,0.3941,2,V,2.0
V2,96.0,44.0,28.0,37.0,59.0,28.0,4453.0,square2,i,0.2341,1,V,2.0
V2,97.0,48.0,28.0,33.0,55.0,55.0,4508.0,square4,f,0.3126,3,V,2.0
V2,98.0,49.0,29.0,39.0,60.0,60.0,4568.0,square4,f,0.2924,3,V,2.0
V2,99.0,44.0,30.0,36.0,50.0,50.0,4618.0,square4,f,0.1893,3,V,2.0
V1,0.0,46.0,61.0,52.0,71.0,52.0,52.0,square3,f,0.7258,2,V,1.0
V1,1.0,45.0,63.0,54.0,78.0,63.0,115.0,square2,j,0.2669,1,V,1.0
V1,2.0,51.0,58.0,59.0,77.0,51.0,166.0,square1,i,0.2484,0,V,1.0
V1,3.0,53.0,65.0,56.0,75.0,75.0,241.0,square4,r,0.2575,3,V,1.0
V1,4.0,49.0,68.0,53.0,72.0,72.0,313.0,square4,r,0.2102,3,V,1.0
V1,5.0,47.0,70.0,59.0,76.0,76.0,389.0,square4,r,0.1971,3,V,1.0
V1,6.0,55.0,63.0,54.0,76.0,76.0,465.0,square4,r,0.2432,3,V,1.0
V1,7.0,47.0,67.0,55.0,74.0,74.0,539.0,square4,r,0.2395,3,V,1.0
V1,8.0,47.0,65.0,46.0,76.0,76.0,615.0,square4,r,0.1649,3,V,1.0
V1,9.0,46.0,68.0,59.0,78.0,78.0,693.0,square4,r,0.2281,3,V,1.0
V1,10.0,58.0,67.0,58.0,79.0,79.0,772.0,square4,r,0.1269,3,V,1.0
V1,11.0,44.0,61.0,54.0,72.0,72.0,844.0,square4,r,0.1768,3,V,1.0
V1,12.0,44.0,65.0,56.0,75.0,75.0,919.0,square4,r,0.2394,3,V,1.0
V1,13.0,47.0,63.0,53.0,73.0,73.0,992.0,square4,r,0.227,3,V,1.0
V1,14.0,49.0,66.0,56.0,75.0,75.0,1067.0,square4,r,0.2765,3,V,1.0
V1,15.0,49.0,66.0,52.0,79.0,79.0,1146.0,square4,r,0.2803,3,V,1.0
V1,16.0,51.0,61.0,48.0,72.0,72.0,1218.0,square4,r,0.2433,3,V,1.0
V1,17.0,46.0,61.0,59.0,71.0,71.0,1289.0,square4,r,0.3458,3,V,1.0
V1,18.0,45.0,61.0,53.0,72.0,72.0,1361.0,square4,r,0.2733,3,V,1.0
V1,19.0,49.0,63.0,54.0,76.0,76.0,1437.0,square4,r,0.2605,3,V,1.0
V1,20.0,46.0,66.0,52.0,72.0,72.0,1509.0,square4,r,0.2772,3,V,1.0
V1,21.0,50.0,65.0,51.0,73.0,73.0,1582.0,square4,r,0.2109,3,V,1.0
V1,22.0,56.0,62.0,56.0,77.0,56.0,1638.0,square3,f,0.1273,2,V,1.0
V1,23.0,45.0,67.0,54.0,83.0,67.0,1705.0,square2,j,0.012,1,V,1.0
V1,24.0,46.0,69.0,57.0,71.0,46.0,1751.0,square1,i,0.1766,0,V,1.0
V1,25.0,41.0,65.0,55.0,76.0,76.0,1827.0,square4,r,0.2598,3,V,1.0
V1,26.0,51.0,60.0,55.0,74.0,74.0,1901.0,square4,r,0.2604,3,V,1.0
V1,27.0,52.0,63.0,56.0,73.0,73.0,1974.0,square4,r,0.2222,3,V,1.0
V1,28.0,50.0,68.0,50.0,76.0,76.0,2050.0,square4,r,0.2398,3,V,1.0
V1,29.0,51.0,60.0,54.0,74.0,74.0,2124.0,square4,r,0.0949,3,V,1.0
V1,30.0,35.0,67.0,57.0,40.0,40.0,2164.0,square4,r,0.2102,3,V,1.0
V1,31.0,38.0,60.0,52.0,35.0,52.0,2216.0,square3,f,0.2951,2,V,1.0
V1,32.0,37.0,67.0,52.0,41.0,67.0,2283.0,square2,j,0.1161,1,V,1.0
V1,33.0,37.0,62.0,53.0,42.0,37.0,2320.0,square1,i,0.2398,0,V,1.0
V1,34.0,35.0,58.0,54.0,43.0,58.0,2378.0,square2,j,0.2605,1,V,1.0
V1,35.0,40.0,60.0,50.0,44.0,60.0,2438.0,square2,j,0.2938,1,V,1.0
V1,36.0,39.0,66.0,50.0,39.0,66.0,2504.0,square2,j,0.1426,1,V,1.0
V1,37.0,32.0,59.0,54.0,38.0,59.0,2563.0,square2,j,0.2321,1,V,1.0
V1,38.0,32.0,64.0,50.0,39.0,64.0,2627.0,square2,j,0.2043,1,V,1.0
V1,39.0,37.0,60.0,45.0,40.0,60.0,2687.0,square2,j,0.1912,1,V,1.0
V1,40.0,35.0,61.0,54.0,43.0,61.0,2748.0,square2,j,0.2262,1,V,1.0
V1,41.0,33.0,62.0,49.0,42.0,62.0,2810.0,square2,j,0.2323,1,V,1.0
V1,42.0,31.0,70.0,52.0,42.0,70.0,2880.0,square2,j,0.1952,1,V,1.0
V1,43.0,37.0,59.0,48.0,41.0,59.0,2939.0,square2,j,0.211,1,V,1.0
V1,44.0,39.0,63.0,53.0,44.0,63.0,3002.0,square2,j,0.2777,1,V,1.0
V1,45.0,37.0,62.0,48.0,41.0,62.0,3064.0,square2,j,0.327,1,V,1.0
V1,46.0,34.0,65.0,52.0,39.0,39.0,3103.0,square4,r,0.3145,3,V,1.0
V1,47.0,42.0,59.0,52.0,43.0,52.0,3155.0,square3,f,0.2239,2,V,1.0
V1,48.0,39.0,62.0,50.0,38.0,62.0,3217.0,square2,j,0.2329,1,V,1.0
V1,49.0,33.0,63.0,49.0,40.0,63.0,3280.0,square2,j,0.3108,1,V,1.0
V1,50.0,38.0,66.0,54.0,37.0,66.0,3346.0,square2,j,0.2271,1,V,1.0
V1,51.0,33.0,66.0,50.0,37.0,66.0,3412.0,square2,j,0.2768,1,V,1.0
V1,52.0,41.0,65.0,55.0,44.0,65.0,3477.0,square2,j,0.2268,1,V,1.0
V1,53.0,75.0,50.0,46.0,60.0,50.0,3527.0,square2,j,0.2598,1,V,1.0
V1,54.0,74.0,53.0,45.0,61.0,53.0,3580.0,square2,j,0.4292,1,V,1.0
V1,55.0,74.0,54.0,43.0,65.0,54.0,3634.0,square2,j,0.1963,1,V,1.0
V1,56.0,73.0,54.0,44.0,56.0,56.0,3690.0,square4,r,0.2334,3,V,1.0
V1,57.0,67.0,58.0,52.0,63.0,63.0,3753.0,square4,r,0.278,3,V,1.0
V1,58.0,72.0,51.0,43.0,62.0,62.0,3815.0,square4,r,0.3268,3,V,1.0
V1,59.0,68.0,47.0,49.0,56.0,56.0,3871.0,square4,r,0.2936,3,V,1.0
V1,60.0,72.0,55.0,46.0,65.0,55.0,3926.0,square2,j,0.512,1,V,1.0
V1,61.0,76.0,50.0,46.0,62.0,46.0,3972.0,square3,f,0.2809,2,V,1.0
V1,62.0,77.0,58.0,46.0,66.0,77.0,4049.0,square1,i,0.2395,0,V,1.0
V1,63.0,72.0,53.0,48.0,66.0,72.0,4121.0,square1,i,0.4235,0,V,1.0
V1,64.0,70.0,49.0,49.0,60.0,70.0,4191.0,square1,i,0.4425,0,V,1.0
V1,65.0,68.0,49.0,46.0,66.0,68.0,4259.0,square1,i,0.3265,0,V,1.0
V1,66.0,77.0,52.0,41.0,64.0,77.0,4336.0,square1,i,0.265,0,V,1.0
V1,67.0,74.0,56.0,42.0,69.0,74.0,4410.0,square1,i,0.2593,0,V,1.0
V1,68.0,77.0,50.0,46.0,68.0,77.0,4487.0,square1,i,0.2433,0,V,1.0
V1,69.0,76.0,48.0,45.0,63.0,76.0,4563.0,square1,i,0.2938,0,V,1.0
V1,70.0,71.0,53.0,50.0,65.0,71.0,4634.0,square1,i,0.2776,0,V,1.0
V1,71.0,70.0,56.0,44.0,59.0,70.0,4704.0,square1,i,0.2975,0,V,1.0
V1,72.0,74.0,54.0,55.0,61.0,74.0,4778.0,square1,i,0.2601,0,V,1.0
V1,73.0,73.0,53.0,47.0,61.0,73.0,4851.0,square1,i,0.3075,0,V,1.0
V1,74.0,71.0,53.0,51.0,65.0,71.0,4922.0,square1,i,0.2926,0,V,1.0
V1,75.0,72.0,51.0,48.0,64.0,72.0,4994.0,square1,i,0.2901,0,V,1.0
V1,76.0,72.0,53.0,49.0,62.0,72.0,5066.0,square1,i,0.3063,0,V,1.0
V1,77.0,62.0,76.0,64.0,86.0,62.0,5128.0,square1,i,0.2443,0,V,1.0
V1,78.0,61.0,74.0,63.0,87.0,61.0,5189.0,square1,i,0.4096,0,V,1.0
V1,79.0,56.0,78.0,67.0,89.0,89.0,5278.0,square4,r,0.2255,3,V,1.0
V1,80.0,59.0,75.0,63.0,84.0,84.0,5362.0,square4,r,0.2766,3,V,1.0
V1,81.0,63.0,74.0,68.0,82.0,82.0,5444.0,square4,r,0.2387,3,V,1.0
V1,82.0,59.0,75.0,67.0,80.0,80.0,5524.0,square4,r,0.1932,3,V,1.0
V1,83.0,58.0,77.0,63.0,82.0,82.0,5606.0,square4,r,0.2752,3,V,1.0
V1,84.0,57.0,76.0,64.0,87.0,87.0,5693.0,square4,r,0.3112,3,V,1.0
V1,85.0,61.0,73.0,66.0,83.0,83.0,5776.0,square4,r,0.2729,3,V,1.0
V1,86.0,60.0,71.0,66.0,85.0,85.0,5861.0,square4,r,0.2434,3,V,1.0
V1,87.0,61.0,80.0,73.0,84.0,84.0,5945.0,square4,r,0.1764,3,V,1.0
V1,88.0,67.0,77.0,67.0,85.0,85.0,6030.0,square4,r,0.2598,3,V,1.0
V1,89.0,60.0,79.0,63.0,86.0,86.0,6116.0,square4,r,0.2437,3,V,1.0
V1,90.0,60.0,74.0,66.0,88.0,88.0,6204.0,square4,r,0.2784,3,V,1.0
V1,91.0,57.0,81.0,61.0,79.0,79.0,6283.0,square4,r,0.2448,3,V,1.0
V1,92.0,61.0,78.0,61.0,84.0,84.0,6367.0,square4,r,0.2996,3,V,1.0
V1,93.0,64.0,72.0,69.0,83.0,83.0,6450.0,square4,r,0.3235,3,V,1.0
V1,94.0,64.0,73.0,68.0,83.0,83.0,6533.0,square4,r,0.3252,3,V,1.0
V1,95.0,61.0,69.0,68.0,87.0,87.0,6620.0,square4,r,0.2934,3,V,1.0
V1,96.0,55.0,77.0,65.0,88.0,88.0,6708.0,square4,r,0.2436,3,V,1.0
V1,97.0,61.0,75.0,63.0,82.0,82.0,6790.0,square4,r,0.2821,3,V,1.0
V1,98.0,59.0,71.0,66.0,82.0,82.0,6872.0,square4,r,0.2911,3,V,1.0
V1,99.0,61.0,69.0,67.0,84.0,84.0,6956.0,square4,r,0.2819,3,V,1.0
NS10,0.0,61.0,42.0,19.0,80.0,42.0,42.0,square2,f,0.6032,1,N,10.0
NS10,1.0,62.0,41.0,25.0,78.0,78.0,120.0,square4,j,0.2632,3,N,10.0
NS10,2.0,64.0,42.0,22.0,80.0,22.0,142.0,square3,i,0.3785,2,N,10.0
NS10,3.0,66.0,50.0,21.0,73.0,66.0,208.0,square1,r,0.1651,0,N,10.0
NS10,4.0,65.0,48.0,19.0,80.0,80.0,288.0,square4,j,0.2428,3,N,10.0
NS10,5.0,66.0,48.0,23.0,75.0,75.0,363.0,square4,j,0.1788,3,N,10.0
NS10,6.0,60.0,47.0,26.0,77.0,77.0,440.0,square4,j,0.2622,3,N,10.0
NS10,7.0,66.0,43.0,25.0,81.0,81.0,521.0,square4,j,0.1441,3,N,10.0
NS10,8.0,72.0,42.0,23.0,80.0,80.0,601.0,square4,j,0.2266,3,N,10.0
NS10,9.0,66.0,45.0,21.0,81.0,81.0,682.0,square4,j,0.1099,3,N,10.0
NS10,10.0,69.0,46.0,29.0,77.0,77.0,759.0,square4,j,0.2271,3,N,10.0
NS10,11.0,68.0,44.0,27.0,70.0,70.0,829.0,square4,j,0.121,3,N,10.0
NS10,12.0,68.0,46.0,27.0,65.0,65.0,894.0,square4,j,0.2576,3,N,10.0
NS10,13.0,67.0,50.0,23.0,65.0,65.0,959.0,square4,j,0.1431,3,N,10.0
NS10,14.0,67.0,49.0,31.0,61.0,49.0,1008.0,square2,f,0.1762,1,N,10.0
NS10,15.0,71.0,51.0,28.0,69.0,71.0,1079.0,square1,r,0.1148,0,N,10.0
NS10,16.0,71.0,48.0,25.0,64.0,25.0,1104.0,square3,i,0.2119,2,N,10.0
NS10,17.0,68.0,48.0,25.0,60.0,68.0,1172.0,square1,r,0.2582,0,N,10.0
NS10,18.0,68.0,49.0,23.0,66.0,68.0,1240.0,square1,r,0.1605,0,N,10.0
NS10,19.0,67.0,51.0,23.0,64.0,67.0,1307.0,square1,r,0.2662,0,N,10.0
NS10,20.0,65.0,54.0,29.0,58.0,58.0,1365.0,square4,j,0.2826,3,N,10.0
NS10,21.0,61.0,58.0,22.0,61.0,61.0,1426.0,square1,r,0.2305,0,N,10.0
NS10,22.0,67.0,51.0,23.0,60.0,67.0,1493.0,square1,r,0.3104,0,N,10.0
NS10,23.0,65.0,57.0,22.0,60.0,65.0,1558.0,square1,r,0.3397,0,N,10.0
NS10,24.0,67.0,58.0,26.0,56.0,58.0,1616.0,square2,f,0.2487,1,N,10.0
NS10,25.0,70.0,67.0,26.0,60.0,26.0,1642.0,square3,i,0.2598,2,N,10.0
NS10,26.0,71.0,58.0,24.0,55.0,71.0,1713.0,square1,r,0.3102,0,N,10.0
NS10,27.0,74.0,57.0,24.0,59.0,74.0,1787.0,square1,r,0.3111,0,N,10.0
NS10,28.0,76.0,62.0,24.0,56.0,76.0,1863.0,square1,r,0.2769,0,N,10.0
NS10,29.0,78.0,66.0,21.0,61.0,78.0,1941.0,square1,r,0.2141,0,N,10.0
NS10,30.0,74.0,62.0,20.0,52.0,74.0,2015.0,square1,r,0.1939,0,N,10.0
NS10,31.0,74.0,63.0,21.0,53.0,74.0,2089.0,square1,r,0.1955,0,N,10.0
NS10,32.0,77.0,62.0,19.0,50.0,77.0,2166.0,square1,r,0.1267,0,N,10.0
NS10,33.0,74.0,63.0,21.0,50.0,74.0,2240.0,square1,r,0.2647,0,N,10.0
NS10,34.0,69.0,64.0,16.0,47.0,69.0,2309.0,square1,r,0.2285,0,N,10.0
NS10,35.0,68.0,60.0,14.0,51.0,68.0,2377.0,square1,r,0.2439,0,N,10.0
NS10,36.0,76.0,59.0,13.0,52.0,52.0,2429.0,square4,j,0.2909,3,N,10.0
NS10,37.0,71.0,60.0,16.0,50.0,60.0,2489.0,square2,f,0.2435,1,N,10.0
NS10,38.0,70.0,56.0,27.0,49.0,27.0,2516.0,square3,i,0.1936,2,N,10.0
NS10,39.0,75.0,59.0,22.0,49.0,59.0,2575.0,square2,f,0.3152,1,N,10.0
NS10,40.0,70.0,56.0,27.0,51.0,56.0,2631.0,square2,f,0.295,1,N,10.0
NS10,41.0,73.0,57.0,24.0,54.0,73.0,2704.0,square1,r,0.1612,0,N,10.0
NS10,42.0,70.0,58.0,24.0,51.0,70.0,2774.0,square1,r,0.2102,0,N,10.0
NS10,43.0,70.0,60.0,26.0,45.0,70.0,2844.0,square1,r,0.3266,0,N,10.0
NS10,44.0,68.0,58.0,27.0,53.0,68.0,2912.0,square1,r,0.2606,0,N,10.0
NS10,45.0,70.0,61.0,31.0,49.0,70.0,2982.0,square1,r,0.2106,0,N,10.0
NS10,46.0,65.0,60.0,29.0,43.0,65.0,3047.0,square1,r,0.1422,0,N,10.0
NS10,47.0,65.0,61.0,32.0,44.0,65.0,3112.0,square1,r,0.323,0,N,10.0
NS10,48.0,67.0,58.0,31.0,46.0,67.0,3179.0,square1,r,0.26,0,N,10.0
NS10,49.0,76.0,55.0,38.0,43.0,76.0,3255.0,square1,r,0.2798,0,N,10.0
NS10,50.0,74.0,65.0,36.0,40.0,74.0,3329.0,square1,r,0.2941,0,N,10.0
NS10,51.0,74.0,58.0,34.0,40.0,74.0,3403.0,square1,r,0.3478,0,N,10.0
NS10,52.0,69.0,65.0,28.0,43.0,69.0,3472.0,square1,r,0.2906,0,N,10.0
NS10,53.0,69.0,65.0,32.0,40.0,69.0,3541.0,square1,r,0.3114,0,N,10.0
NS10,54.0,72.0,61.0,32.0,41.0,72.0,3613.0,square1,r,0.3838,0,N,10.0
NS10,55.0,65.0,64.0,36.0,33.0,65.0,3678.0,square1,r,0.2679,0,N,10.0
NS10,56.0,75.0,64.0,37.0,37.0,75.0,3753.0,square1,r,0.3438,0,N,10.0
NS10,57.0,72.0,62.0,36.0,38.0,72.0,3825.0,square1,r,0.3666,0,N,10.0
NS10,58.0,63.0,68.0,38.0,33.0,63.0,3888.0,square1,r,0.1453,0,N,10.0
NS10,59.0,65.0,64.0,43.0,34.0,65.0,3953.0,square1,r,0.3776,0,N,10.0
NS10,60.0,62.0,64.0,51.0,40.0,62.0,4015.0,square1,r,0.3097,0,N,10.0
NS10,61.0,61.0,65.0,45.0,38.0,38.0,4053.0,square4,j,0.5038,3,N,10.0
NS10,62.0,66.0,63.0,41.0,37.0,63.0,4116.0,square2,f,0.3233,1,N,10.0
NS10,63.0,67.0,62.0,45.0,41.0,45.0,4161.0,square3,i,0.3945,2,N,10.0
NS10,64.0,72.0,60.0,44.0,36.0,72.0,4233.0,square1,r,0.31,0,N,10.0
NS10,65.0,73.0,65.0,42.0,39.0,73.0,4306.0,square1,r,0.3272,0,N,10.0
NS10,66.0,72.0,67.0,45.0,43.0,72.0,4378.0,square1,r,0.4124,0,N,10.0
NS10,67.0,66.0,70.0,44.0,40.0,66.0,4444.0,square1,r,0.2813,0,N,10.0
NS10,68.0,61.0,69.0,45.0,44.0,61.0,4505.0,square1,r,0.245,0,N,10.0
NS10,69.0,64.0,68.0,42.0,43.0,64.0,4569.0,square1,r,0.2943,0,N,10.0
NS10,70.0,66.0,72.0,41.0,42.0,66.0,4635.0,square1,r,0.3331,0,N,10.0
NS10,71.0,64.0,72.0,46.0,45.0,72.0,4707.0,square2,f,0.3111,1,N,10.0
NS10,72.0,64.0,69.0,44.0,39.0,69.0,4776.0,square2,f,0.3598,1,N,10.0
NS10,73.0,60.0,74.0,48.0,45.0,74.0,4850.0,square2,f,0.2779,1,N,10.0
NS10,74.0,57.0,75.0,48.0,41.0,75.0,4925.0,square2,f,0.2103,1,N,10.0
NS10,75.0,66.0,75.0,46.0,40.0,75.0,5000.0,square2,f,0.3068,1,N,10.0
NS10,76.0,63.0,77.0,46.0,40.0,77.0,5077.0,square2,f,0.3287,1,N,10.0
NS10,77.0,62.0,74.0,43.0,34.0,74.0,5151.0,square2,f,0.2765,1,N,10.0
NS10,78.0,60.0,71.0,48.0,33.0,71.0,5222.0,square2,f,0.3711,1,N,10.0
NS10,79.0,63.0,68.0,47.0,29.0,68.0,5290.0,square2,f,0.3772,1,N,10.0
NS10,80.0,54.0,71.0,42.0,32.0,71.0,5361.0,square2,f,0.2598,1,N,10.0
NS10,81.0,52.0,72.0,44.0,30.0,72.0,5433.0,square2,f,0.2434,1,N,10.0
NS10,82.0,51.0,77.0,41.0,31.0,77.0,5510.0,square2,f,0.3131,1,N,10.0
NS10,83.0,52.0,63.0,41.0,35.0,63.0,5573.0,square2,f,0.3732,1,N,10.0
NS10,84.0,48.0,70.0,37.0,34.0,70.0,5643.0,square2,f,0.5893,1,N,10.0
NS10,85.0,51.0,73.0,38.0,30.0,73.0,5716.0,square2,f,0.4602,1,N,10.0
NS10,86.0,55.0,79.0,45.0,27.0,79.0,5795.0,square2,f,0.2768,1,N,10.0
NS10,87.0,54.0,83.0,47.0,21.0,83.0,5878.0,square2,f,0.4097,1,N,10.0
NS10,88.0,59.0,78.0,45.0,21.0,78.0,5956.0,square2,f,0.3446,1,N,10.0
NS10,89.0,60.0,74.0,45.0,21.0,74.0,6030.0,square2,f,0.3604,1,N,10.0
NS10,90.0,55.0,71.0,50.0,18.0,71.0,6101.0,square2,f,0.3617,1,N,10.0
NS10,91.0,56.0,71.0,46.0,14.0,71.0,6172.0,square2,f,0.3478,1,N,10.0
NS10,92.0,59.0,70.0,46.0,20.0,70.0,6242.0,square2,f,0.3102,1,N,10.0
NS10,93.0,65.0,72.0,46.0,21.0,72.0,6314.0,square2,f,0.4107,1,N,10.0
NS10,94.0,63.0,68.0,46.0,20.0,68.0,6382.0,square2,f,0.5602,1,N,10.0
NS10,95.0,69.0,70.0,48.0,22.0,70.0,6452.0,square2,f,0.4098,1,N,10.0
NS10,96.0,68.0,69.0,45.0,27.0,69.0,6521.0,square2,f,0.482,1,N,10.0
NS10,97.0,74.0,69.0,43.0,35.0,69.0,6590.0,square2,f,0.3772,1,N,10.0
NS10,98.0,73.0,68.0,43.0,30.0,68.0,6658.0,square2,f,0.5104,1,N,10.0
NS10,99.0,70.0,61.0,39.0,32.0,61.0,6719.0,square2,f,1.3907,1,N,10.0
NS5,0.0,26.0,19.0,54.0,39.0,26.0,26.0,square1,f,1.0698,0,N,5.0
NS5,1.0,21.0,17.0,51.0,42.0,17.0,43.0,square2,j,0.3734,1,N,5.0
NS5,2.0,19.0,17.0,52.0,42.0,42.0,85.0,square4,i,0.2942,3,N,5.0
NS5,3.0,21.0,16.0,55.0,38.0,55.0,140.0,square3,r,0.2437,2,N,5.0
NS5,4.0,14.0,26.0,52.0,44.0,52.0,192.0,square3,r,0.3439,2,N,5.0
NS5,5.0,18.0,25.0,47.0,42.0,47.0,239.0,square3,r,0.2778,2,N,5.0
NS5,6.0,23.0,21.0,54.0,38.0,54.0,293.0,square3,r,0.3561,2,N,5.0
NS5,7.0,18.0,27.0,56.0,39.0,56.0,349.0,square3,r,0.3314,2,N,5.0
NS5,8.0,18.0,28.0,57.0,40.0,57.0,406.0,square3,r,0.2943,2,N,5.0
NS5,9.0,15.0,29.0,53.0,38.0,53.0,459.0,square3,r,0.3223,2,N,5.0
NS5,10.0,13.0,26.0,56.0,41.0,56.0,515.0,square3,r,0.4103,2,N,5.0
NS5,11.0,11.0,25.0,58.0,41.0,58.0,573.0,square3,r,0.3758,2,N,5.0
NS5,12.0,9.0,22.0,53.0,40.0,53.0,626.0,square3,r,0.2938,2,N,5.0
NS5,13.0,11.0,21.0,55.0,39.0,55.0,681.0,square3,r,0.346,2,N,5.0
NS5,14.0,12.0,17.0,49.0,38.0,49.0,730.0,square3,r,0.2967,2,N,5.0
NS5,15.0,18.0,19.0,52.0,37.0,52.0,782.0,square3,r,0.4103,2,N,5.0
NS5,16.0,18.0,20.0,49.0,40.0,49.0,831.0,square3,r,0.2591,2,N,5.0
NS5,17.0,16.0,16.0,50.0,41.0,50.0,881.0,square3,r,0.3099,2,N,5.0
NS5,18.0,16.0,18.0,51.0,43.0,51.0,932.0,square3,r,0.3936,2,N,5.0
NS5,19.0,14.0,20.0,44.0,45.0,44.0,976.0,square3,r,0.3439,2,N,5.0
NS5,20.0,19.0,21.0,42.0,48.0,42.0,1018.0,square3,r,0.2595,2,N,5.0
NS5,21.0,19.0,22.0,43.0,47.0,43.0,1061.0,square3,r,0.262,2,N,5.0
NS5,22.0,17.0,15.0,43.0,47.0,43.0,1104.0,square3,r,0.2776,2,N,5.0
NS5,23.0,16.0,28.0,37.0,47.0,47.0,1151.0,square4,i,0.2571,3,N,5.0
NS5,24.0,20.0,21.0,38.0,49.0,49.0,1200.0,square4,i,0.2931,3,N,5.0
NS5,25.0,22.0,17.0,34.0,46.0,46.0,1246.0,square4,i,0.2604,3,N,5.0
NS5,26.0,30.0,16.0,32.0,50.0,50.0,1296.0,square4,i,0.2454,3,N,5.0
NS5,27.0,21.0,20.0,35.0,42.0,42.0,1338.0,square4,i,0.3665,3,N,5.0
NS5,28.0,20.0,23.0,39.0,42.0,42.0,1380.0,square4,i,0.293,3,N,5.0
NS5,29.0,21.0,18.0,39.0,41.0,41.0,1421.0,square4,i,0.2784,3,N,5.0
NS5,30.0,20.0,11.0,41.0,44.0,41.0,1462.0,square3,r,0.265,2,N,5.0
NS5,31.0,20.0,9.0,36.0,43.0,43.0,1505.0,square4,i,0.3494,3,N,5.0
NS5,32.0,21.0,13.0,35.0,46.0,21.0,1526.0,square1,f,0.3255,0,N,5.0
NS5,33.0,16.0,22.0,32.0,44.0,22.0,1548.0,square2,j,0.2277,1,N,5.0
NS5,34.0,20.0,20.0,33.0,37.0,37.0,1585.0,square4,i,0.2823,3,N,5.0
NS5,35.0,19.0,27.0,34.0,40.0,34.0,1619.0,square3,r,0.2437,2,N,5.0
NS5,36.0,20.0,23.0,31.0,37.0,37.0,1656.0,square4,i,0.3123,3,N,5.0
NS5,37.0,15.0,28.0,41.0,40.0,40.0,1696.0,square4,i,0.3773,3,N,5.0
NS5,38.0,18.0,21.0,45.0,37.0,37.0,1733.0,square4,i,0.2604,3,N,5.0
NS5,39.0,23.0,22.0,40.0,34.0,34.0,1767.0,square4,i,0.2898,3,N,5.0
NS5,40.0,22.0,25.0,44.0,26.0,26.0,1793.0,square4,i,0.3619,3,N,5.0
NS5,41.0,28.0,25.0,39.0,29.0,39.0,1832.0,square3,r,0.276,2,N,5.0
NS5,42.0,27.0,27.0,42.0,35.0,27.0,1859.0,square1,f,0.3238,0,N,5.0
NS5,43.0,25.0,25.0,49.0,38.0,25.0,1884.0,square2,j,0.2424,1,N,5.0
NS5,44.0,24.0,26.0,42.0,30.0,42.0,1926.0,square3,r,0.2561,2,N,5.0
NS5,45.0,33.0,22.0,43.0,37.0,43.0,1969.0,square3,r,0.274,2,N,5.0
NS5,46.0,32.0,24.0,50.0,38.0,50.0,2019.0,square3,r,0.3165,2,N,5.0
NS5,47.0,39.0,25.0,52.0,29.0,52.0,2071.0,square3,r,0.297,2,N,5.0
NS5,48.0,42.0,22.0,46.0,33.0,46.0,2117.0,square3,r,0.2813,2,N,5.0
NS5,49.0,40.0,26.0,40.0,33.0,40.0,2157.0,square3,r,0.2927,2,N,5.0
NS5,50.0,34.0,19.0,47.0,33.0,47.0,2204.0,square3,r,0.2569,2,N,5.0
NS5,51.0,29.0,25.0,45.0,29.0,45.0,2249.0,square3,r,0.3493,2,N,5.0
NS5,52.0,29.0,24.0,48.0,35.0,48.0,2297.0,square3,r,0.281,2,N,5.0
NS5,53.0,24.0,25.0,45.0,40.0,45.0,2342.0,square3,r,0.2809,2,N,5.0
NS5,54.0,26.0,25.0,51.0,36.0,51.0,2393.0,square3,r,0.2601,2,N,5.0
NS5,55.0,25.0,28.0,56.0,34.0,56.0,2449.0,square3,r,0.2157,2,N,5.0
NS5,56.0,23.0,27.0,54.0,36.0,54.0,2503.0,square3,r,0.2919,2,N,5.0
NS5,57.0,19.0,25.0,51.0,31.0,51.0,2554.0,square3,r,0.1106,2,N,5.0
NS5,58.0,20.0,30.0,53.0,29.0,53.0,2607.0,square3,r,0.3217,2,N,5.0
NS5,59.0,17.0,30.0,52.0,28.0,52.0,2659.0,square3,r,0.3607,2,N,5.0
NS5,60.0,15.0,30.0,55.0,30.0,55.0,2714.0,square3,r,0.2935,2,N,5.0
NS5,61.0,22.0,29.0,54.0,30.0,54.0,2768.0,square3,r,0.311,2,N,5.0
NS5,62.0,18.0,31.0,55.0,32.0,55.0,2823.0,square3,r,0.2309,2,N,5.0
NS5,63.0,19.0,31.0,51.0,37.0,51.0,2874.0,square3,r,0.4963,2,N,5.0
NS5,64.0,20.0,30.0,45.0,35.0,45.0,2919.0,square3,r,0.3589,2,N,5.0
NS5,65.0,24.0,21.0,55.0,38.0,55.0,2974.0,square3,r,0.2434,2,N,5.0
NS5,66.0,22.0,29.0,58.0,36.0,58.0,3032.0,square3,r,0.3622,2,N,5.0
NS5,67.0,22.0,26.0,51.0,36.0,51.0,3083.0,square3,r,0.3784,2,N,5.0
NS5,68.0,20.0,28.0,52.0,36.0,52.0,3135.0,square3,r,0.4295,2,N,5.0
NS5,69.0,18.0,27.0,52.0,40.0,40.0,3175.0,square4,i,0.2218,3,N,5.0
NS5,70.0,22.0,34.0,55.0,39.0,55.0,3230.0,square3,r,0.2597,2,N,5.0
NS5,71.0,27.0,37.0,59.0,41.0,59.0,3289.0,square3,r,0.3448,2,N,5.0
NS5,72.0,27.0,37.0,57.0,40.0,57.0,3346.0,square3,r,0.1307,2,N,5.0
NS5,73.0,35.0,36.0,55.0,38.0,55.0,3401.0,square3,r,0.3288,2,N,5.0
NS5,74.0,27.0,36.0,52.0,36.0,52.0,3453.0,square3,r,0.2637,2,N,5.0
NS5,75.0,31.0,40.0,53.0,38.0,53.0,3506.0,square3,r,0.2941,2,N,5.0
NS5,76.0,33.0,41.0,59.0,35.0,59.0,3565.0,square3,r,0.228,2,N,5.0
NS5,77.0,33.0,42.0,56.0,38.0,56.0,3621.0,square3,r,0.3108,2,N,5.0
NS5,78.0,30.0,42.0,53.0,37.0,53.0,3674.0,square3,r,0.2813,2,N,5.0
NS5,79.0,27.0,49.0,51.0,44.0,51.0,3725.0,square3,r,0.2602,2,N,5.0
NS5,80.0,31.0,49.0,45.0,44.0,45.0,3770.0,square3,r,0.2929,2,N,5.0
NS5,81.0,33.0,51.0,48.0,43.0,33.0,3803.0,square1,f,0.7661,0,N,5.0
NS5,82.0,31.0,54.0,41.0,43.0,54.0,3857.0,square2,j,0.3939,1,N,5.0
NS5,83.0,25.0,57.0,42.0,40.0,57.0,3914.0,square2,j,0.5956,1,N,5.0
NS5,84.0,36.0,57.0,45.0,38.0,57.0,3971.0,square2,j,0.4238,1,N,5.0
NS5,85.0,36.0,62.0,44.0,42.0,62.0,4033.0,square2,j,0.3449,1,N,5.0
NS5,86.0,33.0,55.0,48.0,43.0,55.0,4088.0,square2,j,0.2776,1,N,5.0
NS5,87.0,37.0,53.0,44.0,46.0,53.0,4141.0,square2,j,0.3604,1,N,5.0
NS5,88.0,36.0,54.0,41.0,48.0,54.0,4195.0,square2,j,0.3933,1,N,5.0
NS5,89.0,39.0,62.0,47.0,47.0,62.0,4257.0,square2,j,0.231,1,N,5.0
NS5,90.0,37.0,62.0,51.0,48.0,62.0,4319.0,square2,j,0.2644,1,N,5.0
NS5,91.0,40.0,64.0,48.0,53.0,64.0,4383.0,square2,j,0.3253,1,N,5.0
NS5,92.0,42.0,64.0,51.0,55.0,64.0,4447.0,square2,j,0.2831,1,N,5.0
NS5,93.0,39.0,63.0,51.0,53.0,63.0,4510.0,square2,j,0.3145,1,N,5.0
NS5,94.0,41.0,60.0,50.0,58.0,60.0,4570.0,square2,j,0.3141,1,N,5.0
NS5,95.0,36.0,55.0,53.0,52.0,55.0,4625.0,square2,j,0.2551,1,N,5.0
NS5,96.0,36.0,56.0,55.0,56.0,56.0,4681.0,square2,j,0.3299,1,N,5.0
NS5,97.0,28.0,52.0,57.0,53.0,52.0,4733.0,square2,j,0.3268,1,N,5.0
NS5,98.0,29.0,53.0,53.0,43.0,53.0,4786.0,square2,j,0.3151,1,N,5.0
NS5,99.0,25.0,55.0,53.0,46.0,55.0,4841.0,square2,j,0.3769,1,N,5.0
NS11,0.0,78.0,37.0,30.0,78.0,30.0,30.0,square3,f,0.7366,2,N,11.0
NS11,1.0,85.0,34.0,30.0,76.0,85.0,115.0,square1,j,0.2606,0,N,11.0
NS11,2.0,79.0,33.0,36.0,77.0,77.0,192.0,square4,r,0.2104,3,N,11.0
NS11,3.0,82.0,33.0,28.0,72.0,33.0,225.0,square2,i,0.1637,1,N,11.0
NS11,4.0,82.0,34.0,33.0,76.0,82.0,307.0,square1,j,0.2275,0,N,11.0
NS11,5.0,78.0,38.0,32.0,83.0,78.0,385.0,square1,j,0.1721,0,N,11.0
NS11,6.0,78.0,37.0,34.0,77.0,78.0,463.0,square1,j,0.2763,0,N,11.0
NS11,7.0,80.0,30.0,33.0,74.0,80.0,543.0,square1,j,0.2557,0,N,11.0
NS11,8.0,79.0,32.0,30.0,73.0,79.0,622.0,square1,j,0.1444,0,N,11.0
NS11,9.0,81.0,41.0,34.0,61.0,81.0,703.0,square1,j,0.3277,0,N,11.0
NS11,10.0,76.0,38.0,25.0,64.0,76.0,779.0,square1,j,0.2106,0,N,11.0
NS11,11.0,79.0,34.0,27.0,65.0,79.0,858.0,square1,j,0.228,0,N,11.0
NS11,12.0,81.0,32.0,25.0,68.0,81.0,939.0,square1,j,0.111,0,N,11.0
NS11,13.0,84.0,36.0,24.0,64.0,84.0,1023.0,square1,j,0.2216,0,N,11.0
NS11,14.0,80.0,30.0,24.0,61.0,80.0,1103.0,square1,j,0.2738,0,N,11.0
NS11,15.0,86.0,33.0,22.0,66.0,86.0,1189.0,square1,j,0.1442,0,N,11.0
NS11,16.0,85.0,32.0,20.0,64.0,85.0,1274.0,square1,j,0.3273,0,N,11.0
NS11,17.0,83.0,32.0,22.0,71.0,83.0,1357.0,square1,j,0.2592,0,N,11.0
NS11,18.0,80.0,31.0,19.0,66.0,80.0,1437.0,square1,j,0.1767,0,N,11.0
NS11,19.0,75.0,40.0,23.0,69.0,75.0,1512.0,square1,j,0.1436,0,N,11.0
NS11,20.0,73.0,37.0,14.0,67.0,73.0,1585.0,square1,j,0.3092,0,N,11.0
NS11,21.0,81.0,34.0,23.0,70.0,81.0,1666.0,square1,j,0.2265,0,N,11.0
NS11,22.0,77.0,39.0,16.0,73.0,77.0,1743.0,square1,j,0.2269,0,N,11.0
NS11,23.0,78.0,30.0,23.0,74.0,78.0,1821.0,square1,j,0.3436,0,N,11.0
NS11,24.0,80.0,32.0,26.0,68.0,80.0,1901.0,square1,j,0.2097,0,N,11.0
NS11,25.0,81.0,29.0,29.0,73.0,81.0,1982.0,square1,j,0.339,0,N,11.0
NS11,26.0,77.0,31.0,26.0,69.0,77.0,2059.0,square1,j,0.3549,0,N,11.0
NS11,27.0,69.0,47.0,29.0,64.0,69.0,2128.0,square1,j,0.2096,0,N,11.0
NS11,28.0,69.0,39.0,28.0,71.0,71.0,2199.0,square4,r,0.3427,3,N,11.0
NS11,29.0,71.0,41.0,24.0,66.0,66.0,2265.0,square4,r,0.3273,3,N,11.0
NS11,30.0,70.0,40.0,21.0,68.0,68.0,2333.0,square4,r,0.2832,3,N,11.0
NS11,31.0,72.0,44.0,21.0,68.0,68.0,2401.0,square4,r,0.2944,3,N,11.0
NS11,32.0,72.0,41.0,19.0,75.0,72.0,2473.0,square1,j,0.345,0,N,11.0
NS11,33.0,66.0,48.0,21.0,72.0,66.0,2539.0,square1,j,0.2445,0,N,11.0
NS11,34.0,67.0,48.0,24.0,72.0,67.0,2606.0,square1,j,0.3894,0,N,11.0
NS11,35.0,58.0,52.0,14.0,73.0,58.0,2664.0,square1,j,0.3069,0,N,11.0
NS11,36.0,61.0,52.0,23.0,70.0,70.0,2734.0,square4,r,0.2928,3,N,11.0
NS11,37.0,50.0,55.0,29.0,67.0,67.0,2801.0,square4,r,0.2614,3,N,11.0
NS11,38.0,51.0,54.0,20.0,64.0,64.0,2865.0,square4,r,0.326,3,N,11.0
NS11,39.0,54.0,49.0,26.0,63.0,63.0,2928.0,square4,r,0.2893,3,N,11.0
NS11,40.0,50.0,47.0,24.0,70.0,70.0,2998.0,square4,r,0.5294,3,N,11.0
NS11,41.0,54.0,46.0,23.0,63.0,63.0,3061.0,square4,r,0.3267,3,N,11.0
NS11,42.0,54.0,47.0,25.0,61.0,25.0,3086.0,square3,f,0.2625,2,N,11.0
NS11,43.0,46.0,49.0,33.0,72.0,49.0,3135.0,square2,i,0.314,1,N,11.0
NS11,44.0,54.0,50.0,38.0,72.0,54.0,3189.0,square1,j,0.2713,0,N,11.0
NS11,45.0,56.0,53.0,39.0,81.0,81.0,3270.0,square4,r,0.2608,3,N,11.0
NS11,46.0,57.0,55.0,33.0,77.0,77.0,3347.0,square4,r,0.3495,3,N,11.0
NS11,47.0,56.0,51.0,32.0,76.0,76.0,3423.0,square4,r,0.5096,3,N,11.0
NS11,48.0,58.0,49.0,29.0,85.0,85.0,3508.0,square4,r,0.3901,3,N,11.0
NS11,49.0,58.0,53.0,27.0,83.0,83.0,3591.0,square4,r,0.3275,3,N,11.0
NS11,50.0,62.0,49.0,24.0,80.0,80.0,3671.0,square4,r,0.3107,3,N,11.0
NS11,51.0,57.0,55.0,23.0,77.0,77.0,3748.0,square4,r,0.3283,3,N,11.0
NS11,52.0,56.0,55.0,20.0,77.0,77.0,3825.0,square4,r,0.4742,3,N,11.0
NS11,53.0,59.0,56.0,20.0,78.0,78.0,3903.0,square4,r,0.2781,3,N,11.0
NS11,54.0,58.0,57.0,27.0,74.0,74.0,3977.0,square4,r,0.2901,3,N,11.0
NS11,55.0,60.0,55.0,24.0,79.0,79.0,4056.0,square4,r,0.2906,3,N,11.0
NS11,56.0,60.0,52.0,22.0,77.0,77.0,4133.0,square4,r,0.3947,3,N,11.0
NS11,57.0,58.0,55.0,22.0,72.0,72.0,4205.0,square4,r,0.4582,3,N,11.0
NS11,58.0,63.0,52.0,22.0,75.0,75.0,4280.0,square4,r,0.3059,3,N,11.0
NS11,59.0,62.0,56.0,17.0,70.0,70.0,4350.0,square4,r,0.3608,3,N,11.0
NS11,60.0,61.0,55.0,22.0,70.0,70.0,4420.0,square4,r,0.3053,3,N,11.0
NS11,61.0,57.0,52.0,21.0,76.0,76.0,4496.0,square4,r,0.3799,3,N,11.0
NS11,62.0,57.0,48.0,28.0,75.0,75.0,4571.0,square4,r,0.294,3,N,11.0
NS11,63.0,57.0,58.0,30.0,68.0,68.0,4639.0,square4,r,0.3935,3,N,11.0
NS11,64.0,61.0,61.0,27.0,74.0,74.0,4713.0,square4,r,0.4399,3,N,11.0
NS11,65.0,67.0,63.0,40.0,71.0,71.0,4784.0,square4,r,0.3771,3,N,11.0
NS11,66.0,69.0,55.0,38.0,73.0,73.0,4857.0,square4,r,0.2632,3,N,11.0
NS11,67.0,72.0,57.0,36.0,65.0,65.0,4922.0,square4,r,0.4238,3,N,11.0
NS11,68.0,71.0,61.0,36.0,64.0,71.0,4993.0,square1,j,0.3813,0,N,11.0
NS11,69.0,74.0,66.0,37.0,58.0,37.0,5030.0,square3,f,0.432,2,N,11.0
NS11,70.0,69.0,60.0,40.0,66.0,60.0,5090.0,square2,i,0.2431,1,N,11.0
NS11,71.0,71.0,58.0,40.0,64.0,71.0,5161.0,square1,j,0.3425,0,N,11.0
NS11,72.0,72.0,58.0,46.0,67.0,67.0,5228.0,square4,r,0.3454,3,N,11.0
NS11,73.0,72.0,56.0,47.0,65.0,72.0,5300.0,square1,j,0.2992,0,N,11.0
NS11,74.0,66.0,54.0,47.0,63.0,66.0,5366.0,square1,j,0.3452,0,N,11.0
NS11,75.0,75.0,53.0,43.0,58.0,75.0,5441.0,square1,j,0.4598,0,N,11.0
NS11,76.0,75.0,48.0,40.0,59.0,75.0,5516.0,square1,j,0.3269,0,N,11.0
NS11,77.0,65.0,48.0,36.0,58.0,65.0,5581.0,square1,j,0.5229,0,N,11.0
NS11,78.0,70.0,45.0,37.0,59.0,70.0,5651.0,square1,j,0.5108,0,N,11.0
NS11,79.0,70.0,41.0,36.0,59.0,70.0,5721.0,square1,j,0.4436,0,N,11.0
NS11,80.0,73.0,43.0,39.0,59.0,73.0,5794.0,square1,j,0.4269,0,N,11.0
NS11,81.0,72.0,39.0,38.0,60.0,72.0,5866.0,square1,j,0.3101,0,N,11.0
NS11,82.0,72.0,39.0,44.0,65.0,72.0,5938.0,square1,j,0.2977,0,N,11.0
NS11,83.0,68.0,38.0,40.0,61.0,68.0,6006.0,square1,j,0.3799,0,N,11.0
NS11,84.0,69.0,36.0,36.0,64.0,69.0,6075.0,square1,j,0.3982,0,N,11.0
NS11,85.0,70.0,34.0,40.0,69.0,70.0,6145.0,square1,j,0.4228,0,N,11.0
NS11,86.0,70.0,32.0,36.0,71.0,70.0,6215.0,square1,j,0.4785,0,N,11.0
NS11,87.0,69.0,31.0,37.0,70.0,69.0,6284.0,square1,j,0.3758,0,N,11.0
NS11,88.0,69.0,34.0,41.0,67.0,69.0,6353.0,square1,j,0.4884,0,N,11.0
NS11,89.0,67.0,39.0,44.0,67.0,67.0,6420.0,square4,r,0.3325,3,N,11.0
NS11,90.0,64.0,33.0,36.0,69.0,64.0,6484.0,square1,j,0.393,0,N,11.0
NS11,91.0,60.0,33.0,38.0,67.0,67.0,6551.0,square4,r,0.3401,3,N,11.0
NS11,92.0,60.0,33.0,37.0,68.0,68.0,6619.0,square4,r,0.427,3,N,11.0
NS11,93.0,54.0,36.0,38.0,73.0,54.0,6673.0,square1,j,0.3762,0,N,11.0
NS11,94.0,58.0,35.0,39.0,68.0,68.0,6741.0,square4,r,0.2229,3,N,11.0
NS11,95.0,50.0,38.0,32.0,77.0,77.0,6818.0,square4,r,0.3231,3,N,11.0
NS11,96.0,53.0,42.0,30.0,71.0,71.0,6889.0,square4,r,0.376,3,N,11.0
NS11,97.0,54.0,38.0,32.0,75.0,75.0,6964.0,square4,r,0.3317,3,N,11.0
NS11,98.0,52.0,48.0,32.0,72.0,72.0,7036.0,square4,r,0.2926,3,N,11.0
NS11,99.0,55.0,45.0,33.0,73.0,73.0,7109.0,square4,r,0.2615,3,N,11.0
