block,Trial,square1,square2,square3,square4,currPoints,totalPoints,square,choiceKey.keys,choiceKey.rt,armNum,blockType,blockNum
prac,0.0,100.0,0.0,0.0,0.0,0,0.0,square2,,,1,p,0.0
prac,1.0,100.0,0.0,0.0,0.0,100,100.0,square1,,,0,p,0.0
prac,2.0,100.0,0.0,0.0,0.0,99999,100.0,invalid,,,-1,p,0.0
prac,3.0,100.0,0.0,0.0,0.0,0,100.0,square3,,,2,p,0.0
prac,4.0,100.0,0.0,0.0,0.0,100,200.0,square1,,,0,p,0.0
prac,5.0,100.0,0.0,0.0,0.0,0,200.0,square4,,,3,p,0.0
prac,6.0,100.0,0.0,0.0,0.0,0,200.0,square4,,,3,p,0.0
prac,7.0,100.0,0.0,0.0,0.0,100,300.0,square1,,,0,p,0.0
prac,8.0,100.0,0.0,0.0,0.0,100,400.0,square1,,,0,p,0.0
prac,9.0,100.0,0.0,0.0,0.0,100,500.0,square1,,,0,p,0.0
V6,0.0,43.0,59.0,68.0,49.0,59,59.0,square2,r,1.071,1,V,6.0
V6,1.0,43.0,62.0,71.0,50.0,43,102.0,square1,i,0.48,0,V,6.0
V6,2.0,48.0,61.0,72.0,51.0,72,174.0,square3,j,0.398,2,V,6.0
V6,3.0,46.0,55.0,71.0,51.0,71,245.0,square3,j,0.3,2,V,6.0
V6,4.0,44.0,61.0,74.0,48.0,61,306.0,square2,r,0.533,1,V,6.0
V6,5.0,45.0,62.0,70.0,51.0,51,357.0,square4,f,0.177,3,V,6.0
V6,6.0,42.0,67.0,73.0,46.0,73,430.0,square3,j,0.297,2,V,6.0
V6,7.0,44.0,63.0,71.0,53.0,71,501.0,square3,j,0.499,2,V,6.0
V6,8.0,41.0,62.0,73.0,52.0,73,574.0,square3,j,0.294,2,V,6.0
V6,9.0,46.0,59.0,72.0,54.0,72,646.0,square3,j,0.169,2,V,6.0
V6,10.0,45.0,59.0,70.0,53.0,70,716.0,square3,j,0.104,2,V,6.0
V6,11.0,45.0,60.0,70.0,49.0,60,776.0,square2,r,0.431,1,V,6.0
V6,12.0,45.0,66.0,64.0,48.0,64,840.0,square3,j,0.456,2,V,6.0
V6,13.0,45.0,61.0,69.0,47.0,69,909.0,square3,j,0.315,2,V,6.0
V6,14.0,47.0,60.0,71.0,56.0,47,956.0,square1,i,0.667,0,V,6.0
V6,15.0,46.0,64.0,67.0,52.0,52,1008.0,square4,f,0.398,3,V,6.0
V6,16.0,50.0,60.0,69.0,54.0,60,1068.0,square2,r,0.128,1,V,6.0
V6,17.0,43.0,60.0,70.0,53.0,60,1128.0,square2,r,0.247,1,V,6.0
V6,18.0,46.0,63.0,72.0,55.0,63,1191.0,square2,r,0.327,1,V,6.0
V6,19.0,46.0,65.0,73.0,51.0,73,1264.0,square3,j,0.235,2,V,6.0
V6,20.0,44.0,63.0,66.0,51.0,66,1330.0,square3,j,0.034,2,V,6.0
V6,21.0,43.0,63.0,70.0,49.0,63,1393.0,square2,r,0.354,1,V,6.0
V6,22.0,45.0,63.0,71.0,50.0,71,1464.0,square3,j,0.007,2,V,6.0
V6,23.0,45.0,38.0,28.0,60.0,28,1492.0,square3,j,0.264,2,V,6.0
V6,24.0,46.0,33.0,33.0,53.0,33,1525.0,square2,r,0.169,1,V,6.0
V6,25.0,45.0,36.0,32.0,63.0,45,1570.0,square1,i,0.001,0,V,6.0
V6,26.0,52.0,37.0,28.0,57.0,57,1627.0,square4,f,0.328,3,V,6.0
V6,27.0,45.0,33.0,30.0,62.0,62,1689.0,square4,f,0.299,3,V,6.0
V6,28.0,43.0,37.0,24.0,51.0,51,1740.0,square4,f,0.054,3,V,6.0
V6,29.0,48.0,39.0,34.0,61.0,61,1801.0,square4,f,0.166,3,V,6.0
V6,30.0,48.0,44.0,35.0,59.0,35,1836.0,square3,j,0.088,2,V,6.0
V6,31.0,50.0,39.0,34.0,53.0,50,1886.0,square1,i,0.247,0,V,6.0
V6,32.0,44.0,33.0,33.0,54.0,54,1940.0,square4,f,0.096,3,V,6.0
V6,33.0,48.0,37.0,30.0,56.0,37,1977.0,square2,r,0.107,1,V,6.0
V6,34.0,52.0,37.0,27.0,59.0,59,2036.0,square4,f,0.003,3,V,6.0
V6,35.0,47.0,32.0,29.0,59.0,59,2095.0,square4,f,0.249,3,V,6.0
V6,36.0,45.0,37.0,27.0,56.0,56,2151.0,square4,f,0.073,3,V,6.0
V6,37.0,39.0,37.0,31.0,57.0,57,2208.0,square4,f,0.028,3,V,6.0
V6,38.0,50.0,38.0,29.0,56.0,56,2264.0,square4,f,0.109,3,V,6.0
V6,39.0,48.0,37.0,27.0,57.0,57,2321.0,square4,f,0.187,3,V,6.0
V6,40.0,53.0,37.0,29.0,57.0,53,2374.0,square1,i,0.061,0,V,6.0
V6,41.0,41.0,34.0,33.0,58.0,34,2408.0,square2,r,0.101,1,V,6.0
V6,42.0,50.0,37.0,31.0,57.0,31,2439.0,square3,j,0.235,2,V,6.0
V6,43.0,48.0,34.0,30.0,58.0,58,2497.0,square4,f,0.235,3,V,6.0
V6,44.0,44.0,37.0,33.0,60.0,60,2557.0,square4,f,0.062,3,V,6.0
V6,45.0,44.0,32.0,33.0,55.0,55,2612.0,square4,f,0.101,3,V,6.0
V6,46.0,44.0,36.0,33.0,59.0,59,2671.0,square4,f,0.195,3,V,6.0
V6,47.0,42.0,34.0,29.0,52.0,42,2713.0,square1,i,0.009,0,V,6.0
V6,48.0,46.0,41.0,28.0,60.0,60,2773.0,square4,f,0.199,3,V,6.0
V6,49.0,46.0,40.0,27.0,55.0,55,2828.0,square4,f,0.003,3,V,6.0
V6,50.0,46.0,41.0,32.0,55.0,55,2883.0,square4,f,0.201,3,V,6.0
V6,51.0,41.0,39.0,30.0,55.0,55,2938.0,square4,f,0.2,3,V,6.0
V6,52.0,47.0,37.0,31.0,55.0,31,2969.0,square3,j,0.283,2,V,6.0
V6,53.0,57.0,36.0,30.0,58.0,36,3005.0,square2,r,0.173,1,V,6.0
V6,54.0,42.0,38.0,28.0,50.0,50,3055.0,square4,f,0.114,3,V,6.0
V6,55.0,56.0,42.0,67.0,46.0,46,3101.0,square4,f,0.001,3,V,6.0
V6,56.0,54.0,37.0,68.0,46.0,54,3155.0,square1,i,0.109,0,V,6.0
V6,57.0,57.0,40.0,64.0,52.0,57,3212.0,square1,i,0.177,0,V,6.0
V6,58.0,53.0,45.0,68.0,45.0,53,3265.0,square1,i,0.25,0,V,6.0
V6,59.0,59.0,41.0,69.0,49.0,59,3324.0,square1,i,0.135,0,V,6.0
V6,60.0,62.0,41.0,71.0,51.0,62,3386.0,square1,i,0.03,0,V,6.0
V6,61.0,58.0,50.0,72.0,51.0,58,3444.0,square1,i,0.119,0,V,6.0
V6,62.0,61.0,43.0,65.0,47.0,61,3505.0,square1,i,0.023,0,V,6.0
V6,63.0,55.0,40.0,67.0,51.0,55,3560.0,square1,i,0.047,0,V,6.0
V6,64.0,56.0,43.0,67.0,47.0,67,3627.0,square3,j,0.264,2,V,6.0
V6,65.0,62.0,46.0,67.0,48.0,46,3673.0,square2,r,0.216,1,V,6.0
V6,66.0,55.0,44.0,67.0,48.0,67,3740.0,square3,j,0.067,2,V,6.0
V6,67.0,61.0,46.0,70.0,49.0,70,3810.0,square3,j,0.116,2,V,6.0
V6,68.0,63.0,41.0,72.0,46.0,72,3882.0,square3,j,0.028,2,V,6.0
V6,69.0,59.0,41.0,68.0,48.0,68,3950.0,square3,j,0.182,2,V,6.0
V6,70.0,59.0,37.0,70.0,45.0,70,4020.0,square3,j,0.182,2,V,6.0
V6,71.0,83.0,64.0,56.0,70.0,56,4076.0,square3,j,0.064,2,V,6.0
V6,72.0,82.0,59.0,53.0,75.0,53,4129.0,square3,j,0.182,2,V,6.0
V6,73.0,85.0,67.0,58.0,73.0,85,4214.0,square1,i,0.136,0,V,6.0
V6,74.0,79.0,67.0,61.0,73.0,79,4293.0,square1,i,0.039,0,V,6.0
V6,75.0,84.0,62.0,53.0,69.0,84,4377.0,square1,i,0.029,0,V,6.0
V6,76.0,81.0,60.0,55.0,76.0,81,4458.0,square1,i,0.015,0,V,6.0
V6,77.0,84.0,61.0,60.0,72.0,84,4542.0,square1,i,0.015,0,V,6.0
V6,78.0,90.0,61.0,54.0,74.0,90,4632.0,square1,i,0.137,0,V,6.0
V6,79.0,80.0,64.0,51.0,75.0,80,4712.0,square1,i,0.032,0,V,6.0
V6,80.0,85.0,62.0,56.0,78.0,85,4797.0,square1,i,0.15,0,V,6.0
V6,81.0,86.0,65.0,58.0,69.0,86,4883.0,square1,i,0.08,0,V,6.0
V6,82.0,83.0,62.0,58.0,77.0,83,4966.0,square1,i,0.156,0,V,6.0
V6,83.0,87.0,61.0,59.0,70.0,70,5036.0,square4,f,0.147,3,V,6.0
V6,84.0,89.0,65.0,54.0,78.0,65,5101.0,square2,r,0.072,1,V,6.0
V6,85.0,78.0,63.0,55.0,75.0,55,5156.0,square3,j,0.719,2,V,6.0
V6,86.0,87.0,67.0,52.0,75.0,87,5243.0,square1,i,0.161,0,V,6.0
V6,87.0,86.0,62.0,60.0,75.0,86,5329.0,square1,i,0.166,0,V,6.0
V6,88.0,79.0,67.0,56.0,76.0,79,5408.0,square1,i,0.098,0,V,6.0
V6,89.0,83.0,61.0,57.0,75.0,83,5491.0,square1,i,0.131,0,V,6.0
V6,90.0,83.0,67.0,51.0,76.0,83,5574.0,square1,i,0.088,0,V,6.0
V6,91.0,83.0,63.0,55.0,69.0,83,5657.0,square1,i,0.028,0,V,6.0
V6,92.0,89.0,56.0,53.0,68.0,89,5746.0,square1,i,0.196,0,V,6.0
V6,93.0,84.0,61.0,59.0,74.0,59,5805.0,square3,j,0.146,2,V,6.0
V6,94.0,77.0,58.0,58.0,76.0,76,5881.0,square4,f,0.02,3,V,6.0
V6,95.0,82.0,60.0,53.0,74.0,60,5941.0,square2,r,0.272,1,V,6.0
V6,96.0,87.0,61.0,56.0,71.0,71,6012.0,square4,f,0.241,3,V,6.0
V6,97.0,83.0,66.0,55.0,75.0,83,6095.0,square1,i,0.001,0,V,6.0
V6,98.0,81.0,63.0,55.0,76.0,81,6176.0,square1,i,0.066,0,V,6.0
V6,99.0,92.0,63.0,61.0,78.0,92,6268.0,square1,i,0.038,0,V,6.0
V4,0.0,63.0,38.0,47.0,55.0,63,63.0,square1,f,0.842,0,V,4.0
V4,1.0,66.0,42.0,43.0,59.0,43,106.0,square3,i,0.389,2,V,4.0
V4,2.0,66.0,39.0,57.0,59.0,39,145.0,square2,j,1.73,1,V,4.0
V4,3.0,66.0,37.0,51.0,59.0,59,204.0,square4,r,0.183,3,V,4.0
V4,4.0,69.0,37.0,50.0,55.0,55,259.0,square4,r,0.299,3,V,4.0
V4,5.0,64.0,44.0,46.0,62.0,64,323.0,square1,f,0.479,0,V,4.0
V4,6.0,75.0,43.0,49.0,57.0,75,398.0,square1,f,0.0,0,V,4.0
V4,7.0,62.0,41.0,52.0,59.0,62,460.0,square1,f,0.034,0,V,4.0
V4,8.0,65.0,41.0,44.0,60.0,65,525.0,square1,f,0.097,0,V,4.0
V4,9.0,68.0,35.0,44.0,64.0,44,569.0,square3,i,0.133,2,V,4.0
V4,10.0,67.0,44.0,48.0,61.0,44,613.0,square2,j,0.082,1,V,4.0
V4,11.0,61.0,40.0,48.0,56.0,56,669.0,square4,r,0.134,3,V,4.0
V4,12.0,68.0,41.0,49.0,55.0,68,737.0,square1,f,0.067,0,V,4.0
V4,13.0,63.0,42.0,47.0,60.0,63,800.0,square1,f,0.153,0,V,4.0
V4,14.0,63.0,40.0,51.0,55.0,63,863.0,square1,f,0.018,0,V,4.0
V4,15.0,62.0,41.0,52.0,62.0,62,925.0,square1,f,0.029,0,V,4.0
V4,16.0,69.0,37.0,47.0,60.0,69,994.0,square1,f,0.029,0,V,4.0
V4,17.0,66.0,40.0,48.0,56.0,66,1060.0,square1,f,0.091,0,V,4.0
V4,18.0,67.0,43.0,47.0,59.0,59,1119.0,square4,r,0.006,3,V,4.0
V4,19.0,64.0,42.0,51.0,59.0,64,1183.0,square1,f,0.081,0,V,4.0
V4,20.0,67.0,40.0,47.0,58.0,40,1223.0,square2,j,0.028,1,V,4.0
V4,21.0,60.0,41.0,50.0,59.0,50,1273.0,square3,i,0.088,2,V,4.0
V4,22.0,66.0,43.0,54.0,55.0,66,1339.0,square1,f,0.182,0,V,4.0
V4,23.0,67.0,37.0,50.0,62.0,67,1406.0,square1,f,0.031,0,V,4.0
V4,24.0,67.0,37.0,49.0,60.0,67,1473.0,square1,f,0.198,0,V,4.0
V4,25.0,67.0,39.0,55.0,52.0,67,1540.0,square1,f,0.064,0,V,4.0
V4,26.0,64.0,39.0,51.0,63.0,64,1604.0,square1,f,0.047,0,V,4.0
V4,27.0,68.0,36.0,55.0,60.0,55,1659.0,square3,i,0.109,2,V,4.0
V4,28.0,67.0,40.0,46.0,54.0,40,1699.0,square2,j,0.316,1,V,4.0
V4,29.0,67.0,41.0,50.0,57.0,57,1756.0,square4,r,0.31,3,V,4.0
V4,30.0,66.0,39.0,49.0,53.0,66,1822.0,square1,f,0.217,0,V,4.0
V4,31.0,70.0,38.0,48.0,58.0,70,1892.0,square1,f,0.183,0,V,4.0
V4,32.0,63.0,40.0,53.0,61.0,63,1955.0,square1,f,0.075,0,V,4.0
V4,33.0,66.0,41.0,51.0,56.0,56,2011.0,square4,r,0.236,3,V,4.0
V4,34.0,64.0,39.0,46.0,57.0,46,2057.0,square3,i,0.137,2,V,4.0
V4,35.0,69.0,36.0,50.0,58.0,36,2093.0,square2,j,0.016,1,V,4.0
V4,36.0,60.0,43.0,53.0,54.0,60,2153.0,square1,f,0.094,0,V,4.0
V4,37.0,52.0,78.0,68.0,66.0,52,2205.0,square1,f,0.031,0,V,4.0
V4,38.0,44.0,81.0,68.0,62.0,44,2249.0,square1,f,0.008,0,V,4.0
V4,39.0,59.0,71.0,70.0,63.0,63,2312.0,square4,r,0.051,3,V,4.0
V4,40.0,53.0,77.0,73.0,59.0,53,2365.0,square1,f,0.183,0,V,4.0
V4,41.0,53.0,76.0,74.0,66.0,66,2431.0,square4,r,0.004,3,V,4.0
V4,42.0,51.0,79.0,73.0,59.0,51,2482.0,square1,f,0.195,0,V,4.0
V4,43.0,48.0,76.0,68.0,65.0,65,2547.0,square4,r,0.096,3,V,4.0
V4,44.0,57.0,83.0,78.0,63.0,63,2610.0,square4,r,0.001,3,V,4.0
V4,45.0,54.0,74.0,69.0,61.0,61,2671.0,square4,r,0.04,3,V,4.0
V4,46.0,53.0,85.0,66.0,62.0,66,2737.0,square3,i,0.164,2,V,4.0
V4,47.0,56.0,83.0,68.0,57.0,83,2820.0,square2,j,0.1,1,V,4.0
V4,48.0,49.0,74.0,73.0,59.0,74,2894.0,square2,j,0.097,1,V,4.0
V4,49.0,54.0,74.0,70.0,60.0,74,2968.0,square2,j,0.048,1,V,4.0
V4,50.0,47.0,83.0,69.0,60.0,83,3051.0,square2,j,0.0,1,V,4.0
V4,51.0,54.0,78.0,73.0,56.0,78,3129.0,square2,j,0.027,1,V,4.0
V4,52.0,52.0,76.0,71.0,58.0,76,3205.0,square2,j,0.172,1,V,4.0
V4,53.0,51.0,82.0,76.0,63.0,82,3287.0,square2,j,0.0,1,V,4.0
V4,54.0,57.0,76.0,69.0,64.0,69,3356.0,square3,i,0.174,2,V,4.0
V4,55.0,49.0,75.0,68.0,59.0,75,3431.0,square2,j,0.407,1,V,4.0
V4,56.0,55.0,81.0,66.0,65.0,55,3486.0,square1,f,0.22,0,V,4.0
V4,57.0,58.0,80.0,72.0,63.0,80,3566.0,square2,j,0.031,1,V,4.0
V4,58.0,49.0,81.0,66.0,62.0,62,3628.0,square4,r,0.082,3,V,4.0
V4,59.0,57.0,78.0,73.0,59.0,78,3706.0,square2,j,0.013,1,V,4.0
V4,60.0,48.0,79.0,66.0,59.0,79,3785.0,square2,j,0.031,1,V,4.0
V4,61.0,53.0,80.0,72.0,60.0,72,3857.0,square3,i,0.016,2,V,4.0
V4,62.0,53.0,79.0,70.0,61.0,79,3936.0,square2,j,0.065,1,V,4.0
V4,63.0,81.0,66.0,90.0,66.0,81,4017.0,square1,f,0.029,0,V,4.0
V4,64.0,80.0,64.0,85.0,76.0,80,4097.0,square1,f,0.048,0,V,4.0
V4,65.0,77.0,61.0,92.0,74.0,77,4174.0,square1,f,0.095,0,V,4.0
V4,66.0,89.0,65.0,91.0,73.0,65,4239.0,square2,j,0.029,1,V,4.0
V4,67.0,86.0,64.0,92.0,70.0,86,4325.0,square1,f,0.03,0,V,4.0
V4,68.0,82.0,60.0,91.0,77.0,82,4407.0,square1,f,0.027,0,V,4.0
V4,69.0,78.0,69.0,90.0,70.0,78,4485.0,square1,f,0.184,0,V,4.0
V4,70.0,85.0,64.0,95.0,73.0,73,4558.0,square4,r,0.179,3,V,4.0
V4,71.0,85.0,61.0,88.0,69.0,88,4646.0,square3,i,0.032,2,V,4.0
V4,72.0,86.0,63.0,87.0,75.0,87,4733.0,square3,i,0.098,2,V,4.0
V4,73.0,86.0,69.0,92.0,70.0,92,4825.0,square3,i,0.143,2,V,4.0
V4,74.0,81.0,62.0,90.0,69.0,90,4915.0,square3,i,0.182,2,V,4.0
V4,75.0,83.0,66.0,88.0,74.0,88,5003.0,square3,i,0.128,2,V,4.0
V4,76.0,80.0,64.0,92.0,75.0,92,5095.0,square3,i,0.075,2,V,4.0
V4,77.0,81.0,65.0,91.0,74.0,91,5186.0,square3,i,0.049,2,V,4.0
V4,78.0,78.0,70.0,89.0,73.0,70,5256.0,square2,j,0.162,1,V,4.0
V4,79.0,84.0,66.0,85.0,75.0,75,5331.0,square4,r,0.165,3,V,4.0
V4,80.0,83.0,65.0,93.0,74.0,83,5414.0,square1,f,0.04,0,V,4.0
V4,81.0,86.0,59.0,91.0,74.0,91,5505.0,square3,i,0.067,2,V,4.0
V4,82.0,87.0,64.0,92.0,73.0,92,5597.0,square3,i,0.066,2,V,4.0
V4,83.0,83.0,68.0,86.0,70.0,86,5683.0,square3,i,0.001,2,V,4.0
V4,84.0,82.0,62.0,87.0,73.0,82,5765.0,square1,f,0.261,0,V,4.0
V4,85.0,85.0,61.0,90.0,70.0,90,5855.0,square3,i,0.162,2,V,4.0
V4,86.0,84.0,66.0,97.0,71.0,97,5952.0,square3,i,0.05,2,V,4.0
V4,87.0,82.0,64.0,87.0,71.0,87,6039.0,square3,i,0.048,2,V,4.0
V4,88.0,80.0,67.0,93.0,72.0,72,6111.0,square4,r,0.098,3,V,4.0
V4,89.0,78.0,64.0,92.0,75.0,64,6175.0,square2,j,0.338,1,V,4.0
V4,90.0,75.0,66.0,88.0,72.0,88,6263.0,square3,i,0.097,2,V,4.0
V4,91.0,82.0,59.0,91.0,76.0,91,6354.0,square3,i,0.072,2,V,4.0
V4,92.0,84.0,62.0,91.0,70.0,84,6438.0,square1,f,0.372,0,V,4.0
V4,93.0,80.0,61.0,94.0,76.0,94,6532.0,square3,i,0.088,2,V,4.0
V4,94.0,83.0,64.0,88.0,72.0,88,6620.0,square3,i,0.041,2,V,4.0
V4,95.0,82.0,60.0,94.0,69.0,82,6702.0,square1,f,0.1,0,V,4.0
V4,96.0,84.0,63.0,92.0,72.0,72,6774.0,square4,r,0.197,3,V,4.0
V4,97.0,84.0,62.0,85.0,70.0,62,6836.0,square2,j,0.128,1,V,4.0
V4,98.0,81.0,64.0,93.0,72.0,93,6929.0,square3,i,0.137,2,V,4.0
V4,99.0,80.0,61.0,92.0,75.0,92,7021.0,square3,i,0.0,2,V,4.0
V9,0.0,20.0,29.0,37.0,45.0,29,29.0,square2,f,0.832,1,V,9.0
V9,1.0,21.0,32.0,39.0,45.0,45,74.0,square4,i,0.302,3,V,9.0
V9,2.0,16.0,27.0,41.0,48.0,41,115.0,square3,j,0.062,2,V,9.0
V9,3.0,20.0,30.0,42.0,50.0,20,135.0,square1,r,0.061,0,V,9.0
V9,4.0,22.0,34.0,37.0,47.0,47,182.0,square4,i,0.029,3,V,9.0
V9,5.0,17.0,32.0,38.0,49.0,49,231.0,square4,i,0.209,3,V,9.0
V9,6.0,17.0,25.0,39.0,47.0,47,278.0,square4,i,0.04,3,V,9.0
V9,7.0,22.0,28.0,33.0,48.0,48,326.0,square4,i,0.003,3,V,9.0
V9,8.0,20.0,24.0,34.0,41.0,34,360.0,square3,j,0.121,2,V,9.0
V9,9.0,20.0,33.0,30.0,51.0,20,380.0,square1,r,0.228,0,V,9.0
V9,10.0,21.0,35.0,38.0,50.0,35,415.0,square2,f,0.03,1,V,9.0
V9,11.0,19.0,29.0,44.0,45.0,45,460.0,square4,i,0.202,3,V,9.0
V9,12.0,27.0,24.0,38.0,54.0,54,514.0,square4,i,0.148,3,V,9.0
V9,13.0,15.0,26.0,37.0,50.0,50,564.0,square4,i,0.048,3,V,9.0
V9,14.0,24.0,26.0,39.0,42.0,26,590.0,square2,f,0.216,1,V,9.0
V9,15.0,26.0,27.0,43.0,49.0,49,639.0,square4,i,0.197,3,V,9.0
V9,16.0,19.0,30.0,42.0,49.0,19,658.0,square1,r,0.001,0,V,9.0
V9,17.0,21.0,30.0,34.0,49.0,34,692.0,square3,j,0.001,2,V,9.0
V9,18.0,25.0,33.0,41.0,51.0,51,743.0,square4,i,0.114,3,V,9.0
V9,19.0,17.0,31.0,41.0,45.0,45,788.0,square4,i,0.118,3,V,9.0
V9,20.0,19.0,31.0,34.0,49.0,49,837.0,square4,i,0.118,3,V,9.0
V9,21.0,23.0,29.0,37.0,48.0,48,885.0,square4,i,0.054,3,V,9.0
V9,22.0,15.0,32.0,36.0,48.0,48,933.0,square4,i,0.231,3,V,9.0
V9,23.0,25.0,33.0,39.0,47.0,39,972.0,square3,j,0.146,2,V,9.0
V9,24.0,21.0,30.0,38.0,52.0,30,1002.0,square2,f,0.103,1,V,9.0
V9,25.0,25.0,29.0,42.0,48.0,25,1027.0,square1,r,0.229,0,V,9.0
V9,26.0,22.0,29.0,39.0,47.0,47,1074.0,square4,i,0.23,3,V,9.0
V9,27.0,17.0,31.0,45.0,41.0,41,1115.0,square4,i,0.134,3,V,9.0
V9,28.0,29.0,28.0,43.0,43.0,43,1158.0,square4,i,0.148,3,V,9.0
V9,29.0,20.0,31.0,43.0,49.0,20,1178.0,square1,r,0.237,0,V,9.0
V9,30.0,23.0,33.0,39.0,48.0,33,1211.0,square2,f,0.42,1,V,9.0
V9,31.0,20.0,27.0,38.0,53.0,38,1249.0,square3,j,0.151,2,V,9.0
V9,32.0,23.0,29.0,37.0,49.0,49,1298.0,square4,i,0.142,3,V,9.0
V9,33.0,24.0,33.0,37.0,49.0,49,1347.0,square4,i,0.14,3,V,9.0
V9,34.0,43.0,58.0,48.0,30.0,30,1377.0,square4,i,0.098,3,V,9.0
V9,35.0,48.0,59.0,45.0,34.0,34,1411.0,square4,i,0.065,3,V,9.0
V9,36.0,39.0,56.0,54.0,32.0,54,1465.0,square3,j,0.142,2,V,9.0
V9,37.0,40.0,57.0,50.0,35.0,57,1522.0,square2,f,0.421,1,V,9.0
V9,38.0,49.0,62.0,51.0,33.0,49,1571.0,square1,r,0.44,0,V,9.0
V9,39.0,45.0,61.0,48.0,34.0,61,1632.0,square2,f,0.215,1,V,9.0
V9,40.0,40.0,65.0,51.0,29.0,65,1697.0,square2,f,0.271,1,V,9.0
V9,41.0,44.0,57.0,50.0,38.0,57,1754.0,square2,f,0.065,1,V,9.0
V9,42.0,40.0,57.0,49.0,33.0,57,1811.0,square2,f,0.106,1,V,9.0
V9,43.0,42.0,64.0,54.0,35.0,54,1865.0,square3,j,0.25,2,V,9.0
V9,44.0,44.0,55.0,49.0,39.0,55,1920.0,square2,f,0.176,1,V,9.0
V9,45.0,37.0,66.0,51.0,35.0,66,1986.0,square2,f,0.247,1,V,9.0
V9,46.0,40.0,59.0,51.0,32.0,51,2037.0,square3,j,0.038,2,V,9.0
V9,47.0,38.0,62.0,57.0,31.0,62,2099.0,square2,f,0.187,1,V,9.0
V9,48.0,43.0,61.0,54.0,34.0,34,2133.0,square4,i,0.249,3,V,9.0
V9,49.0,43.0,61.0,49.0,40.0,43,2176.0,square1,r,0.295,0,V,9.0
V9,50.0,37.0,58.0,51.0,32.0,58,2234.0,square2,f,0.118,1,V,9.0
V9,51.0,44.0,63.0,48.0,39.0,63,2297.0,square2,f,0.121,1,V,9.0
V9,52.0,35.0,65.0,48.0,30.0,65,2362.0,square2,f,0.151,1,V,9.0
V9,53.0,43.0,59.0,48.0,39.0,59,2421.0,square2,f,0.215,1,V,9.0
V9,54.0,43.0,59.0,52.0,30.0,52,2473.0,square3,j,0.146,2,V,9.0
V9,55.0,41.0,58.0,51.0,34.0,41,2514.0,square1,r,0.097,0,V,9.0
V9,56.0,44.0,63.0,50.0,33.0,33,2547.0,square4,i,0.019,3,V,9.0
V9,57.0,42.0,60.0,49.0,32.0,60,2607.0,square2,f,0.14,1,V,9.0
V9,58.0,44.0,62.0,57.0,30.0,62,2669.0,square2,f,0.22,1,V,9.0
V9,59.0,45.0,61.0,45.0,31.0,61,2730.0,square2,f,0.221,1,V,9.0
V9,60.0,43.0,63.0,53.0,33.0,53,2783.0,square3,j,0.151,2,V,9.0
V9,61.0,39.0,56.0,55.0,31.0,55,2838.0,square3,j,0.114,2,V,9.0
V9,62.0,39.0,61.0,50.0,34.0,50,2888.0,square3,j,0.132,2,V,9.0
V9,63.0,44.0,57.0,48.0,36.0,57,2945.0,square2,f,0.169,1,V,9.0
V9,64.0,40.0,60.0,58.0,35.0,60,3005.0,square2,f,0.383,1,V,9.0
V9,65.0,42.0,60.0,54.0,38.0,38,3043.0,square4,i,0.108,3,V,9.0
V9,66.0,41.0,60.0,54.0,37.0,41,3084.0,square1,r,0.096,0,V,9.0
V9,67.0,43.0,61.0,54.0,40.0,61,3145.0,square2,f,0.181,1,V,9.0
V9,68.0,45.0,40.0,26.0,18.0,40,3185.0,square2,f,0.04,1,V,9.0
V9,69.0,50.0,41.0,29.0,20.0,29,3214.0,square3,j,0.173,2,V,9.0
V9,70.0,43.0,36.0,27.0,15.0,36,3250.0,square2,f,0.061,1,V,9.0
V9,71.0,44.0,40.0,28.0,18.0,18,3268.0,square4,i,0.264,3,V,9.0
V9,72.0,42.0,38.0,27.0,18.0,42,3310.0,square1,r,0.236,0,V,9.0
V9,73.0,46.0,33.0,25.0,19.0,46,3356.0,square1,r,0.132,0,V,9.0
V9,74.0,47.0,40.0,28.0,20.0,40,3396.0,square2,f,0.177,1,V,9.0
V9,75.0,39.0,39.0,27.0,25.0,39,3435.0,square1,r,0.195,0,V,9.0
V9,76.0,50.0,31.0,29.0,23.0,50,3485.0,square1,r,0.279,0,V,9.0
V9,77.0,44.0,37.0,28.0,13.0,37,3522.0,square2,f,0.114,1,V,9.0
V9,78.0,43.0,36.0,23.0,17.0,43,3565.0,square1,r,0.045,0,V,9.0
V9,79.0,42.0,36.0,28.0,24.0,42,3607.0,square1,r,0.182,0,V,9.0
V9,80.0,47.0,35.0,30.0,14.0,47,3654.0,square1,r,0.2,0,V,9.0
V9,81.0,46.0,33.0,29.0,18.0,46,3700.0,square1,r,0.116,0,V,9.0
V9,82.0,46.0,35.0,28.0,18.0,46,3746.0,square1,r,0.022,0,V,9.0
V9,83.0,47.0,41.0,32.0,15.0,32,3778.0,square3,j,0.052,2,V,9.0
V9,84.0,45.0,38.0,31.0,18.0,45,3823.0,square1,r,0.087,0,V,9.0
V9,85.0,42.0,35.0,30.0,21.0,21,3844.0,square4,i,0.043,3,V,9.0
V9,86.0,49.0,39.0,23.0,18.0,49,3893.0,square1,r,0.064,0,V,9.0
V9,87.0,49.0,39.0,27.0,16.0,39,3932.0,square2,f,0.23,1,V,9.0
V9,88.0,45.0,38.0,25.0,14.0,25,3957.0,square3,j,0.296,2,V,9.0
V9,89.0,45.0,32.0,28.0,19.0,45,4002.0,square1,r,0.229,0,V,9.0
V9,90.0,44.0,35.0,29.0,20.0,44,4046.0,square1,r,0.061,0,V,9.0
V9,91.0,42.0,38.0,32.0,16.0,32,4078.0,square3,j,0.442,2,V,9.0
V9,92.0,45.0,36.0,23.0,20.0,20,4098.0,square4,i,0.248,3,V,9.0
V9,93.0,45.0,35.0,26.0,18.0,35,4133.0,square2,f,0.087,1,V,9.0
V9,94.0,44.0,37.0,27.0,13.0,44,4177.0,square1,r,0.273,0,V,9.0
V9,95.0,46.0,36.0,25.0,20.0,46,4223.0,square1,r,0.133,0,V,9.0
V9,96.0,43.0,39.0,27.0,16.0,43,4266.0,square1,r,0.018,0,V,9.0
V9,97.0,48.0,39.0,30.0,16.0,48,4314.0,square1,r,0.027,0,V,9.0
V9,98.0,49.0,40.0,26.0,20.0,49,4363.0,square1,r,0.385,0,V,9.0
V9,99.0,49.0,41.0,27.0,18.0,41,4404.0,square2,f,0.428,1,V,9.0
NS8,0.0,61.0,62.0,34.0,32.0,99999,0.0,invalid,,,-1,N,8.0
NS8,1.0,57.0,56.0,38.0,27.0,56,56.0,square2,i,0.276,1,N,8.0
NS8,2.0,66.0,55.0,42.0,28.0,66,122.0,square1,f,0.402,0,N,8.0
NS8,3.0,67.0,51.0,37.0,28.0,28,150.0,square4,j,0.076,3,N,8.0
NS8,4.0,65.0,53.0,38.0,32.0,53,203.0,square2,i,0.028,1,N,8.0
NS8,5.0,67.0,52.0,43.0,33.0,67,270.0,square1,f,0.028,0,N,8.0
NS8,6.0,56.0,47.0,41.0,36.0,56,326.0,square1,f,0.167,0,N,8.0
NS8,7.0,58.0,46.0,37.0,31.0,58,384.0,square1,f,0.221,0,N,8.0
NS8,8.0,60.0,58.0,36.0,35.0,36,420.0,square3,r,0.101,2,N,8.0
NS8,9.0,60.0,66.0,41.0,39.0,66,486.0,square2,i,0.028,1,N,8.0
NS8,10.0,60.0,60.0,36.0,33.0,33,519.0,square4,j,0.03,3,N,8.0
NS8,11.0,53.0,63.0,32.0,35.0,63,582.0,square2,i,0.0,1,N,8.0
NS8,12.0,51.0,60.0,32.0,29.0,60,642.0,square2,i,0.082,1,N,8.0
NS8,13.0,53.0,65.0,30.0,32.0,65,707.0,square2,i,0.453,1,N,8.0
NS8,14.0,56.0,69.0,25.0,33.0,69,776.0,square2,i,0.031,1,N,8.0
NS8,15.0,57.0,71.0,29.0,35.0,57,833.0,square1,f,0.009,0,N,8.0
NS8,16.0,55.0,64.0,31.0,33.0,64,897.0,square2,i,0.118,1,N,8.0
NS8,17.0,48.0,65.0,29.0,32.0,65,962.0,square2,i,0.097,1,N,8.0
NS8,18.0,44.0,64.0,28.0,34.0,28,990.0,square3,r,0.115,2,N,8.0
NS8,19.0,46.0,60.0,26.0,33.0,33,1023.0,square4,j,0.003,3,N,8.0
NS8,20.0,41.0,58.0,29.0,35.0,58,1081.0,square2,i,0.088,1,N,8.0
NS8,21.0,45.0,57.0,29.0,35.0,57,1138.0,square2,i,0.162,1,N,8.0
NS8,22.0,47.0,53.0,32.0,32.0,53,1191.0,square2,i,0.032,1,N,8.0
NS8,23.0,49.0,52.0,33.0,35.0,52,1243.0,square2,i,0.049,1,N,8.0
NS8,24.0,56.0,53.0,30.0,37.0,56,1299.0,square1,f,0.148,0,N,8.0
NS8,25.0,57.0,48.0,28.0,42.0,57,1356.0,square1,f,0.018,0,N,8.0
NS8,26.0,52.0,48.0,33.0,43.0,52,1408.0,square1,f,0.082,0,N,8.0
NS8,27.0,53.0,45.0,28.0,47.0,53,1461.0,square1,f,0.203,0,N,8.0
NS8,28.0,50.0,43.0,27.0,41.0,50,1511.0,square1,f,0.009,0,N,8.0
NS8,29.0,53.0,52.0,29.0,43.0,29,1540.0,square3,r,0.103,2,N,8.0
NS8,30.0,54.0,51.0,30.0,41.0,41,1581.0,square4,j,0.032,3,N,8.0
NS8,31.0,50.0,50.0,31.0,42.0,50,1631.0,square1,f,0.116,0,N,8.0
NS8,32.0,50.0,50.0,35.0,43.0,50,1681.0,square2,i,0.076,1,N,8.0
NS8,33.0,46.0,48.0,39.0,41.0,48,1729.0,square2,i,0.18,1,N,8.0
NS8,34.0,47.0,46.0,41.0,40.0,47,1776.0,square1,f,0.151,0,N,8.0
NS8,35.0,57.0,45.0,36.0,37.0,36,1812.0,square3,r,0.176,2,N,8.0
NS8,36.0,53.0,49.0,41.0,38.0,38,1850.0,square4,j,0.109,3,N,8.0
NS8,37.0,57.0,50.0,41.0,39.0,57,1907.0,square1,f,0.066,0,N,8.0
NS8,38.0,61.0,51.0,39.0,43.0,61,1968.0,square1,f,0.128,0,N,8.0
NS8,39.0,59.0,54.0,41.0,36.0,59,2027.0,square1,f,0.096,0,N,8.0
NS8,40.0,53.0,55.0,47.0,40.0,53,2080.0,square1,f,0.13,0,N,8.0
NS8,41.0,53.0,55.0,43.0,39.0,55,2135.0,square2,i,0.118,1,N,8.0
NS8,42.0,59.0,55.0,45.0,40.0,55,2190.0,square2,i,0.139,1,N,8.0
NS8,43.0,54.0,46.0,51.0,37.0,46,2236.0,square2,i,0.084,1,N,8.0
NS8,44.0,56.0,44.0,50.0,35.0,56,2292.0,square1,f,0.096,0,N,8.0
NS8,45.0,51.0,46.0,41.0,37.0,51,2343.0,square1,f,0.198,0,N,8.0
NS8,46.0,52.0,43.0,44.0,34.0,52,2395.0,square1,f,0.029,0,N,8.0
NS8,47.0,46.0,41.0,36.0,37.0,46,2441.0,square1,f,0.199,0,N,8.0
NS8,48.0,47.0,46.0,39.0,37.0,37,2478.0,square4,j,0.073,3,N,8.0
NS8,49.0,48.0,36.0,38.0,40.0,38,2516.0,square3,r,0.23,2,N,8.0
NS8,50.0,51.0,37.0,36.0,46.0,36,2552.0,square3,r,0.048,2,N,8.0
NS8,51.0,53.0,38.0,40.0,43.0,43,2595.0,square4,j,0.096,3,N,8.0
NS8,52.0,47.0,32.0,37.0,44.0,47,2642.0,square1,f,0.061,0,N,8.0
NS8,53.0,52.0,31.0,38.0,46.0,31,2673.0,square2,i,0.003,1,N,8.0
NS8,54.0,44.0,34.0,40.0,45.0,44,2717.0,square1,f,0.185,0,N,8.0
NS8,55.0,46.0,26.0,37.0,41.0,41,2758.0,square4,j,0.099,3,N,8.0
NS8,56.0,42.0,29.0,36.0,40.0,36,2794.0,square3,r,0.142,2,N,8.0
NS8,57.0,39.0,21.0,39.0,40.0,39,2833.0,square1,f,0.083,0,N,8.0
NS8,58.0,42.0,18.0,39.0,40.0,42,2875.0,square1,f,0.15,0,N,8.0
NS8,59.0,46.0,16.0,41.0,39.0,46,2921.0,square1,f,0.139,0,N,8.0
NS8,60.0,45.0,20.0,40.0,39.0,20,2941.0,square2,i,0.331,1,N,8.0
NS8,61.0,45.0,26.0,42.0,39.0,45,2986.0,square1,f,0.142,0,N,8.0
NS8,62.0,46.0,21.0,45.0,37.0,37,3023.0,square4,j,0.016,3,N,8.0
NS8,63.0,50.0,23.0,40.0,38.0,40,3063.0,square3,r,0.068,2,N,8.0
NS8,64.0,46.0,24.0,41.0,33.0,46,3109.0,square1,f,0.186,0,N,8.0
NS8,65.0,48.0,28.0,42.0,32.0,48,3157.0,square1,f,0.14,0,N,8.0
NS8,66.0,47.0,20.0,40.0,35.0,47,3204.0,square1,f,0.398,0,N,8.0
NS8,67.0,49.0,25.0,46.0,34.0,46,3250.0,square3,r,0.27,2,N,8.0
NS8,68.0,47.0,24.0,45.0,33.0,33,3283.0,square4,j,0.218,3,N,8.0
NS8,69.0,45.0,21.0,47.0,35.0,47,3330.0,square3,r,0.096,2,N,8.0
NS8,70.0,44.0,21.0,47.0,37.0,47,3377.0,square3,r,0.423,2,N,8.0
NS8,71.0,44.0,15.0,41.0,38.0,15,3392.0,square2,i,0.116,1,N,8.0
NS8,72.0,47.0,19.0,49.0,40.0,49,3441.0,square3,r,0.107,2,N,8.0
NS8,73.0,39.0,21.0,53.0,38.0,53,3494.0,square3,r,0.299,2,N,8.0
NS8,74.0,42.0,19.0,53.0,35.0,53,3547.0,square3,r,0.117,2,N,8.0
NS8,75.0,37.0,18.0,43.0,35.0,37,3584.0,square1,f,0.22,0,N,8.0
NS8,76.0,35.0,14.0,42.0,38.0,42,3626.0,square3,r,0.176,2,N,8.0
NS8,77.0,38.0,19.0,47.0,44.0,47,3673.0,square3,r,0.227,2,N,8.0
NS8,78.0,38.0,18.0,50.0,46.0,46,3719.0,square4,j,0.561,3,N,8.0
NS8,79.0,33.0,22.0,54.0,44.0,44,3763.0,square4,j,0.182,3,N,8.0
NS8,80.0,38.0,21.0,56.0,52.0,52,3815.0,square4,j,0.05,3,N,8.0
NS8,81.0,37.0,22.0,56.0,43.0,43,3858.0,square4,j,0.127,3,N,8.0
NS8,82.0,30.0,26.0,60.0,42.0,42,3900.0,square4,j,0.113,3,N,8.0
NS8,83.0,38.0,22.0,54.0,46.0,54,3954.0,square3,r,0.235,2,N,8.0
NS8,84.0,33.0,18.0,52.0,46.0,52,4006.0,square3,r,0.019,2,N,8.0
NS8,85.0,42.0,12.0,57.0,48.0,57,4063.0,square3,r,0.004,2,N,8.0
NS8,86.0,45.0,19.0,58.0,42.0,58,4121.0,square3,r,0.165,2,N,8.0
NS8,87.0,46.0,10.0,65.0,44.0,65,4186.0,square3,r,0.068,2,N,8.0
NS8,88.0,45.0,11.0,59.0,45.0,59,4245.0,square3,r,0.052,2,N,8.0
NS8,89.0,42.0,11.0,60.0,47.0,11,4256.0,square2,i,0.054,1,N,8.0
NS8,90.0,40.0,7.0,64.0,49.0,40,4296.0,square1,f,0.002,0,N,8.0
NS8,91.0,42.0,11.0,64.0,48.0,64,4360.0,square3,r,0.219,2,N,8.0
NS8,92.0,43.0,13.0,60.0,43.0,60,4420.0,square3,r,0.172,2,N,8.0
NS8,93.0,44.0,12.0,64.0,45.0,64,4484.0,square3,r,0.003,2,N,8.0
NS8,94.0,45.0,16.0,65.0,49.0,65,4549.0,square3,r,0.164,2,N,8.0
NS8,95.0,45.0,24.0,66.0,42.0,42,4591.0,square4,j,0.063,3,N,8.0
NS8,96.0,53.0,27.0,67.0,44.0,67,4658.0,square3,r,0.009,2,N,8.0
NS8,97.0,50.0,29.0,68.0,43.0,50,4708.0,square1,f,0.548,0,N,8.0
NS8,98.0,52.0,29.0,66.0,37.0,29,4737.0,square2,i,0.038,1,N,8.0
NS8,99.0,53.0,32.0,65.0,37.0,65,4802.0,square3,r,0.128,2,N,8.0
NS9,0.0,40.0,33.0,41.0,64.0,64,64.0,square4,f,0.608,3,N,9.0
NS9,1.0,40.0,19.0,39.0,64.0,40,104.0,square1,r,0.25,0,N,9.0
NS9,2.0,41.0,16.0,44.0,59.0,44,148.0,square3,i,0.26,2,N,9.0
NS9,3.0,41.0,19.0,48.0,58.0,19,167.0,square2,j,0.173,1,N,9.0
NS9,4.0,46.0,18.0,45.0,54.0,54,221.0,square4,f,0.109,3,N,9.0
NS9,5.0,40.0,17.0,53.0,54.0,54,275.0,square4,f,0.031,3,N,9.0
NS9,6.0,40.0,19.0,47.0,46.0,46,321.0,square4,f,0.156,3,N,9.0
NS9,7.0,44.0,21.0,51.0,49.0,49,370.0,square4,f,0.18,3,N,9.0
NS9,8.0,41.0,26.0,44.0,55.0,26,396.0,square2,j,0.198,1,N,9.0
NS9,9.0,36.0,15.0,44.0,54.0,44,440.0,square3,i,0.285,2,N,9.0
NS9,10.0,32.0,19.0,48.0,49.0,32,472.0,square1,r,0.296,0,N,9.0
NS9,11.0,32.0,18.0,50.0,57.0,57,529.0,square4,f,0.214,3,N,9.0
NS9,12.0,32.0,18.0,57.0,52.0,52,581.0,square4,f,0.164,3,N,9.0
NS9,13.0,32.0,8.0,58.0,56.0,56,637.0,square4,f,0.199,3,N,9.0
NS9,14.0,28.0,9.0,61.0,55.0,55,692.0,square4,f,0.228,3,N,9.0
NS9,15.0,31.0,11.0,64.0,48.0,11,703.0,square2,j,0.249,1,N,9.0
NS9,16.0,34.0,13.0,68.0,47.0,47,750.0,square4,f,0.098,3,N,9.0
NS9,17.0,37.0,11.0,71.0,54.0,37,787.0,square1,r,0.174,0,N,9.0
NS9,18.0,35.0,10.0,71.0,50.0,71,858.0,square3,i,0.163,2,N,9.0
NS9,19.0,32.0,21.0,77.0,49.0,77,935.0,square3,i,0.002,2,N,9.0
NS9,20.0,41.0,22.0,74.0,48.0,74,1009.0,square3,i,0.003,2,N,9.0
NS9,21.0,40.0,21.0,75.0,50.0,75,1084.0,square3,i,0.013,2,N,9.0
NS9,22.0,42.0,23.0,72.0,54.0,72,1156.0,square3,i,0.131,2,N,9.0
NS9,23.0,43.0,22.0,75.0,45.0,45,1201.0,square4,f,0.028,3,N,9.0
NS9,24.0,41.0,18.0,70.0,49.0,70,1271.0,square3,i,0.18,2,N,9.0
NS9,25.0,38.0,21.0,75.0,53.0,75,1346.0,square3,i,0.029,2,N,9.0
NS9,26.0,40.0,20.0,73.0,54.0,54,1400.0,square4,f,0.051,3,N,9.0
NS9,27.0,46.0,21.0,74.0,56.0,74,1474.0,square3,i,0.136,2,N,9.0
NS9,28.0,51.0,25.0,72.0,58.0,51,1525.0,square1,r,0.15,0,N,9.0
NS9,29.0,43.0,29.0,71.0,56.0,29,1554.0,square2,j,0.117,1,N,9.0
NS9,30.0,38.0,26.0,71.0,52.0,71,1625.0,square3,i,0.061,2,N,9.0
NS9,31.0,43.0,23.0,73.0,53.0,73,1698.0,square3,i,0.005,2,N,9.0
NS9,32.0,43.0,24.0,76.0,52.0,76,1774.0,square3,i,0.163,2,N,9.0
NS9,33.0,41.0,18.0,72.0,49.0,72,1846.0,square3,i,0.106,2,N,9.0
NS9,34.0,36.0,26.0,68.0,55.0,68,1914.0,square3,i,0.116,2,N,9.0
NS9,35.0,34.0,34.0,68.0,52.0,68,1982.0,square3,i,0.075,2,N,9.0
NS9,36.0,34.0,43.0,70.0,49.0,49,2031.0,square4,f,0.098,3,N,9.0
NS9,37.0,32.0,41.0,61.0,47.0,32,2063.0,square1,r,0.154,0,N,9.0
NS9,38.0,28.0,41.0,65.0,47.0,41,2104.0,square2,j,0.019,1,N,9.0
NS9,39.0,28.0,43.0,61.0,48.0,61,2165.0,square3,i,0.031,2,N,9.0
NS9,40.0,26.0,46.0,65.0,39.0,65,2230.0,square3,i,0.119,2,N,9.0
NS9,41.0,21.0,38.0,62.0,41.0,62,2292.0,square3,i,0.166,2,N,9.0
NS9,42.0,18.0,37.0,59.0,42.0,59,2351.0,square3,i,0.194,2,N,9.0
NS9,43.0,18.0,44.0,57.0,39.0,18,2369.0,square1,r,0.116,0,N,9.0
NS9,44.0,19.0,43.0,58.0,36.0,36,2405.0,square4,f,0.182,3,N,9.0
NS9,45.0,23.0,42.0,53.0,39.0,53,2458.0,square3,i,0.079,2,N,9.0
NS9,46.0,22.0,48.0,58.0,43.0,58,2516.0,square3,i,0.185,2,N,9.0
NS9,47.0,20.0,47.0,51.0,44.0,51,2567.0,square3,i,0.175,2,N,9.0
NS9,48.0,21.0,43.0,57.0,40.0,43,2610.0,square2,j,0.183,1,N,9.0
NS9,49.0,25.0,38.0,59.0,46.0,46,2656.0,square4,f,0.015,3,N,9.0
NS9,50.0,27.0,41.0,49.0,52.0,27,2683.0,square1,r,0.497,0,N,9.0
NS9,51.0,20.0,42.0,52.0,54.0,52,2735.0,square3,i,0.097,2,N,9.0
NS9,52.0,18.0,41.0,51.0,48.0,51,2786.0,square3,i,0.131,2,N,9.0
NS9,53.0,17.0,43.0,52.0,50.0,52,2838.0,square3,i,0.072,2,N,9.0
NS9,54.0,27.0,37.0,55.0,56.0,55,2893.0,square3,i,0.072,2,N,9.0
NS9,55.0,30.0,38.0,59.0,50.0,59,2952.0,square3,i,0.034,2,N,9.0
NS9,56.0,32.0,49.0,54.0,59.0,54,3006.0,square3,i,0.421,2,N,9.0
NS9,57.0,34.0,50.0,50.0,58.0,50,3056.0,square2,j,0.148,1,N,9.0
NS9,58.0,28.0,49.0,54.0,51.0,51,3107.0,square4,f,0.064,3,N,9.0
NS9,59.0,26.0,47.0,46.0,49.0,26,3133.0,square1,r,0.201,0,N,9.0
NS9,60.0,30.0,47.0,50.0,51.0,50,3183.0,square3,i,0.108,2,N,9.0
NS9,61.0,29.0,43.0,51.0,50.0,50,3233.0,square4,f,0.253,3,N,9.0
NS9,62.0,32.0,42.0,52.0,54.0,42,3275.0,square2,j,0.098,1,N,9.0
NS9,63.0,35.0,45.0,57.0,46.0,57,3332.0,square3,i,0.115,2,N,9.0
NS9,64.0,37.0,41.0,53.0,44.0,53,3385.0,square3,i,0.016,2,N,9.0
NS9,65.0,34.0,41.0,50.0,49.0,34,3419.0,square1,r,0.351,0,N,9.0
NS9,66.0,38.0,43.0,46.0,53.0,46,3465.0,square3,i,0.004,2,N,9.0
NS9,67.0,36.0,35.0,51.0,54.0,35,3500.0,square2,j,0.165,1,N,9.0
NS9,68.0,43.0,38.0,48.0,57.0,57,3557.0,square4,f,0.046,3,N,9.0
NS9,69.0,42.0,42.0,48.0,49.0,49,3606.0,square4,f,0.105,3,N,9.0
NS9,70.0,45.0,40.0,50.0,51.0,51,3657.0,square4,f,0.166,3,N,9.0
NS9,71.0,49.0,42.0,48.0,52.0,52,3709.0,square4,f,0.117,3,N,9.0
NS9,72.0,39.0,44.0,47.0,58.0,58,3767.0,square4,f,0.605,3,N,9.0
NS9,73.0,40.0,45.0,45.0,62.0,45,3812.0,square3,i,0.147,2,N,9.0
NS9,74.0,46.0,48.0,47.0,56.0,46,3858.0,square1,r,0.432,0,N,9.0
NS9,75.0,35.0,39.0,53.0,65.0,39,3897.0,square2,j,0.186,1,N,9.0
NS9,76.0,40.0,45.0,56.0,67.0,67,3964.0,square4,f,0.106,3,N,9.0
NS9,77.0,38.0,46.0,54.0,69.0,69,4033.0,square4,f,0.015,3,N,9.0
NS9,78.0,37.0,42.0,53.0,69.0,69,4102.0,square4,f,0.16,3,N,9.0
NS9,79.0,40.0,44.0,53.0,70.0,70,4172.0,square4,f,0.226,3,N,9.0
NS9,80.0,37.0,50.0,55.0,70.0,70,4242.0,square4,f,0.282,3,N,9.0
NS9,81.0,33.0,54.0,54.0,63.0,63,4305.0,square4,f,0.203,3,N,9.0
NS9,82.0,35.0,55.0,52.0,74.0,52,4357.0,square3,i,0.761,2,N,9.0
NS9,83.0,34.0,48.0,56.0,75.0,56,4413.0,square3,i,0.472,2,N,9.0
NS9,84.0,39.0,51.0,62.0,78.0,99999,4413.0,invalid,,,-1,N,9.0
NS9,85.0,38.0,57.0,55.0,77.0,77,4490.0,square4,f,0.516,3,N,9.0
NS9,86.0,34.0,53.0,57.0,68.0,68,4558.0,square4,f,0.165,3,N,9.0
NS9,87.0,35.0,48.0,55.0,69.0,55,4613.0,square3,i,0.163,2,N,9.0
NS9,88.0,41.0,48.0,50.0,69.0,69,4682.0,square4,f,0.232,3,N,9.0
NS9,89.0,38.0,54.0,55.0,70.0,54,4736.0,square2,j,0.064,1,N,9.0
NS9,90.0,43.0,55.0,49.0,71.0,43,4779.0,square1,r,0.041,0,N,9.0
NS9,91.0,41.0,46.0,54.0,78.0,78,4857.0,square4,f,0.098,3,N,9.0
NS9,92.0,40.0,42.0,41.0,72.0,72,4929.0,square4,f,0.014,3,N,9.0
NS9,93.0,39.0,43.0,47.0,70.0,70,4999.0,square4,f,0.149,3,N,9.0
NS9,94.0,36.0,47.0,43.0,80.0,80,5079.0,square4,f,0.101,3,N,9.0
NS9,95.0,37.0,46.0,43.0,75.0,43,5122.0,square3,i,0.171,2,N,9.0
NS9,96.0,39.0,47.0,47.0,75.0,75,5197.0,square4,f,0.03,3,N,9.0
NS9,97.0,35.0,41.0,49.0,80.0,35,5232.0,square1,r,0.48,0,N,9.0
NS9,98.0,33.0,45.0,56.0,74.0,45,5277.0,square2,j,0.117,1,N,9.0
NS9,99.0,34.0,42.0,58.0,74.0,42,5319.0,square2,j,0.001,1,N,9.0
NS11,0.0,78.0,37.0,30.0,78.0,78,78.0,square1,f,0.178,0,N,11.0
NS11,1.0,85.0,34.0,30.0,76.0,76,154.0,square4,i,0.161,3,N,11.0
NS11,2.0,79.0,33.0,36.0,77.0,36,190.0,square3,j,0.161,2,N,11.0
NS11,3.0,82.0,33.0,28.0,72.0,33,223.0,square2,r,0.028,1,N,11.0
NS11,4.0,82.0,34.0,33.0,76.0,76,299.0,square4,i,0.001,3,N,11.0
NS11,5.0,78.0,38.0,32.0,83.0,78,377.0,square1,f,0.095,0,N,11.0
NS11,6.0,78.0,37.0,34.0,77.0,78,455.0,square1,f,0.197,0,N,11.0
NS11,7.0,80.0,30.0,33.0,74.0,80,535.0,square1,f,0.046,0,N,11.0
NS11,8.0,79.0,32.0,30.0,73.0,79,614.0,square1,f,0.206,0,N,11.0
NS11,9.0,81.0,41.0,34.0,61.0,61,675.0,square4,i,0.052,3,N,11.0
NS11,10.0,76.0,38.0,25.0,64.0,76,751.0,square1,f,0.131,0,N,11.0
NS11,11.0,79.0,34.0,27.0,65.0,27,778.0,square3,j,0.075,2,N,11.0
NS11,12.0,81.0,32.0,25.0,68.0,32,810.0,square2,r,0.028,1,N,11.0
NS11,13.0,84.0,36.0,24.0,64.0,84,894.0,square1,f,0.199,0,N,11.0
NS11,14.0,80.0,30.0,24.0,61.0,80,974.0,square1,f,0.13,0,N,11.0
NS11,15.0,86.0,33.0,22.0,66.0,86,1060.0,square1,f,0.097,0,N,11.0
NS11,16.0,85.0,32.0,20.0,64.0,85,1145.0,square1,f,0.12,0,N,11.0
NS11,17.0,83.0,32.0,22.0,71.0,83,1228.0,square1,f,0.075,0,N,11.0
NS11,18.0,80.0,31.0,19.0,66.0,80,1308.0,square1,f,0.027,0,N,11.0
NS11,19.0,75.0,40.0,23.0,69.0,23,1331.0,square3,j,0.1,2,N,11.0
NS11,20.0,73.0,37.0,14.0,67.0,73,1404.0,square1,f,0.061,0,N,11.0
NS11,21.0,81.0,34.0,23.0,70.0,70,1474.0,square4,i,0.349,3,N,11.0
NS11,22.0,77.0,39.0,16.0,73.0,39,1513.0,square2,r,0.175,1,N,11.0
NS11,23.0,78.0,30.0,23.0,74.0,78,1591.0,square1,f,0.038,0,N,11.0
NS11,24.0,80.0,32.0,26.0,68.0,80,1671.0,square1,f,0.149,0,N,11.0
NS11,25.0,81.0,29.0,29.0,73.0,81,1752.0,square1,f,0.0,0,N,11.0
NS11,26.0,77.0,31.0,26.0,69.0,77,1829.0,square1,f,0.001,0,N,11.0
NS11,27.0,69.0,47.0,29.0,64.0,64,1893.0,square4,i,0.032,3,N,11.0
NS11,28.0,69.0,39.0,28.0,71.0,69,1962.0,square1,f,0.099,0,N,11.0
NS11,29.0,71.0,41.0,24.0,66.0,24,1986.0,square3,j,0.003,2,N,11.0
NS11,30.0,70.0,40.0,21.0,68.0,40,2026.0,square2,r,0.253,1,N,11.0
NS11,31.0,72.0,44.0,21.0,68.0,72,2098.0,square1,f,0.0,0,N,11.0
NS11,32.0,72.0,41.0,19.0,75.0,72,2170.0,square1,f,0.112,0,N,11.0
NS11,33.0,66.0,48.0,21.0,72.0,66,2236.0,square1,f,0.113,0,N,11.0
NS11,34.0,67.0,48.0,24.0,72.0,67,2303.0,square1,f,0.161,0,N,11.0
NS11,35.0,58.0,52.0,14.0,73.0,73,2376.0,square4,i,0.031,3,N,11.0
NS11,36.0,61.0,52.0,23.0,70.0,70,2446.0,square4,i,0.13,3,N,11.0
NS11,37.0,50.0,55.0,29.0,67.0,67,2513.0,square4,i,0.001,3,N,11.0
NS11,38.0,51.0,54.0,20.0,64.0,54,2567.0,square2,r,0.143,1,N,11.0
NS11,39.0,54.0,49.0,26.0,63.0,26,2593.0,square3,j,0.167,2,N,11.0
NS11,40.0,50.0,47.0,24.0,70.0,70,2663.0,square4,i,0.183,3,N,11.0
NS11,41.0,54.0,46.0,23.0,63.0,63,2726.0,square4,i,0.004,3,N,11.0
NS11,42.0,54.0,47.0,25.0,61.0,61,2787.0,square4,i,0.036,3,N,11.0
NS11,43.0,46.0,49.0,33.0,72.0,46,2833.0,square1,f,0.051,0,N,11.0
NS11,44.0,54.0,50.0,38.0,72.0,72,2905.0,square4,i,0.073,3,N,11.0
NS11,45.0,56.0,53.0,39.0,81.0,81,2986.0,square4,i,0.084,3,N,11.0
NS11,46.0,57.0,55.0,33.0,77.0,33,3019.0,square3,j,0.148,2,N,11.0
NS11,47.0,56.0,51.0,32.0,76.0,76,3095.0,square4,i,0.13,3,N,11.0
NS11,48.0,58.0,49.0,29.0,85.0,85,3180.0,square4,i,0.102,3,N,11.0
NS11,49.0,58.0,53.0,27.0,83.0,83,3263.0,square4,i,0.131,3,N,11.0
NS11,50.0,62.0,49.0,24.0,80.0,80,3343.0,square4,i,0.096,3,N,11.0
NS11,51.0,57.0,55.0,23.0,77.0,77,3420.0,square4,i,0.031,3,N,11.0
NS11,52.0,56.0,55.0,20.0,77.0,55,3475.0,square2,r,0.153,1,N,11.0
NS11,53.0,59.0,56.0,20.0,78.0,78,3553.0,square4,i,0.103,3,N,11.0
NS11,54.0,58.0,57.0,27.0,74.0,57,3610.0,square2,r,0.082,1,N,11.0
NS11,55.0,60.0,55.0,24.0,79.0,24,3634.0,square3,j,0.075,2,N,11.0
NS11,56.0,60.0,52.0,22.0,77.0,77,3711.0,square4,i,0.117,3,N,11.0
NS11,57.0,58.0,55.0,22.0,72.0,72,3783.0,square4,i,0.053,3,N,11.0
NS11,58.0,63.0,52.0,22.0,75.0,75,3858.0,square4,i,0.061,3,N,11.0
NS11,59.0,62.0,56.0,17.0,70.0,70,3928.0,square4,i,0.034,3,N,11.0
NS11,60.0,61.0,55.0,22.0,70.0,61,3989.0,square1,f,0.0,0,N,11.0
NS11,61.0,57.0,52.0,21.0,76.0,76,4065.0,square4,i,0.008,3,N,11.0
NS11,62.0,57.0,48.0,28.0,75.0,75,4140.0,square4,i,0.038,3,N,11.0
NS11,63.0,57.0,58.0,30.0,68.0,68,4208.0,square4,i,0.181,3,N,11.0
NS11,64.0,61.0,61.0,27.0,74.0,61,4269.0,square2,r,0.001,1,N,11.0
NS11,65.0,67.0,63.0,40.0,71.0,40,4309.0,square3,j,0.264,2,N,11.0
NS11,66.0,69.0,55.0,38.0,73.0,73,4382.0,square4,i,0.186,3,N,11.0
NS11,67.0,72.0,57.0,36.0,65.0,65,4447.0,square4,i,0.232,3,N,11.0
NS11,68.0,71.0,61.0,36.0,64.0,71,4518.0,square1,f,0.003,0,N,11.0
NS11,69.0,74.0,66.0,37.0,58.0,74,4592.0,square1,f,0.031,0,N,11.0
NS11,70.0,69.0,60.0,40.0,66.0,69,4661.0,square1,f,0.096,0,N,11.0
NS11,71.0,71.0,58.0,40.0,64.0,71,4732.0,square1,f,0.161,0,N,11.0
NS11,72.0,72.0,58.0,46.0,67.0,58,4790.0,square2,r,0.162,1,N,11.0
NS11,73.0,72.0,56.0,47.0,65.0,72,4862.0,square1,f,0.003,0,N,11.0
NS11,74.0,66.0,54.0,47.0,63.0,47,4909.0,square3,j,0.048,2,N,11.0
NS11,75.0,75.0,53.0,43.0,58.0,75,4984.0,square1,f,0.175,0,N,11.0
NS11,76.0,75.0,48.0,40.0,59.0,75,5059.0,square1,f,0.221,0,N,11.0
NS11,77.0,65.0,48.0,36.0,58.0,65,5124.0,square1,f,0.21,0,N,11.0
NS11,78.0,70.0,45.0,37.0,59.0,59,5183.0,square4,i,0.097,3,N,11.0
NS11,79.0,70.0,41.0,36.0,59.0,41,5224.0,square2,r,0.062,1,N,11.0
NS11,80.0,73.0,43.0,39.0,59.0,39,5263.0,square3,j,0.215,2,N,11.0
NS11,81.0,72.0,39.0,38.0,60.0,72,5335.0,square1,f,0.015,0,N,11.0
NS11,82.0,72.0,39.0,44.0,65.0,72,5407.0,square1,f,0.202,0,N,11.0
NS11,83.0,68.0,38.0,40.0,61.0,68,5475.0,square1,f,0.148,0,N,11.0
NS11,84.0,69.0,36.0,36.0,64.0,69,5544.0,square1,f,0.04,0,N,11.0
NS11,85.0,70.0,34.0,40.0,69.0,69,5613.0,square4,i,0.182,3,N,11.0
NS11,86.0,70.0,32.0,36.0,71.0,70,5683.0,square1,f,0.139,0,N,11.0
NS11,87.0,69.0,31.0,37.0,70.0,70,5753.0,square4,i,0.001,3,N,11.0
NS11,88.0,69.0,34.0,41.0,67.0,69,5822.0,square1,f,0.028,0,N,11.0
NS11,89.0,67.0,39.0,44.0,67.0,67,5889.0,square4,i,0.142,3,N,11.0
NS11,90.0,64.0,33.0,36.0,69.0,36,5925.0,square3,j,0.031,2,N,11.0
NS11,91.0,60.0,33.0,38.0,67.0,33,5958.0,square2,r,0.048,1,N,11.0
NS11,92.0,60.0,33.0,37.0,68.0,68,6026.0,square4,i,0.144,3,N,11.0
NS11,93.0,54.0,36.0,38.0,73.0,54,6080.0,square1,f,0.001,0,N,11.0
NS11,94.0,58.0,35.0,39.0,68.0,68,6148.0,square4,i,0.0,3,N,11.0
NS11,95.0,50.0,38.0,32.0,77.0,77,6225.0,square4,i,0.08,3,N,11.0
NS11,96.0,53.0,42.0,30.0,71.0,71,6296.0,square4,i,0.062,3,N,11.0
NS11,97.0,54.0,38.0,32.0,75.0,54,6350.0,square1,f,0.028,0,N,11.0
NS11,98.0,52.0,48.0,32.0,72.0,72,6422.0,square4,i,0.069,3,N,11.0
NS11,99.0,55.0,45.0,33.0,73.0,73,6495.0,square4,i,0.187,3,N,11.0
