block,Trial,square1,square2,square3,square4,currPoints,totalPoints,square,choiceKey.keys,choiceKey.rt,armNum,blockType,blockNum
prac,0.0,100.0,0.0,0.0,0.0,99999,0.0,invalid,,,-1,p,0.0
prac,1.0,100.0,0.0,0.0,0.0,99999,0.0,invalid,,,-1,p,0.0
prac,2.0,100.0,0.0,0.0,0.0,99999,0.0,invalid,,,-1,p,0.0
prac,3.0,100.0,0.0,0.0,0.0,99999,0.0,invalid,,,-1,p,0.0
prac,4.0,100.0,0.0,0.0,0.0,99999,0.0,invalid,,,-1,p,0.0
prac,5.0,100.0,0.0,0.0,0.0,99999,0.0,invalid,,,-1,p,0.0
prac,6.0,100.0,0.0,0.0,0.0,99999,0.0,invalid,,,-1,p,0.0
prac,7.0,100.0,0.0,0.0,0.0,99999,0.0,invalid,,,-1,p,0.0
prac,8.0,100.0,0.0,0.0,0.0,99999,0.0,invalid,,,-1,p,0.0
prac,9.0,100.0,0.0,0.0,0.0,99999,0.0,invalid,,,-1,p,0.0
S3,0.0,38.0,48.0,42.0,57.0,99999,0.0,invalid,,,-1,S,3.0
S3,1.0,29.0,43.0,51.0,57.0,99999,0.0,invalid,,,-1,S,3.0
S3,2.0,41.0,49.0,46.0,49.0,99999,0.0,invalid,,,-1,S,3.0
S3,3.0,44.0,50.0,45.0,52.0,99999,0.0,invalid,,,-1,S,3.0
S3,4.0,37.0,51.0,45.0,58.0,99999,0.0,invalid,,,-1,S,3.0
S3,5.0,47.0,43.0,42.0,49.0,99999,0.0,invalid,,,-1,S,3.0
S3,6.0,44.0,53.0,51.0,58.0,99999,0.0,invalid,,,-1,S,3.0
S3,7.0,39.0,47.0,46.0,54.0,99999,0.0,invalid,,,-1,S,3.0
S3,8.0,43.0,53.0,41.0,52.0,99999,0.0,invalid,,,-1,S,3.0
S3,9.0,42.0,46.0,41.0,53.0,99999,0.0,invalid,,,-1,S,3.0
S3,10.0,37.0,49.0,49.0,55.0,99999,0.0,invalid,,,-1,S,3.0
S3,11.0,40.0,47.0,36.0,59.0,99999,0.0,invalid,,,-1,S,3.0
S3,12.0,46.0,51.0,39.0,56.0,99999,0.0,invalid,,,-1,S,3.0
S3,13.0,39.0,48.0,45.0,57.0,99999,0.0,invalid,,,-1,S,3.0
S3,14.0,39.0,55.0,43.0,47.0,99999,0.0,invalid,,,-1,S,3.0
S3,15.0,46.0,46.0,47.0,52.0,99999,0.0,invalid,,,-1,S,3.0
S3,16.0,42.0,49.0,50.0,55.0,99999,0.0,invalid,,,-1,S,3.0
S3,17.0,45.0,45.0,56.0,47.0,99999,0.0,invalid,,,-1,S,3.0
S3,18.0,46.0,43.0,45.0,50.0,99999,0.0,invalid,,,-1,S,3.0
S3,19.0,41.0,47.0,50.0,55.0,99999,0.0,invalid,,,-1,S,3.0
S3,20.0,45.0,52.0,49.0,52.0,99999,0.0,invalid,,,-1,S,3.0
S3,21.0,40.0,43.0,47.0,46.0,99999,0.0,invalid,,,-1,S,3.0
S3,22.0,45.0,46.0,44.0,47.0,99999,0.0,invalid,,,-1,S,3.0
S3,23.0,36.0,50.0,42.0,46.0,99999,0.0,invalid,,,-1,S,3.0
S3,24.0,42.0,54.0,49.0,55.0,99999,0.0,invalid,,,-1,S,3.0
S3,25.0,43.0,51.0,44.0,54.0,99999,0.0,invalid,,,-1,S,3.0
S3,26.0,49.0,50.0,52.0,52.0,99999,0.0,invalid,,,-1,S,3.0
S3,27.0,47.0,52.0,44.0,50.0,99999,0.0,invalid,,,-1,S,3.0
S3,28.0,37.0,48.0,40.0,47.0,99999,0.0,invalid,,,-1,S,3.0
S3,29.0,50.0,43.0,50.0,57.0,99999,0.0,invalid,,,-1,S,3.0
S3,30.0,50.0,50.0,46.0,47.0,99999,0.0,invalid,,,-1,S,3.0
S3,31.0,37.0,53.0,49.0,56.0,99999,0.0,invalid,,,-1,S,3.0
S3,32.0,42.0,50.0,43.0,58.0,99999,0.0,invalid,,,-1,S,3.0
S3,33.0,44.0,49.0,46.0,59.0,99999,0.0,invalid,,,-1,S,3.0
S3,34.0,42.0,50.0,50.0,58.0,99999,0.0,invalid,,,-1,S,3.0
S3,35.0,43.0,46.0,45.0,50.0,99999,0.0,invalid,,,-1,S,3.0
S3,36.0,46.0,52.0,50.0,48.0,99999,0.0,invalid,,,-1,S,3.0
S3,37.0,48.0,50.0,49.0,52.0,99999,0.0,invalid,,,-1,S,3.0
S3,38.0,39.0,43.0,50.0,55.0,99999,0.0,invalid,,,-1,S,3.0
S3,39.0,50.0,53.0,46.0,57.0,99999,0.0,invalid,,,-1,S,3.0
S3,40.0,41.0,46.0,48.0,55.0,99999,0.0,invalid,,,-1,S,3.0
S3,41.0,49.0,49.0,40.0,56.0,99999,0.0,invalid,,,-1,S,3.0
S3,42.0,47.0,49.0,43.0,48.0,99999,0.0,invalid,,,-1,S,3.0
S3,43.0,46.0,43.0,41.0,58.0,99999,0.0,invalid,,,-1,S,3.0
S3,44.0,46.0,52.0,51.0,55.0,99999,0.0,invalid,,,-1,S,3.0
S3,45.0,46.0,41.0,46.0,49.0,99999,0.0,invalid,,,-1,S,3.0
S3,46.0,32.0,56.0,40.0,50.0,99999,0.0,invalid,,,-1,S,3.0
S3,47.0,42.0,49.0,44.0,51.0,99999,0.0,invalid,,,-1,S,3.0
S3,48.0,36.0,45.0,38.0,50.0,99999,0.0,invalid,,,-1,S,3.0
S3,49.0,45.0,48.0,47.0,52.0,99999,0.0,invalid,,,-1,S,3.0
S7,0.0,68.0,73.0,62.0,57.0,57,57.0,square4,r,0.92,3,S,7.0
S7,1.0,74.0,67.0,66.0,59.0,66,123.0,square3,i,1.1078,2,S,7.0
S7,2.0,68.0,69.0,65.0,60.0,68,191.0,square1,f,0.9986,0,S,7.0
S7,3.0,74.0,68.0,65.0,63.0,68,259.0,square2,j,0.467,1,S,7.0
S7,4.0,68.0,74.0,67.0,63.0,74,333.0,square2,j,0.3217,1,S,7.0
S7,5.0,68.0,67.0,61.0,57.0,61,394.0,square3,i,0.3281,2,S,7.0
S7,6.0,72.0,64.0,65.0,51.0,51,445.0,square4,r,0.3598,3,S,7.0
S7,7.0,69.0,63.0,69.0,63.0,63,508.0,square2,j,0.9774,1,S,7.0
S7,8.0,71.0,68.0,63.0,54.0,71,579.0,square1,f,0.4616,0,S,7.0
S7,9.0,81.0,66.0,68.0,62.0,81,660.0,square1,f,0.7763,0,S,7.0
S7,10.0,72.0,73.0,68.0,61.0,72,732.0,square1,f,0.4057,0,S,7.0
S7,11.0,72.0,72.0,62.0,58.0,72,804.0,square1,f,0.0947,0,S,7.0
S7,12.0,66.0,66.0,62.0,61.0,66,870.0,square2,j,0.8963,1,S,7.0
S7,13.0,73.0,75.0,75.0,68.0,75,945.0,square2,j,0.0008,1,S,7.0
S7,14.0,71.0,73.0,72.0,66.0,73,1018.0,square2,j,0.4452,1,S,7.0
S7,15.0,75.0,68.0,68.0,65.0,65,1083.0,square4,r,1.0665,3,S,7.0
S7,16.0,67.0,65.0,62.0,56.0,56,1139.0,square4,r,0.5404,3,S,7.0
S7,17.0,72.0,67.0,63.0,64.0,63,1202.0,square3,i,0.0289,2,S,7.0
S7,18.0,73.0,69.0,66.0,65.0,66,1268.0,square3,i,0.4099,2,S,7.0
S7,19.0,75.0,70.0,62.0,58.0,62,1330.0,square3,i,0.2835,2,S,7.0
S7,20.0,76.0,63.0,67.0,62.0,67,1397.0,square3,i,0.176,2,S,7.0
S7,21.0,79.0,76.0,63.0,64.0,79,1476.0,square1,f,0.6327,0,S,7.0
S7,22.0,67.0,72.0,63.0,62.0,67,1543.0,square1,f,1.0581,0,S,7.0
S7,23.0,69.0,71.0,70.0,62.0,71,1614.0,square2,j,0.8249,1,S,7.0
S7,24.0,74.0,67.0,70.0,62.0,67,1681.0,square2,j,0.3848,1,S,7.0
S7,25.0,70.0,67.0,72.0,62.0,67,1748.0,square2,j,0.0595,1,S,7.0
S7,26.0,72.0,62.0,74.0,65.0,72,1820.0,square1,f,0.3131,0,S,7.0
S7,27.0,69.0,70.0,68.0,62.0,69,1889.0,square1,f,0.4608,0,S,7.0
S7,28.0,65.0,66.0,60.0,62.0,65,1954.0,square1,f,0.5268,0,S,7.0
S7,29.0,70.0,64.0,60.0,68.0,70,2024.0,square1,f,0.4272,0,S,7.0
S7,30.0,69.0,69.0,64.0,57.0,69,2093.0,square1,f,0.1916,0,S,7.0
S7,31.0,77.0,67.0,65.0,60.0,65,2158.0,square3,i,0.5173,2,S,7.0
S7,32.0,67.0,75.0,65.0,58.0,67,2225.0,square1,f,0.5078,0,S,7.0
S7,33.0,74.0,66.0,66.0,60.0,74,2299.0,square1,f,0.4878,0,S,7.0
S7,34.0,72.0,72.0,66.0,61.0,72,2371.0,square2,j,0.5099,1,S,7.0
S7,35.0,67.0,68.0,64.0,62.0,67,2438.0,square1,f,0.1081,0,S,7.0
S7,36.0,64.0,63.0,70.0,58.0,63,2501.0,square2,j,0.4414,1,S,7.0
S7,37.0,80.0,72.0,64.0,53.0,72,2573.0,square2,j,0.5081,1,S,7.0
S7,38.0,78.0,69.0,76.0,67.0,78,2651.0,square1,f,0.5018,0,S,7.0
S7,39.0,69.0,66.0,60.0,67.0,69,2720.0,square1,f,0.3535,0,S,7.0
S7,40.0,72.0,71.0,63.0,66.0,72,2792.0,square1,f,0.3315,0,S,7.0
S7,41.0,80.0,73.0,65.0,63.0,80,2872.0,square1,f,0.2938,0,S,7.0
S7,42.0,77.0,60.0,65.0,59.0,60,2932.0,square2,j,0.2528,1,S,7.0
S7,43.0,70.0,72.0,70.0,63.0,72,3004.0,square2,j,0.5318,1,S,7.0
S7,44.0,77.0,70.0,66.0,58.0,70,3074.0,square2,j,0.366,1,S,7.0
S7,45.0,75.0,69.0,73.0,58.0,69,3143.0,square2,j,0.4447,1,S,7.0
S7,46.0,74.0,71.0,63.0,63.0,71,3214.0,square2,j,0.0009,1,S,7.0
S7,47.0,73.0,75.0,71.0,64.0,75,3289.0,square2,j,0.5812,1,S,7.0
S7,48.0,78.0,79.0,64.0,58.0,79,3368.0,square2,j,0.4318,1,S,7.0
S7,49.0,75.0,72.0,66.0,72.0,72,3440.0,square2,j,0.2948,1,S,7.0
S4,0.0,18.0,16.0,34.0,20.0,18,18.0,square1,r,1.1107,0,S,4.0
S4,1.0,33.0,26.0,26.0,23.0,26,44.0,square2,i,0.0514,1,S,4.0
S4,2.0,35.0,15.0,33.0,22.0,33,77.0,square3,f,0.6132,2,S,4.0
S4,3.0,28.0,19.0,27.0,27.0,27,104.0,square4,j,0.4795,3,S,4.0
S4,4.0,27.0,16.0,25.0,28.0,28,132.0,square4,j,0.3644,3,S,4.0
S4,5.0,23.0,22.0,31.0,24.0,31,163.0,square3,f,0.2587,2,S,4.0
S4,6.0,25.0,20.0,34.0,23.0,34,197.0,square3,f,0.2636,2,S,4.0
S4,7.0,21.0,22.0,30.0,21.0,30,227.0,square3,f,0.1802,2,S,4.0
S4,8.0,33.0,24.0,33.0,17.0,33,260.0,square3,f,0.197,2,S,4.0
S4,9.0,24.0,18.0,31.0,28.0,31,291.0,square3,f,0.1945,2,S,4.0
S4,10.0,31.0,26.0,35.0,20.0,26,317.0,square2,i,0.1954,1,S,4.0
S4,11.0,25.0,15.0,31.0,25.0,15,332.0,square2,i,0.2424,1,S,4.0
S4,12.0,24.0,16.0,29.0,22.0,16,348.0,square2,i,0.3368,1,S,4.0
S4,13.0,28.0,23.0,25.0,17.0,28,376.0,square1,r,0.27,0,S,4.0
S4,14.0,22.0,23.0,21.0,23.0,22,398.0,square1,r,0.1306,0,S,4.0
S4,15.0,25.0,19.0,28.0,25.0,25,423.0,square1,r,0.253,0,S,4.0
S4,16.0,26.0,17.0,30.0,21.0,26,449.0,square1,r,0.2974,0,S,4.0
S4,17.0,22.0,21.0,29.0,22.0,22,471.0,square1,r,0.1973,0,S,4.0
S4,18.0,28.0,22.0,32.0,22.0,32,503.0,square3,f,0.6639,2,S,4.0
S4,19.0,26.0,19.0,31.0,26.0,31,534.0,square3,f,0.2158,2,S,4.0
S4,20.0,28.0,18.0,28.0,25.0,28,562.0,square3,f,0.1814,2,S,4.0
S4,21.0,33.0,26.0,21.0,29.0,21,583.0,square3,f,0.1765,2,S,4.0
S4,22.0,31.0,19.0,29.0,20.0,29,612.0,square3,f,0.2119,2,S,4.0
S4,23.0,27.0,21.0,36.0,26.0,36,648.0,square3,f,0.1782,2,S,4.0
S4,24.0,28.0,15.0,32.0,21.0,28,676.0,square1,r,0.1357,0,S,4.0
S4,25.0,27.0,18.0,28.0,25.0,27,703.0,square1,r,0.1001,0,S,4.0
S4,26.0,26.0,20.0,27.0,14.0,26,729.0,square1,r,0.3102,0,S,4.0
S4,27.0,28.0,19.0,36.0,18.0,28,757.0,square1,r,0.1099,0,S,4.0
S4,28.0,28.0,19.0,28.0,23.0,28,785.0,square1,r,0.1313,0,S,4.0
S4,29.0,25.0,22.0,29.0,23.0,29,814.0,square3,f,0.6159,2,S,4.0
S4,30.0,26.0,16.0,30.0,20.0,30,844.0,square3,f,0.1097,2,S,4.0
S4,31.0,23.0,25.0,26.0,30.0,26,870.0,square3,f,0.1541,2,S,4.0
S4,32.0,21.0,26.0,22.0,23.0,22,892.0,square3,f,0.1313,2,S,4.0
S4,33.0,25.0,22.0,24.0,17.0,24,916.0,square3,f,0.5012,2,S,4.0
S4,34.0,30.0,22.0,33.0,24.0,33,949.0,square3,f,0.3161,2,S,4.0
S4,35.0,23.0,21.0,35.0,26.0,35,984.0,square3,f,0.2863,2,S,4.0
S4,36.0,19.0,21.0,33.0,24.0,24,1008.0,square4,j,0.7834,3,S,4.0
S4,37.0,20.0,17.0,26.0,26.0,26,1034.0,square4,j,0.3313,3,S,4.0
S4,38.0,28.0,20.0,28.0,26.0,26,1060.0,square4,j,0.0643,3,S,4.0
S4,39.0,28.0,23.0,40.0,27.0,27,1087.0,square4,j,0.337,3,S,4.0
S4,40.0,25.0,24.0,32.0,22.0,22,1109.0,square4,j,0.0542,3,S,4.0
S4,41.0,23.0,23.0,26.0,17.0,17,1126.0,square4,j,0.4267,3,S,4.0
S4,42.0,26.0,18.0,33.0,22.0,26,1152.0,square1,r,0.4812,0,S,4.0
S4,43.0,22.0,21.0,36.0,25.0,22,1174.0,square1,r,0.0893,0,S,4.0
S4,44.0,21.0,18.0,33.0,14.0,14,1188.0,square4,j,0.5352,3,S,4.0
S4,45.0,29.0,19.0,30.0,29.0,30,1218.0,square3,f,0.6377,2,S,4.0
S4,46.0,21.0,16.0,22.0,23.0,22,1240.0,square3,f,0.3948,2,S,4.0
S4,47.0,22.0,18.0,28.0,22.0,28,1268.0,square3,f,0.3043,2,S,4.0
S4,48.0,33.0,21.0,32.0,26.0,32,1300.0,square3,f,0.0009,2,S,4.0
S4,49.0,23.0,17.0,20.0,21.0,20,1320.0,square3,f,0.0796,2,S,4.0
S2,0.0,62.0,57.0,71.0,74.0,71,71.0,square3,r,1.0295,2,S,2.0
S2,1.0,64.0,59.0,72.0,67.0,72,143.0,square3,r,0.7311,2,S,2.0
S2,2.0,68.0,57.0,75.0,68.0,75,218.0,square3,r,0.3474,2,S,2.0
S2,3.0,69.0,57.0,80.0,70.0,80,298.0,square3,r,0.26,2,S,2.0
S2,4.0,66.0,60.0,74.0,68.0,74,372.0,square3,r,0.2337,2,S,2.0
S2,5.0,63.0,62.0,77.0,72.0,77,449.0,square3,r,0.1345,2,S,2.0
S2,6.0,69.0,61.0,75.0,74.0,74,523.0,square4,i,0.2977,3,S,2.0
S2,7.0,74.0,66.0,79.0,72.0,72,595.0,square4,i,0.2849,3,S,2.0
S2,8.0,81.0,65.0,76.0,72.0,72,667.0,square4,i,0.2845,3,S,2.0
S2,9.0,70.0,66.0,78.0,70.0,70,737.0,square4,i,0.2857,3,S,2.0
S2,10.0,70.0,72.0,70.0,74.0,74,811.0,square4,i,0.1018,3,S,2.0
S2,11.0,64.0,66.0,72.0,67.0,66,877.0,square2,f,0.1173,1,S,2.0
S2,12.0,66.0,57.0,70.0,67.0,57,934.0,square2,f,0.254,1,S,2.0
S2,13.0,68.0,68.0,71.0,73.0,68,1002.0,square2,f,0.2336,1,S,2.0
S2,14.0,70.0,63.0,77.0,71.0,63,1065.0,square2,f,0.3022,1,S,2.0
S2,15.0,64.0,66.0,75.0,66.0,66,1131.0,square2,f,0.5556,1,S,2.0
S2,16.0,67.0,61.0,73.0,70.0,67,1198.0,square1,j,0.4495,0,S,2.0
S2,17.0,65.0,58.0,71.0,75.0,65,1263.0,square1,j,0.2805,0,S,2.0
S2,18.0,72.0,64.0,81.0,61.0,72,1335.0,square1,j,0.2637,0,S,2.0
S2,19.0,60.0,63.0,72.0,65.0,60,1395.0,square1,j,0.271,0,S,2.0
S2,20.0,68.0,56.0,71.0,70.0,71,1466.0,square3,r,0.3002,2,S,2.0
S2,21.0,65.0,65.0,74.0,71.0,74,1540.0,square3,r,0.2419,2,S,2.0
S2,22.0,69.0,62.0,77.0,72.0,77,1617.0,square3,r,0.1089,2,S,2.0
S2,23.0,64.0,71.0,74.0,65.0,74,1691.0,square3,r,0.2592,2,S,2.0
S2,24.0,66.0,62.0,78.0,70.0,78,1769.0,square3,r,0.2672,2,S,2.0
S2,25.0,67.0,69.0,76.0,66.0,76,1845.0,square3,r,0.2021,2,S,2.0
S2,26.0,65.0,63.0,74.0,69.0,74,1919.0,square3,r,0.1095,2,S,2.0
S2,27.0,68.0,64.0,67.0,68.0,68,1987.0,square4,i,0.2256,3,S,2.0
S2,28.0,61.0,52.0,71.0,68.0,68,2055.0,square4,i,0.2428,3,S,2.0
S2,29.0,67.0,64.0,73.0,69.0,69,2124.0,square4,i,0.3659,3,S,2.0
S2,30.0,67.0,53.0,77.0,67.0,77,2201.0,square3,r,0.3424,2,S,2.0
S2,31.0,67.0,69.0,69.0,68.0,69,2270.0,square3,r,0.2031,2,S,2.0
S2,32.0,71.0,63.0,73.0,70.0,73,2343.0,square3,r,0.9591,2,S,2.0
S2,33.0,61.0,65.0,68.0,71.0,68,2411.0,square3,r,0.5919,2,S,2.0
S2,34.0,66.0,55.0,78.0,68.0,78,2489.0,square3,r,0.1834,2,S,2.0
S2,35.0,60.0,57.0,66.0,66.0,66,2555.0,square3,r,0.7103,2,S,2.0
S2,36.0,64.0,63.0,73.0,72.0,73,2628.0,square3,r,0.3207,2,S,2.0
S2,37.0,65.0,62.0,75.0,68.0,75,2703.0,square3,r,0.0526,2,S,2.0
S2,38.0,69.0,57.0,71.0,62.0,71,2774.0,square3,r,0.0614,2,S,2.0
S2,39.0,72.0,66.0,74.0,74.0,74,2848.0,square3,r,0.2699,2,S,2.0
S2,40.0,66.0,63.0,76.0,59.0,76,2924.0,square3,r,0.3662,2,S,2.0
S2,41.0,74.0,64.0,67.0,76.0,67,2991.0,square3,r,0.0182,2,S,2.0
S2,42.0,62.0,67.0,72.0,68.0,72,3063.0,square3,r,0.1668,2,S,2.0
S2,43.0,69.0,63.0,75.0,71.0,75,3138.0,square3,r,0.0605,2,S,2.0
S2,44.0,72.0,60.0,74.0,67.0,74,3212.0,square3,r,0.8424,2,S,2.0
S2,45.0,69.0,63.0,76.0,73.0,76,3288.0,square3,r,0.9954,2,S,2.0
S2,46.0,64.0,71.0,75.0,72.0,71,3359.0,square2,f,0.5399,1,S,2.0
S2,47.0,75.0,62.0,75.0,69.0,62,3421.0,square2,f,0.3269,1,S,2.0
S2,48.0,66.0,65.0,74.0,68.0,65,3486.0,square2,f,0.2581,1,S,2.0
S2,49.0,67.0,64.0,72.0,76.0,72,3558.0,square3,r,0.2927,2,S,2.0
S9,0.0,36.0,36.0,32.0,32.0,32,32.0,square4,r,0.7853,3,S,9.0
S9,1.0,40.0,29.0,36.0,24.0,40,72.0,square1,i,0.0536,0,S,9.0
S9,2.0,31.0,43.0,22.0,29.0,31,103.0,square1,i,0.2067,0,S,9.0
S9,3.0,41.0,33.0,28.0,27.0,27,130.0,square4,r,0.1525,3,S,9.0
S9,4.0,34.0,29.0,32.0,31.0,31,161.0,square4,r,0.2066,3,S,9.0
S9,5.0,41.0,32.0,22.0,29.0,22,183.0,square3,f,0.1781,2,S,9.0
S9,6.0,44.0,30.0,21.0,28.0,21,204.0,square3,f,0.5686,2,S,9.0
S9,7.0,39.0,37.0,26.0,24.0,99999,204.0,invalid,,,-1,S,9.0
S9,8.0,41.0,33.0,23.0,20.0,23,227.0,square3,f,1.3548,2,S,9.0
S9,9.0,30.0,35.0,24.0,27.0,24,251.0,square3,f,0.2006,2,S,9.0
S9,10.0,41.0,29.0,23.0,28.0,29,280.0,square2,j,0.319,1,S,9.0
S9,11.0,37.0,38.0,22.0,33.0,38,318.0,square2,j,0.3424,1,S,9.0
S9,12.0,35.0,31.0,27.0,32.0,31,349.0,square2,j,0.2263,1,S,9.0
S9,13.0,38.0,37.0,30.0,29.0,30,379.0,square3,f,0.3076,2,S,9.0
S9,14.0,36.0,38.0,30.0,37.0,30,409.0,square3,f,0.1223,2,S,9.0
S9,15.0,40.0,29.0,27.0,24.0,24,433.0,square4,r,0.4971,3,S,9.0
S9,16.0,33.0,37.0,29.0,28.0,28,461.0,square4,r,0.3023,3,S,9.0
S9,17.0,41.0,32.0,36.0,31.0,32,493.0,square2,j,1.6454,1,S,9.0
S9,18.0,39.0,26.0,16.0,35.0,39,532.0,square1,i,0.6563,0,S,9.0
S9,19.0,35.0,30.0,23.0,27.0,27,559.0,square4,r,0.1424,3,S,9.0
S9,20.0,39.0,34.0,23.0,29.0,29,588.0,square4,r,0.9276,3,S,9.0
S9,21.0,35.0,37.0,28.0,31.0,31,619.0,square4,r,0.2725,3,S,9.0
S9,22.0,37.0,30.0,23.0,38.0,38,657.0,square4,r,0.2766,3,S,9.0
S9,23.0,37.0,34.0,27.0,34.0,27,684.0,square3,f,0.3762,2,S,9.0
S9,24.0,31.0,34.0,26.0,27.0,31,715.0,square1,i,0.594,0,S,9.0
S9,25.0,38.0,40.0,29.0,24.0,38,753.0,square1,i,0.0711,0,S,9.0
S9,26.0,43.0,31.0,21.0,24.0,43,796.0,square1,i,0.3145,0,S,9.0
S9,27.0,30.0,31.0,23.0,28.0,31,827.0,square2,j,0.3366,1,S,9.0
S9,28.0,44.0,32.0,31.0,32.0,32,859.0,square2,j,0.1938,1,S,9.0
S9,29.0,36.0,38.0,22.0,22.0,22,881.0,square3,f,0.4264,2,S,9.0
S9,30.0,41.0,30.0,26.0,29.0,29,910.0,square4,r,0.4088,3,S,9.0
S9,31.0,39.0,37.0,30.0,32.0,39,949.0,square1,i,0.0592,0,S,9.0
S9,32.0,35.0,39.0,28.0,31.0,35,984.0,square1,i,0.3121,0,S,9.0
S9,33.0,37.0,39.0,29.0,32.0,37,1021.0,square1,i,0.0051,0,S,9.0
S9,34.0,46.0,33.0,21.0,25.0,46,1067.0,square1,i,0.3606,0,S,9.0
S9,35.0,38.0,33.0,28.0,28.0,38,1105.0,square1,i,0.2931,0,S,9.0
S9,36.0,40.0,37.0,21.0,32.0,40,1145.0,square1,i,0.2765,0,S,9.0
S9,37.0,38.0,43.0,23.0,37.0,38,1183.0,square1,i,0.1663,0,S,9.0
S9,38.0,36.0,31.0,29.0,29.0,36,1219.0,square1,i,0.3265,0,S,9.0
S9,39.0,41.0,29.0,26.0,28.0,41,1260.0,square1,i,0.0944,0,S,9.0
S9,40.0,32.0,36.0,26.0,28.0,32,1292.0,square1,i,0.0582,0,S,9.0
S9,41.0,40.0,37.0,35.0,28.0,40,1332.0,square1,i,0.0381,0,S,9.0
S9,42.0,43.0,32.0,26.0,37.0,43,1375.0,square1,i,0.0999,0,S,9.0
S9,43.0,40.0,31.0,23.0,31.0,40,1415.0,square1,i,0.2141,0,S,9.0
S9,44.0,42.0,38.0,24.0,40.0,42,1457.0,square1,i,0.003,0,S,9.0
S9,45.0,36.0,35.0,30.0,33.0,33,1490.0,square4,r,0.3921,3,S,9.0
S9,46.0,38.0,30.0,33.0,26.0,26,1516.0,square4,r,0.2095,3,S,9.0
S9,47.0,39.0,37.0,25.0,26.0,26,1542.0,square4,r,0.2811,3,S,9.0
S9,48.0,36.0,35.0,26.0,27.0,36,1578.0,square1,i,0.3587,0,S,9.0
S9,49.0,40.0,32.0,24.0,28.0,28,1606.0,square4,r,0.2008,3,S,9.0
S11,0.0,49.0,53.0,49.0,45.0,49,49.0,square3,r,0.8515,2,S,11.0
S11,1.0,54.0,56.0,42.0,50.0,42,91.0,square3,r,0.0009,2,S,11.0
S11,2.0,39.0,51.0,39.0,43.0,39,130.0,square3,r,0.3438,2,S,11.0
S11,3.0,53.0,50.0,38.0,43.0,50,180.0,square2,i,0.2069,1,S,11.0
S11,4.0,47.0,54.0,39.0,48.0,54,234.0,square2,i,0.3157,1,S,11.0
S11,5.0,47.0,52.0,40.0,46.0,52,286.0,square2,i,0.3928,1,S,11.0
S11,6.0,47.0,46.0,44.0,54.0,47,333.0,square1,f,0.3262,0,S,11.0
S11,7.0,48.0,51.0,35.0,51.0,48,381.0,square1,f,0.2414,0,S,11.0
S11,8.0,52.0,49.0,36.0,43.0,52,433.0,square1,f,0.3754,0,S,11.0
S11,9.0,47.0,53.0,41.0,55.0,55,488.0,square4,j,0.3445,3,S,11.0
S11,10.0,44.0,48.0,41.0,43.0,43,531.0,square4,j,0.3131,3,S,11.0
S11,11.0,41.0,54.0,38.0,43.0,43,574.0,square4,j,0.3651,3,S,11.0
S11,12.0,45.0,54.0,44.0,45.0,45,619.0,square4,j,0.3421,3,S,11.0
S11,13.0,54.0,52.0,44.0,50.0,50,669.0,square4,j,0.3748,3,S,11.0
S11,14.0,57.0,58.0,36.0,45.0,45,714.0,square4,j,0.3754,3,S,11.0
S11,15.0,48.0,54.0,43.0,49.0,48,762.0,square1,f,0.296,0,S,11.0
S11,16.0,58.0,47.0,42.0,46.0,47,809.0,square2,i,0.313,1,S,11.0
S11,17.0,41.0,61.0,42.0,53.0,41,850.0,square1,f,0.3258,0,S,11.0
S11,18.0,51.0,58.0,33.0,39.0,58,908.0,square2,i,0.3021,1,S,11.0
S11,19.0,48.0,49.0,37.0,42.0,48,956.0,square1,f,0.1003,0,S,11.0
S11,20.0,52.0,52.0,45.0,46.0,52,1008.0,square2,i,0.257,1,S,11.0
S11,21.0,47.0,53.0,44.0,51.0,47,1055.0,square1,f,0.2798,0,S,11.0
S11,22.0,49.0,54.0,37.0,41.0,54,1109.0,square2,i,0.2992,1,S,11.0
S11,23.0,52.0,54.0,41.0,45.0,52,1161.0,square1,f,0.3489,0,S,11.0
S11,24.0,42.0,56.0,41.0,45.0,56,1217.0,square2,i,0.0993,1,S,11.0
S11,25.0,52.0,56.0,42.0,44.0,52,1269.0,square1,f,0.3021,0,S,11.0
S11,26.0,43.0,56.0,41.0,45.0,56,1325.0,square2,i,0.5934,1,S,11.0
S11,27.0,48.0,50.0,40.0,43.0,48,1373.0,square1,f,0.2021,0,S,11.0
S11,28.0,46.0,49.0,38.0,48.0,49,1422.0,square2,i,0.2505,1,S,11.0
S11,29.0,46.0,55.0,40.0,42.0,46,1468.0,square1,f,0.2158,0,S,11.0
S11,30.0,46.0,56.0,43.0,37.0,46,1514.0,square1,f,0.345,0,S,11.0
S11,31.0,42.0,49.0,44.0,42.0,44,1558.0,square3,r,0.3109,2,S,11.0
S11,32.0,51.0,52.0,36.0,40.0,40,1598.0,square4,j,0.3273,3,S,11.0
S11,33.0,44.0,53.0,39.0,43.0,44,1642.0,square1,f,0.2448,0,S,11.0
S11,34.0,52.0,52.0,43.0,49.0,52,1694.0,square2,i,0.5683,1,S,11.0
S11,35.0,53.0,51.0,38.0,45.0,51,1745.0,square2,i,0.4263,1,S,11.0
S11,36.0,50.0,44.0,42.0,48.0,44,1789.0,square2,i,0.3265,1,S,11.0
S11,37.0,49.0,51.0,40.0,48.0,51,1840.0,square2,i,0.2111,1,S,11.0
S11,38.0,47.0,47.0,39.0,38.0,47,1887.0,square2,i,0.8147,1,S,11.0
S11,39.0,51.0,55.0,40.0,42.0,55,1942.0,square2,i,0.151,1,S,11.0
S11,40.0,50.0,52.0,41.0,44.0,52,1994.0,square2,i,0.2319,1,S,11.0
S11,41.0,47.0,50.0,46.0,50.0,50,2044.0,square2,i,0.1594,1,S,11.0
S11,42.0,52.0,48.0,41.0,47.0,48,2092.0,square2,i,0.1635,1,S,11.0
S11,43.0,50.0,56.0,34.0,42.0,56,2148.0,square2,i,0.1275,1,S,11.0
S11,44.0,42.0,48.0,37.0,49.0,48,2196.0,square2,i,0.0175,1,S,11.0
S11,45.0,47.0,47.0,41.0,40.0,47,2243.0,square2,i,0.0654,1,S,11.0
S11,46.0,50.0,56.0,40.0,44.0,56,2299.0,square2,i,0.1331,1,S,11.0
S11,47.0,46.0,48.0,38.0,47.0,48,2347.0,square2,i,0.0249,1,S,11.0
S11,48.0,45.0,54.0,44.0,41.0,54,2401.0,square2,i,0.6791,1,S,11.0
S11,49.0,44.0,53.0,41.0,41.0,53,2454.0,square2,i,0.0855,1,S,11.0
V12,0.0,47.0,30.0,38.0,55.0,30,30.0,square2,r,1.1053,1,V,12.0
V12,1.0,46.0,33.0,39.0,57.0,57,87.0,square4,i,0.0308,3,V,12.0
V12,2.0,51.0,29.0,42.0,52.0,42,129.0,square3,f,0.1993,2,V,12.0
V12,3.0,52.0,30.0,38.0,62.0,52,181.0,square1,j,0.1292,0,V,12.0
V12,4.0,48.0,30.0,39.0,62.0,30,211.0,square2,r,0.0542,1,V,12.0
V12,5.0,55.0,34.0,43.0,61.0,61,272.0,square4,i,0.0329,3,V,12.0
V12,6.0,45.0,35.0,42.0,56.0,42,314.0,square3,f,0.4431,2,V,12.0
V12,7.0,48.0,29.0,35.0,57.0,48,362.0,square1,j,0.0008,0,V,12.0
V12,8.0,46.0,33.0,38.0,59.0,59,421.0,square4,i,0.0439,3,V,12.0
V12,9.0,44.0,31.0,42.0,56.0,56,477.0,square4,i,0.1812,3,V,12.0
V12,10.0,48.0,34.0,45.0,55.0,55,532.0,square4,i,0.2466,3,V,12.0
V12,11.0,45.0,32.0,41.0,55.0,45,577.0,square1,j,0.1802,0,V,12.0
V12,12.0,52.0,26.0,42.0,57.0,57,634.0,square4,i,0.0991,3,V,12.0
V12,13.0,56.0,31.0,41.0,54.0,31,665.0,square2,r,0.1164,1,V,12.0
V12,14.0,44.0,34.0,40.0,64.0,64,729.0,square4,i,0.3921,3,V,12.0
V12,15.0,48.0,32.0,39.0,61.0,61,790.0,square4,i,0.1768,3,V,12.0
V12,16.0,49.0,33.0,37.0,58.0,58,848.0,square4,i,0.5638,3,V,12.0
V12,17.0,45.0,33.0,43.0,57.0,57,905.0,square4,i,0.2803,3,V,12.0
V12,18.0,45.0,28.0,40.0,58.0,58,963.0,square4,i,0.2674,3,V,12.0
V12,19.0,42.0,33.0,43.0,59.0,59,1022.0,square4,i,0.1646,3,V,12.0
V12,20.0,46.0,30.0,38.0,62.0,62,1084.0,square4,i,0.2157,3,V,12.0
V12,21.0,46.0,35.0,40.0,55.0,55,1139.0,square4,i,0.2668,3,V,12.0
V12,22.0,46.0,34.0,36.0,63.0,63,1202.0,square4,i,0.0711,3,V,12.0
V12,23.0,54.0,34.0,42.0,56.0,56,1258.0,square4,i,0.4138,3,V,12.0
V12,24.0,44.0,30.0,41.0,59.0,59,1317.0,square4,i,0.0347,3,V,12.0
V12,25.0,49.0,33.0,37.0,64.0,64,1381.0,square4,i,0.0326,3,V,12.0
V12,26.0,52.0,34.0,39.0,57.0,57,1438.0,square4,i,0.1479,3,V,12.0
V12,27.0,50.0,26.0,37.0,55.0,55,1493.0,square4,i,0.0589,3,V,12.0
V12,28.0,41.0,29.0,46.0,21.0,41,1534.0,square1,j,0.198,0,V,12.0
V12,29.0,41.0,28.0,51.0,20.0,20,1554.0,square4,i,0.1219,3,V,12.0
V12,30.0,32.0,31.0,46.0,22.0,31,1585.0,square2,r,0.0006,1,V,12.0
V12,31.0,38.0,28.0,45.0,22.0,38,1623.0,square1,j,0.6102,0,V,12.0
V12,32.0,35.0,27.0,44.0,16.0,16,1639.0,square4,i,0.1665,3,V,12.0
V12,33.0,39.0,29.0,49.0,21.0,39,1678.0,square1,j,0.4383,0,V,12.0
V12,34.0,39.0,28.0,49.0,15.0,49,1727.0,square3,f,0.2821,2,V,12.0
V12,35.0,36.0,29.0,50.0,17.0,50,1777.0,square3,f,0.1137,2,V,12.0
V12,36.0,41.0,28.0,48.0,12.0,48,1825.0,square3,f,0.1334,2,V,12.0
V12,37.0,34.0,29.0,46.0,25.0,46,1871.0,square3,f,0.0203,2,V,12.0
V12,38.0,38.0,28.0,51.0,19.0,51,1922.0,square3,f,0.7197,2,V,12.0
V12,39.0,39.0,31.0,45.0,13.0,45,1967.0,square3,f,0.0008,2,V,12.0
V12,40.0,35.0,28.0,46.0,26.0,46,2013.0,square3,f,0.1216,2,V,12.0
V12,41.0,38.0,27.0,46.0,20.0,46,2059.0,square3,f,0.0694,2,V,12.0
V12,42.0,40.0,26.0,50.0,23.0,50,2109.0,square3,f,0.793,2,V,12.0
V12,43.0,33.0,30.0,45.0,18.0,45,2154.0,square3,f,0.4709,2,V,12.0
V12,44.0,39.0,31.0,46.0,22.0,39,2193.0,square1,j,0.4711,0,V,12.0
V12,45.0,32.0,26.0,42.0,20.0,26,2219.0,square2,r,0.3156,1,V,12.0
V12,46.0,36.0,29.0,43.0,24.0,43,2262.0,square3,f,0.4342,2,V,12.0
V12,47.0,37.0,30.0,46.0,21.0,46,2308.0,square3,f,0.0286,2,V,12.0
V12,48.0,37.0,27.0,44.0,19.0,44,2352.0,square3,f,0.5684,2,V,12.0
V12,49.0,36.0,33.0,55.0,16.0,55,2407.0,square3,f,0.2139,2,V,12.0
V12,50.0,45.0,28.0,44.0,18.0,44,2451.0,square3,f,0.2153,2,V,12.0
V12,51.0,35.0,32.0,49.0,19.0,49,2500.0,square3,f,0.0763,2,V,12.0
V12,52.0,36.0,56.0,31.0,52.0,31,2531.0,square3,f,0.3045,2,V,12.0
V12,53.0,36.0,57.0,29.0,45.0,29,2560.0,square3,f,0.1684,2,V,12.0
V12,54.0,38.0,61.0,28.0,51.0,38,2598.0,square1,j,0.2538,0,V,12.0
V12,55.0,35.0,60.0,29.0,47.0,35,2633.0,square1,j,0.3204,0,V,12.0
V12,56.0,34.0,62.0,29.0,46.0,34,2667.0,square1,j,0.2185,0,V,12.0
V12,57.0,43.0,57.0,32.0,46.0,57,2724.0,square2,r,0.1968,1,V,12.0
V12,58.0,40.0,59.0,32.0,50.0,59,2783.0,square2,r,0.213,1,V,12.0
V12,59.0,41.0,62.0,33.0,48.0,62,2845.0,square2,r,0.1002,1,V,12.0
V12,60.0,36.0,61.0,32.0,49.0,61,2906.0,square2,r,0.1006,1,V,12.0
V12,61.0,39.0,56.0,32.0,44.0,56,2962.0,square2,r,0.0492,1,V,12.0
V12,62.0,39.0,57.0,30.0,46.0,57,3019.0,square2,r,0.0754,1,V,12.0
V12,63.0,42.0,53.0,29.0,46.0,53,3072.0,square2,r,0.9431,1,V,12.0
V12,64.0,35.0,57.0,32.0,50.0,57,3129.0,square2,r,0.1833,1,V,12.0
V12,65.0,44.0,58.0,32.0,49.0,58,3187.0,square2,r,0.3174,1,V,12.0
V12,66.0,44.0,56.0,29.0,52.0,56,3243.0,square2,r,0.5259,1,V,12.0
V12,67.0,41.0,60.0,30.0,49.0,60,3303.0,square2,r,0.1333,1,V,12.0
V12,68.0,42.0,58.0,32.0,45.0,58,3361.0,square2,r,0.2809,1,V,12.0
V12,69.0,36.0,60.0,33.0,50.0,60,3421.0,square2,r,0.301,1,V,12.0
V12,70.0,36.0,57.0,27.0,46.0,57,3478.0,square2,r,0.7015,1,V,12.0
V12,71.0,41.0,59.0,32.0,48.0,59,3537.0,square2,r,0.2369,1,V,12.0
V12,72.0,34.0,59.0,31.0,49.0,59,3596.0,square2,r,0.2847,1,V,12.0
V12,73.0,71.0,53.0,65.0,49.0,53,3649.0,square2,r,0.3782,1,V,12.0
V12,74.0,69.0,49.0,63.0,45.0,49,3698.0,square2,r,0.0007,1,V,12.0
V12,75.0,72.0,51.0,56.0,46.0,51,3749.0,square2,r,0.0671,1,V,12.0
V12,76.0,72.0,48.0,58.0,43.0,48,3797.0,square2,r,0.0009,1,V,12.0
V12,77.0,74.0,57.0,59.0,44.0,57,3854.0,square2,r,0.6705,1,V,12.0
V12,78.0,69.0,55.0,63.0,50.0,55,3909.0,square2,r,0.0427,1,V,12.0
V12,79.0,73.0,53.0,58.0,43.0,53,3962.0,square2,r,1.0674,1,V,12.0
V12,80.0,71.0,47.0,65.0,40.0,47,4009.0,square2,r,0.0007,1,V,12.0
V12,81.0,66.0,49.0,57.0,40.0,49,4058.0,square2,r,0.7421,1,V,12.0
V12,82.0,71.0,53.0,57.0,48.0,53,4111.0,square2,r,0.55,1,V,12.0
V12,83.0,70.0,50.0,56.0,49.0,50,4161.0,square2,r,0.3093,1,V,12.0
V12,84.0,69.0,45.0,64.0,43.0,45,4206.0,square2,r,0.2192,1,V,12.0
V12,85.0,64.0,48.0,54.0,42.0,48,4254.0,square2,r,0.127,1,V,12.0
V12,86.0,71.0,49.0,63.0,44.0,49,4303.0,square2,r,0.0009,1,V,12.0
V12,87.0,72.0,52.0,55.0,42.0,52,4355.0,square2,r,1.0493,1,V,12.0
V12,88.0,64.0,48.0,59.0,44.0,64,4419.0,square1,j,0.7189,0,V,12.0
V12,89.0,69.0,48.0,62.0,45.0,62,4481.0,square3,f,0.276,2,V,12.0
V12,90.0,68.0,56.0,60.0,42.0,42,4523.0,square4,i,0.4533,3,V,12.0
V12,91.0,69.0,52.0,62.0,45.0,52,4575.0,square2,r,0.0586,1,V,12.0
V12,92.0,65.0,50.0,64.0,47.0,50,4625.0,square2,r,0.2185,1,V,12.0
V12,93.0,68.0,51.0,62.0,43.0,62,4687.0,square3,f,0.3193,2,V,12.0
V12,94.0,68.0,52.0,60.0,38.0,60,4747.0,square3,f,0.125,2,V,12.0
V12,95.0,71.0,52.0,58.0,47.0,58,4805.0,square3,f,0.0754,2,V,12.0
V12,96.0,66.0,49.0,59.0,44.0,59,4864.0,square3,f,0.832,2,V,12.0
V12,97.0,74.0,47.0,54.0,47.0,54,4918.0,square3,f,0.6252,2,V,12.0
V12,98.0,68.0,43.0,64.0,41.0,64,4982.0,square3,f,0.5161,2,V,12.0
V12,99.0,71.0,53.0,62.0,44.0,62,5044.0,square3,f,0.3917,2,V,12.0
V3,0.0,62.0,45.0,70.0,53.0,62,62.0,square1,r,1.1299,0,V,3.0
V3,1.0,63.0,47.0,76.0,60.0,47,109.0,square2,i,0.2415,1,V,3.0
V3,2.0,65.0,54.0,73.0,57.0,57,166.0,square4,f,0.1689,3,V,3.0
V3,3.0,68.0,51.0,71.0,51.0,71,237.0,square3,j,0.1957,2,V,3.0
V3,4.0,61.0,49.0,75.0,53.0,75,312.0,square3,j,0.2742,2,V,3.0
V3,5.0,65.0,47.0,74.0,50.0,74,386.0,square3,j,0.2847,2,V,3.0
V3,6.0,61.0,51.0,72.0,57.0,72,458.0,square3,j,0.1815,2,V,3.0
V3,7.0,67.0,49.0,75.0,55.0,75,533.0,square3,j,0.1735,2,V,3.0
V3,8.0,64.0,48.0,76.0,56.0,76,609.0,square3,j,0.2401,2,V,3.0
V3,9.0,67.0,49.0,71.0,56.0,71,680.0,square3,j,0.2859,2,V,3.0
V3,10.0,65.0,50.0,71.0,56.0,71,751.0,square3,j,0.2504,2,V,3.0
V3,11.0,63.0,43.0,78.0,58.0,78,829.0,square3,j,0.4109,2,V,3.0
V3,12.0,66.0,53.0,73.0,54.0,73,902.0,square3,j,0.1695,2,V,3.0
V3,13.0,64.0,46.0,78.0,51.0,78,980.0,square3,j,0.2002,2,V,3.0
V3,14.0,67.0,51.0,71.0,58.0,71,1051.0,square3,j,0.2754,2,V,3.0
V3,15.0,61.0,50.0,73.0,54.0,73,1124.0,square3,j,0.3238,2,V,3.0
V3,16.0,64.0,52.0,74.0,54.0,74,1198.0,square3,j,0.3252,2,V,3.0
V3,17.0,61.0,48.0,74.0,55.0,74,1272.0,square3,j,0.2025,2,V,3.0
V3,18.0,65.0,50.0,70.0,59.0,70,1342.0,square3,j,0.2749,2,V,3.0
V3,19.0,64.0,52.0,76.0,56.0,56,1398.0,square4,f,0.5916,3,V,3.0
V3,20.0,64.0,50.0,69.0,58.0,69,1467.0,square3,j,0.4234,2,V,3.0
V3,21.0,66.0,50.0,72.0,56.0,72,1539.0,square3,j,0.2223,2,V,3.0
V3,22.0,43.0,48.0,40.0,62.0,43,1582.0,square1,r,0.3707,0,V,3.0
V3,23.0,41.0,51.0,35.0,59.0,51,1633.0,square2,i,0.4143,1,V,3.0
V3,24.0,51.0,51.0,37.0,60.0,37,1670.0,square3,j,0.1768,2,V,3.0
V3,25.0,45.0,53.0,36.0,57.0,53,1723.0,square2,i,0.2056,1,V,3.0
V3,26.0,44.0,51.0,38.0,59.0,59,1782.0,square4,f,0.4429,3,V,3.0
V3,27.0,43.0,51.0,34.0,66.0,66,1848.0,square4,f,0.3065,3,V,3.0
V3,28.0,47.0,51.0,40.0,67.0,67,1915.0,square4,f,0.4213,3,V,3.0
V3,29.0,42.0,55.0,35.0,65.0,65,1980.0,square4,f,0.3957,3,V,3.0
V3,30.0,49.0,54.0,36.0,62.0,62,2042.0,square4,f,0.2173,3,V,3.0
V3,31.0,50.0,53.0,42.0,66.0,66,2108.0,square4,f,0.0619,3,V,3.0
V3,32.0,47.0,53.0,34.0,58.0,58,2166.0,square4,f,0.243,3,V,3.0
V3,33.0,45.0,56.0,34.0,62.0,62,2228.0,square4,f,0.2895,3,V,3.0
V3,34.0,48.0,54.0,38.0,64.0,64,2292.0,square4,f,0.2567,3,V,3.0
V3,35.0,39.0,55.0,42.0,65.0,65,2357.0,square4,f,0.2184,3,V,3.0
V3,36.0,46.0,57.0,41.0,63.0,63,2420.0,square4,f,0.2768,3,V,3.0
V3,37.0,43.0,54.0,41.0,65.0,54,2474.0,square2,i,0.216,1,V,3.0
V3,38.0,47.0,52.0,37.0,63.0,47,2521.0,square1,r,0.2471,0,V,3.0
V3,39.0,47.0,53.0,38.0,55.0,55,2576.0,square4,f,0.3254,3,V,3.0
V3,40.0,41.0,54.0,39.0,64.0,64,2640.0,square4,f,0.2439,3,V,3.0
V3,41.0,48.0,52.0,38.0,64.0,38,2678.0,square3,j,0.3342,2,V,3.0
V3,42.0,45.0,50.0,34.0,63.0,63,2741.0,square4,f,0.1777,3,V,3.0
V3,43.0,44.0,50.0,34.0,62.0,62,2803.0,square4,f,0.0057,3,V,3.0
V3,44.0,47.0,55.0,39.0,65.0,65,2868.0,square4,f,0.3478,3,V,3.0
V3,45.0,45.0,55.0,31.0,63.0,63,2931.0,square4,f,0.2928,3,V,3.0
V3,46.0,42.0,52.0,38.0,64.0,64,2995.0,square4,f,0.242,3,V,3.0
V3,47.0,44.0,53.0,37.0,55.0,55,3050.0,square4,f,0.2369,3,V,3.0
V3,48.0,44.0,49.0,37.0,58.0,49,3099.0,square2,i,0.2932,1,V,3.0
V3,49.0,48.0,58.0,35.0,54.0,48,3147.0,square1,r,0.2102,0,V,3.0
V3,50.0,42.0,28.0,30.0,52.0,30,3177.0,square3,j,0.3456,2,V,3.0
V3,51.0,46.0,29.0,32.0,51.0,51,3228.0,square4,f,0.2421,3,V,3.0
V3,52.0,37.0,20.0,36.0,50.0,50,3278.0,square4,f,0.2888,3,V,3.0
V3,53.0,44.0,22.0,34.0,55.0,55,3333.0,square4,f,0.2605,3,V,3.0
V3,54.0,37.0,27.0,26.0,50.0,50,3383.0,square4,f,0.2729,3,V,3.0
V3,55.0,41.0,21.0,39.0,53.0,53,3436.0,square4,f,0.343,3,V,3.0
V3,56.0,40.0,20.0,38.0,51.0,51,3487.0,square4,f,0.2717,3,V,3.0
V3,57.0,44.0,28.0,31.0,57.0,57,3544.0,square4,f,0.2875,3,V,3.0
V3,58.0,46.0,20.0,28.0,49.0,49,3593.0,square4,f,0.267,3,V,3.0
V3,59.0,44.0,24.0,30.0,55.0,55,3648.0,square4,f,0.2917,3,V,3.0
V3,60.0,42.0,29.0,29.0,51.0,51,3699.0,square4,f,0.4098,3,V,3.0
V3,61.0,41.0,21.0,30.0,46.0,46,3745.0,square4,f,0.2452,3,V,3.0
V3,62.0,41.0,27.0,31.0,49.0,49,3794.0,square4,f,0.2937,3,V,3.0
V3,63.0,42.0,27.0,34.0,51.0,51,3845.0,square4,f,0.2761,3,V,3.0
V3,64.0,41.0,24.0,30.0,47.0,47,3892.0,square4,f,0.2709,3,V,3.0
V3,65.0,36.0,18.0,34.0,48.0,48,3940.0,square4,f,0.1308,3,V,3.0
V3,66.0,39.0,28.0,35.0,45.0,45,3985.0,square4,f,0.202,3,V,3.0
V3,67.0,42.0,21.0,32.0,46.0,46,4031.0,square4,f,0.4811,3,V,3.0
V3,68.0,40.0,24.0,35.0,53.0,53,4084.0,square4,f,0.2758,3,V,3.0
V3,69.0,48.0,23.0,34.0,50.0,50,4134.0,square4,f,0.3891,3,V,3.0
V3,70.0,40.0,27.0,31.0,49.0,49,4183.0,square4,f,0.2332,3,V,3.0
V3,71.0,41.0,23.0,28.0,51.0,51,4234.0,square4,f,0.2593,3,V,3.0
V3,72.0,42.0,25.0,33.0,55.0,42,4276.0,square1,r,0.2602,0,V,3.0
V3,73.0,41.0,24.0,35.0,55.0,24,4300.0,square2,i,0.2928,1,V,3.0
V3,74.0,38.0,26.0,28.0,53.0,53,4353.0,square4,f,0.2098,3,V,3.0
V3,75.0,54.0,39.0,69.0,50.0,69,4422.0,square3,j,0.2937,2,V,3.0
V3,76.0,55.0,42.0,64.0,53.0,64,4486.0,square3,j,0.3413,2,V,3.0
V3,77.0,59.0,37.0,66.0,44.0,66,4552.0,square3,j,0.2941,2,V,3.0
V3,78.0,58.0,38.0,60.0,46.0,60,4612.0,square3,j,0.2422,2,V,3.0
V3,79.0,54.0,35.0,66.0,49.0,66,4678.0,square3,j,0.1607,2,V,3.0
V3,80.0,60.0,36.0,68.0,44.0,68,4746.0,square3,j,0.1932,2,V,3.0
V3,81.0,55.0,38.0,66.0,51.0,66,4812.0,square3,j,0.3274,2,V,3.0
V3,82.0,57.0,47.0,64.0,50.0,64,4876.0,square3,j,0.1817,2,V,3.0
V3,83.0,57.0,37.0,63.0,45.0,63,4939.0,square3,j,0.0836,2,V,3.0
V3,84.0,54.0,40.0,65.0,53.0,65,5004.0,square3,j,0.2208,2,V,3.0
V3,85.0,58.0,41.0,63.0,48.0,63,5067.0,square3,j,0.7483,2,V,3.0
V3,86.0,53.0,38.0,57.0,49.0,57,5124.0,square3,j,0.2742,2,V,3.0
V3,87.0,49.0,42.0,60.0,43.0,60,5184.0,square3,j,0.1146,2,V,3.0
V3,88.0,56.0,35.0,70.0,46.0,70,5254.0,square3,j,0.7811,2,V,3.0
V3,89.0,58.0,39.0,63.0,52.0,63,5317.0,square3,j,0.1441,2,V,3.0
V3,90.0,59.0,43.0,63.0,45.0,63,5380.0,square3,j,0.2184,2,V,3.0
V3,91.0,54.0,37.0,69.0,49.0,69,5449.0,square3,j,0.1752,2,V,3.0
V3,92.0,56.0,41.0,61.0,47.0,61,5510.0,square3,j,0.2596,2,V,3.0
V3,93.0,58.0,35.0,68.0,47.0,68,5578.0,square3,j,0.0428,2,V,3.0
V3,94.0,61.0,37.0,67.0,51.0,67,5645.0,square3,j,1.0948,2,V,3.0
V3,95.0,57.0,32.0,64.0,47.0,64,5709.0,square3,j,0.0632,2,V,3.0
V3,96.0,53.0,38.0,63.0,48.0,63,5772.0,square3,j,0.1432,2,V,3.0
V3,97.0,57.0,44.0,71.0,50.0,71,5843.0,square3,j,0.1256,2,V,3.0
V3,98.0,56.0,39.0,70.0,47.0,70,5913.0,square3,j,0.4607,2,V,3.0
V3,99.0,62.0,40.0,67.0,49.0,67,5980.0,square3,j,0.2099,2,V,3.0
V6,0.0,43.0,59.0,68.0,49.0,59,59.0,square2,r,0.7185,1,V,6.0
V6,1.0,43.0,62.0,71.0,50.0,50,109.0,square4,i,0.715,3,V,6.0
V6,2.0,48.0,61.0,72.0,51.0,72,181.0,square3,f,0.327,2,V,6.0
V6,3.0,46.0,55.0,71.0,51.0,46,227.0,square1,j,0.3779,0,V,6.0
V6,4.0,44.0,61.0,74.0,48.0,74,301.0,square3,f,0.3352,2,V,6.0
V6,5.0,45.0,62.0,70.0,51.0,70,371.0,square3,f,0.2095,2,V,6.0
V6,6.0,42.0,67.0,73.0,46.0,73,444.0,square3,f,0.2133,2,V,6.0
V6,7.0,44.0,63.0,71.0,53.0,71,515.0,square3,f,0.2527,2,V,6.0
V6,8.0,41.0,62.0,73.0,52.0,73,588.0,square3,f,0.2458,2,V,6.0
V6,9.0,46.0,59.0,72.0,54.0,72,660.0,square3,f,0.2205,2,V,6.0
V6,10.0,45.0,59.0,70.0,53.0,70,730.0,square3,f,0.3181,2,V,6.0
V6,11.0,45.0,60.0,70.0,49.0,70,800.0,square3,f,0.2123,2,V,6.0
V6,12.0,45.0,66.0,64.0,48.0,64,864.0,square3,f,0.3283,2,V,6.0
V6,13.0,45.0,61.0,69.0,47.0,69,933.0,square3,f,0.5286,2,V,6.0
V6,14.0,47.0,60.0,71.0,56.0,60,993.0,square2,r,0.6548,1,V,6.0
V6,15.0,46.0,64.0,67.0,52.0,64,1057.0,square2,r,0.2973,1,V,6.0
V6,16.0,50.0,60.0,69.0,54.0,69,1126.0,square3,f,0.2868,2,V,6.0
V6,17.0,43.0,60.0,70.0,53.0,43,1169.0,square1,j,0.3878,0,V,6.0
V6,18.0,46.0,63.0,72.0,55.0,55,1224.0,square4,i,0.2641,3,V,6.0
V6,19.0,46.0,65.0,73.0,51.0,73,1297.0,square3,f,0.0495,2,V,6.0
V6,20.0,44.0,63.0,66.0,51.0,66,1363.0,square3,f,0.3119,2,V,6.0
V6,21.0,43.0,63.0,70.0,49.0,70,1433.0,square3,f,0.1167,2,V,6.0
V6,22.0,45.0,63.0,71.0,50.0,71,1504.0,square3,f,0.2833,2,V,6.0
V6,23.0,45.0,38.0,28.0,60.0,28,1532.0,square3,f,0.1307,2,V,6.0
V6,24.0,46.0,33.0,33.0,53.0,33,1565.0,square2,r,0.0012,1,V,6.0
V6,25.0,45.0,36.0,32.0,63.0,63,1628.0,square4,i,0.417,3,V,6.0
V6,26.0,52.0,37.0,28.0,57.0,52,1680.0,square1,j,0.2672,0,V,6.0
V6,27.0,45.0,33.0,30.0,62.0,62,1742.0,square4,i,0.1618,3,V,6.0
V6,28.0,43.0,37.0,24.0,51.0,51,1793.0,square4,i,0.2812,3,V,6.0
V6,29.0,48.0,39.0,34.0,61.0,48,1841.0,square1,j,0.1785,0,V,6.0
V6,30.0,48.0,44.0,35.0,59.0,59,1900.0,square4,i,0.1672,3,V,6.0
V6,31.0,50.0,39.0,34.0,53.0,53,1953.0,square4,i,0.2471,3,V,6.0
V6,32.0,44.0,33.0,33.0,54.0,33,1986.0,square3,f,0.2535,2,V,6.0
V6,33.0,48.0,37.0,30.0,56.0,56,2042.0,square4,i,0.0007,3,V,6.0
V6,34.0,52.0,37.0,27.0,59.0,59,2101.0,square4,i,0.0854,3,V,6.0
V6,35.0,47.0,32.0,29.0,59.0,59,2160.0,square4,i,0.0629,3,V,6.0
V6,36.0,45.0,37.0,27.0,56.0,56,2216.0,square4,i,0.1876,3,V,6.0
V6,37.0,39.0,37.0,31.0,57.0,57,2273.0,square4,i,1.0138,3,V,6.0
V6,38.0,50.0,38.0,29.0,56.0,56,2329.0,square4,i,0.2863,3,V,6.0
V6,39.0,48.0,37.0,27.0,57.0,57,2386.0,square4,i,0.4865,3,V,6.0
V6,40.0,53.0,37.0,29.0,57.0,57,2443.0,square4,i,0.2459,3,V,6.0
V6,41.0,41.0,34.0,33.0,58.0,58,2501.0,square4,i,0.1158,3,V,6.0
V6,42.0,50.0,37.0,31.0,57.0,50,2551.0,square1,j,0.4279,0,V,6.0
V6,43.0,48.0,34.0,30.0,58.0,34,2585.0,square2,r,0.1818,1,V,6.0
V6,44.0,44.0,37.0,33.0,60.0,33,2618.0,square3,f,0.0302,2,V,6.0
V6,45.0,44.0,32.0,33.0,55.0,44,2662.0,square1,j,0.2829,0,V,6.0
V6,46.0,44.0,36.0,33.0,59.0,59,2721.0,square4,i,0.0927,3,V,6.0
V6,47.0,42.0,34.0,29.0,52.0,52,2773.0,square4,i,0.282,3,V,6.0
V6,48.0,46.0,41.0,28.0,60.0,60,2833.0,square4,i,0.6537,3,V,6.0
V6,49.0,46.0,40.0,27.0,55.0,55,2888.0,square4,i,0.3159,3,V,6.0
V6,50.0,46.0,41.0,32.0,55.0,55,2943.0,square4,i,0.4,3,V,6.0
V6,51.0,41.0,39.0,30.0,55.0,55,2998.0,square4,i,0.487,3,V,6.0
V6,52.0,47.0,37.0,31.0,55.0,55,3053.0,square4,i,0.3205,3,V,6.0
V6,53.0,57.0,36.0,30.0,58.0,57,3110.0,square1,j,0.3589,0,V,6.0
V6,54.0,42.0,38.0,28.0,50.0,42,3152.0,square1,j,0.3204,0,V,6.0
V6,55.0,56.0,42.0,67.0,46.0,67,3219.0,square3,f,0.0446,2,V,6.0
V6,56.0,54.0,37.0,68.0,46.0,68,3287.0,square3,f,0.2045,2,V,6.0
V6,57.0,57.0,40.0,64.0,52.0,64,3351.0,square3,f,0.1375,2,V,6.0
V6,58.0,53.0,45.0,68.0,45.0,68,3419.0,square3,f,0.714,2,V,6.0
V6,59.0,59.0,41.0,69.0,49.0,69,3488.0,square3,f,0.3958,2,V,6.0
V6,60.0,62.0,41.0,71.0,51.0,71,3559.0,square3,f,0.2656,2,V,6.0
V6,61.0,58.0,50.0,72.0,51.0,72,3631.0,square3,f,0.1259,2,V,6.0
V6,62.0,61.0,43.0,65.0,47.0,65,3696.0,square3,f,0.0369,2,V,6.0
V6,63.0,55.0,40.0,67.0,51.0,67,3763.0,square3,f,0.0832,2,V,6.0
V6,64.0,56.0,43.0,67.0,47.0,67,3830.0,square3,f,0.1472,2,V,6.0
V6,65.0,62.0,46.0,67.0,48.0,67,3897.0,square3,f,0.001,2,V,6.0
V6,66.0,55.0,44.0,67.0,48.0,67,3964.0,square3,f,0.1836,2,V,6.0
V6,67.0,61.0,46.0,70.0,49.0,70,4034.0,square3,f,0.0626,2,V,6.0
V6,68.0,63.0,41.0,72.0,46.0,72,4106.0,square3,f,0.0655,2,V,6.0
V6,69.0,59.0,41.0,68.0,48.0,68,4174.0,square3,f,1.0507,2,V,6.0
V6,70.0,59.0,37.0,70.0,45.0,37,4211.0,square2,r,0.2828,1,V,6.0
V6,71.0,83.0,64.0,56.0,70.0,56,4267.0,square3,f,0.0155,2,V,6.0
V6,72.0,82.0,59.0,53.0,75.0,53,4320.0,square3,f,0.1666,2,V,6.0
V6,73.0,85.0,67.0,58.0,73.0,73,4393.0,square4,i,0.2333,3,V,6.0
V6,74.0,79.0,67.0,61.0,73.0,73,4466.0,square4,i,0.2412,3,V,6.0
V6,75.0,84.0,62.0,53.0,69.0,69,4535.0,square4,i,0.1264,3,V,6.0
V6,76.0,81.0,60.0,55.0,76.0,76,4611.0,square4,i,0.4256,3,V,6.0
V6,77.0,84.0,61.0,60.0,72.0,72,4683.0,square4,i,0.015,3,V,6.0
V6,78.0,90.0,61.0,54.0,74.0,74,4757.0,square4,i,0.59,3,V,6.0
V6,79.0,80.0,64.0,51.0,75.0,75,4832.0,square4,i,0.4557,3,V,6.0
V6,80.0,85.0,62.0,56.0,78.0,78,4910.0,square4,i,0.709,3,V,6.0
V6,81.0,86.0,65.0,58.0,69.0,69,4979.0,square4,i,0.243,3,V,6.0
V6,82.0,83.0,62.0,58.0,77.0,77,5056.0,square4,i,0.5674,3,V,6.0
V6,83.0,87.0,61.0,59.0,70.0,70,5126.0,square4,i,0.6103,3,V,6.0
V6,84.0,89.0,65.0,54.0,78.0,78,5204.0,square4,i,0.2017,3,V,6.0
V6,85.0,78.0,63.0,55.0,75.0,75,5279.0,square4,i,0.4595,3,V,6.0
V6,86.0,87.0,67.0,52.0,75.0,75,5354.0,square4,i,0.3023,3,V,6.0
V6,87.0,86.0,62.0,60.0,75.0,75,5429.0,square4,i,0.0182,3,V,6.0
V6,88.0,79.0,67.0,56.0,76.0,56,5485.0,square3,f,0.0163,2,V,6.0
V6,89.0,83.0,61.0,57.0,75.0,75,5560.0,square4,i,0.4828,3,V,6.0
V6,90.0,83.0,67.0,51.0,76.0,76,5636.0,square4,i,0.1727,3,V,6.0
V6,91.0,83.0,63.0,55.0,69.0,69,5705.0,square4,i,0.47,3,V,6.0
V6,92.0,89.0,56.0,53.0,68.0,53,5758.0,square3,f,0.5415,2,V,6.0
V6,93.0,84.0,61.0,59.0,74.0,74,5832.0,square4,i,0.0594,3,V,6.0
V6,94.0,77.0,58.0,58.0,76.0,76,5908.0,square4,i,0.2661,3,V,6.0
V6,95.0,82.0,60.0,53.0,74.0,74,5982.0,square4,i,0.1183,3,V,6.0
V6,96.0,87.0,61.0,56.0,71.0,71,6053.0,square4,i,0.0086,3,V,6.0
V6,97.0,83.0,66.0,55.0,75.0,75,6128.0,square4,i,0.326,3,V,6.0
V6,98.0,81.0,63.0,55.0,76.0,76,6204.0,square4,i,0.2997,3,V,6.0
V6,99.0,92.0,63.0,61.0,78.0,78,6282.0,square4,i,0.1595,3,V,6.0
