block,Trial,square1,square2,square3,square4,currPoints,totalPoints,square,choiceKey.keys,choiceKey.rt,armNum,blockType,blockNum
prac,0.0,100.0,0.0,0.0,0.0,0,0.0,square2,,,1,p,0.0
prac,1.0,100.0,0.0,0.0,0.0,100,100.0,square1,,,0,p,0.0
prac,2.0,100.0,0.0,0.0,0.0,0,100.0,square3,,,2,p,0.0
prac,3.0,100.0,0.0,0.0,0.0,0,100.0,square4,,,3,p,0.0
prac,4.0,100.0,0.0,0.0,0.0,100,200.0,square1,,,0,p,0.0
prac,5.0,100.0,0.0,0.0,0.0,100,300.0,square1,,,0,p,0.0
prac,6.0,100.0,0.0,0.0,0.0,100,400.0,square1,,,0,p,0.0
prac,7.0,100.0,0.0,0.0,0.0,100,500.0,square1,,,0,p,0.0
prac,8.0,100.0,0.0,0.0,0.0,100,600.0,square1,,,0,p,0.0
prac,9.0,100.0,0.0,0.0,0.0,100,700.0,square1,,,0,p,0.0
V5,0.0,46.0,21.0,37.0,28.0,46,46.0,square1,r,0.7864,0,V,5.0
V5,1.0,43.0,27.0,36.0,31.0,27,73.0,square2,i,0.2045,1,V,5.0
V5,2.0,50.0,18.0,43.0,32.0,43,116.0,square3,j,0.0349,2,V,5.0
V5,3.0,53.0,23.0,36.0,34.0,34,150.0,square4,f,0.521,3,V,5.0
V5,4.0,52.0,19.0,38.0,34.0,52,202.0,square1,r,0.0509,0,V,5.0
V5,5.0,50.0,22.0,41.0,29.0,50,252.0,square1,r,0.3312,0,V,5.0
V5,6.0,52.0,19.0,40.0,33.0,52,304.0,square1,r,0.1618,0,V,5.0
V5,7.0,48.0,24.0,36.0,27.0,48,352.0,square1,r,0.2198,0,V,5.0
V5,8.0,50.0,24.0,35.0,33.0,24,376.0,square2,i,0.2431,1,V,5.0
V5,9.0,48.0,25.0,39.0,34.0,39,415.0,square3,j,0.0818,2,V,5.0
V5,10.0,52.0,19.0,32.0,34.0,34,449.0,square4,f,0.1461,3,V,5.0
V5,11.0,48.0,22.0,32.0,32.0,48,497.0,square1,r,0.3913,0,V,5.0
V5,12.0,47.0,17.0,43.0,29.0,47,544.0,square1,r,0.2352,0,V,5.0
V5,13.0,46.0,21.0,42.0,29.0,46,590.0,square1,r,0.0416,0,V,5.0
V5,14.0,47.0,28.0,42.0,28.0,47,637.0,square1,r,0.0775,0,V,5.0
V5,15.0,50.0,29.0,38.0,36.0,50,687.0,square1,r,0.0456,0,V,5.0
V5,16.0,49.0,24.0,36.0,34.0,49,736.0,square1,r,0.2949,0,V,5.0
V5,17.0,50.0,20.0,38.0,35.0,50,786.0,square1,r,0.2494,0,V,5.0
V5,18.0,49.0,22.0,46.0,29.0,22,808.0,square2,i,0.2871,1,V,5.0
V5,19.0,46.0,23.0,40.0,31.0,40,848.0,square3,j,0.2875,2,V,5.0
V5,20.0,51.0,22.0,41.0,28.0,28,876.0,square4,f,0.3449,3,V,5.0
V5,21.0,51.0,26.0,36.0,31.0,51,927.0,square1,r,0.326,0,V,5.0
V5,22.0,47.0,18.0,41.0,28.0,18,945.0,square2,i,0.2823,1,V,5.0
V5,23.0,52.0,20.0,36.0,29.0,36,981.0,square3,j,0.2531,2,V,5.0
V5,24.0,51.0,21.0,41.0,34.0,34,1015.0,square4,f,0.3724,3,V,5.0
V5,25.0,50.0,20.0,41.0,27.0,50,1065.0,square1,r,0.2705,0,V,5.0
V5,26.0,49.0,29.0,37.0,28.0,49,1114.0,square1,r,0.5553,0,V,5.0
V5,27.0,10.0,13.0,42.0,32.0,10,1124.0,square1,r,0.2847,0,V,5.0
V5,28.0,9.0,19.0,40.0,27.0,19,1143.0,square2,i,0.2244,1,V,5.0
V5,29.0,17.0,17.0,38.0,29.0,38,1181.0,square3,j,0.2816,2,V,5.0
V5,30.0,8.0,18.0,36.0,29.0,29,1210.0,square4,f,0.4083,3,V,5.0
V5,31.0,16.0,24.0,34.0,29.0,34,1244.0,square3,j,0.2523,2,V,5.0
V5,32.0,9.0,17.0,35.0,31.0,35,1279.0,square3,j,0.2828,2,V,5.0
V5,33.0,11.0,19.0,36.0,28.0,36,1315.0,square3,j,0.2421,2,V,5.0
V5,34.0,10.0,19.0,38.0,28.0,38,1353.0,square3,j,0.5596,2,V,5.0
V5,35.0,5.0,23.0,40.0,34.0,34,1387.0,square4,f,0.3634,3,V,5.0
V5,36.0,17.0,20.0,36.0,31.0,31,1418.0,square4,f,0.4424,3,V,5.0
V5,37.0,12.0,13.0,36.0,30.0,12,1430.0,square1,r,0.1841,0,V,5.0
V5,38.0,14.0,24.0,35.0,27.0,24,1454.0,square2,i,0.2158,1,V,5.0
V5,39.0,13.0,20.0,39.0,32.0,39,1493.0,square3,j,0.2655,2,V,5.0
V5,40.0,9.0,15.0,37.0,24.0,24,1517.0,square4,f,0.237,3,V,5.0
V5,41.0,9.0,14.0,38.0,31.0,38,1555.0,square3,j,0.173,2,V,5.0
V5,42.0,14.0,17.0,43.0,31.0,43,1598.0,square3,j,0.0028,2,V,5.0
V5,43.0,10.0,18.0,39.0,23.0,39,1637.0,square3,j,0.4039,2,V,5.0
V5,44.0,10.0,20.0,33.0,32.0,33,1670.0,square3,j,0.4702,2,V,5.0
V5,45.0,16.0,17.0,37.0,29.0,37,1707.0,square3,j,0.2964,2,V,5.0
V5,46.0,9.0,22.0,37.0,25.0,37,1744.0,square3,j,0.4239,2,V,5.0
V5,47.0,10.0,22.0,35.0,26.0,35,1779.0,square3,j,0.2569,2,V,5.0
V5,48.0,11.0,16.0,39.0,23.0,39,1818.0,square3,j,0.2139,2,V,5.0
V5,49.0,13.0,16.0,33.0,27.0,33,1851.0,square3,j,0.1408,2,V,5.0
V5,50.0,12.0,16.0,39.0,24.0,39,1890.0,square3,j,0.3616,2,V,5.0
V5,51.0,10.0,21.0,43.0,28.0,99999,1890.0,invalid,,,-1,V,5.0
V5,52.0,8.0,15.0,36.0,28.0,28,1918.0,square4,f,0.552,3,V,5.0
V5,53.0,38.0,20.0,31.0,54.0,38,1956.0,square1,r,0.2736,0,V,5.0
V5,54.0,39.0,20.0,35.0,51.0,20,1976.0,square2,i,0.2389,1,V,5.0
V5,55.0,41.0,21.0,27.0,50.0,27,2003.0,square3,j,0.1408,2,V,5.0
V5,56.0,39.0,23.0,28.0,49.0,39,2042.0,square1,r,0.0763,0,V,5.0
V5,57.0,36.0,28.0,29.0,59.0,36,2078.0,square1,r,0.286,0,V,5.0
V5,58.0,38.0,22.0,28.0,49.0,38,2116.0,square1,r,0.3545,0,V,5.0
V5,59.0,44.0,23.0,30.0,51.0,44,2160.0,square1,r,0.3638,0,V,5.0
V5,60.0,43.0,21.0,31.0,48.0,43,2203.0,square1,r,0.1483,0,V,5.0
V5,61.0,39.0,24.0,35.0,50.0,39,2242.0,square1,r,0.0249,0,V,5.0
V5,62.0,38.0,25.0,31.0,52.0,38,2280.0,square1,r,0.2389,0,V,5.0
V5,63.0,41.0,14.0,31.0,52.0,41,2321.0,square1,r,0.2201,0,V,5.0
V5,64.0,43.0,23.0,30.0,51.0,43,2364.0,square1,r,0.1379,0,V,5.0
V5,65.0,41.0,23.0,35.0,52.0,41,2405.0,square1,r,0.0018,0,V,5.0
V5,66.0,41.0,17.0,33.0,47.0,41,2446.0,square1,r,0.2799,0,V,5.0
V5,67.0,44.0,23.0,32.0,49.0,44,2490.0,square1,r,0.2714,0,V,5.0
V5,68.0,44.0,24.0,31.0,44.0,24,2514.0,square2,i,0.2035,1,V,5.0
V5,69.0,43.0,28.0,27.0,48.0,27,2541.0,square3,j,0.2017,2,V,5.0
V5,70.0,38.0,22.0,26.0,50.0,50,2591.0,square4,f,0.2501,3,V,5.0
V5,71.0,41.0,29.0,26.0,53.0,53,2644.0,square4,f,0.3197,3,V,5.0
V5,72.0,40.0,20.0,28.0,51.0,51,2695.0,square4,f,0.3407,3,V,5.0
V5,73.0,59.0,44.0,51.0,35.0,35,2730.0,square4,f,0.2294,3,V,5.0
V5,74.0,60.0,38.0,55.0,43.0,60,2790.0,square1,r,0.251,0,V,5.0
V5,75.0,63.0,45.0,50.0,37.0,63,2853.0,square1,r,0.2925,0,V,5.0
V5,76.0,62.0,42.0,50.0,37.0,62,2915.0,square1,r,0.2585,0,V,5.0
V5,77.0,57.0,37.0,52.0,35.0,57,2972.0,square1,r,0.3515,0,V,5.0
V5,78.0,66.0,45.0,54.0,37.0,66,3038.0,square1,r,0.2872,0,V,5.0
V5,79.0,64.0,37.0,48.0,35.0,64,3102.0,square1,r,0.2704,0,V,5.0
V5,80.0,63.0,40.0,56.0,38.0,63,3165.0,square1,r,0.7093,0,V,5.0
V5,81.0,62.0,41.0,54.0,32.0,41,3206.0,square2,i,0.1689,1,V,5.0
V5,82.0,58.0,41.0,59.0,39.0,59,3265.0,square3,j,0.3002,2,V,5.0
V5,83.0,66.0,46.0,54.0,35.0,35,3300.0,square4,f,0.4596,3,V,5.0
V5,84.0,67.0,44.0,52.0,33.0,67,3367.0,square1,r,0.2554,0,V,5.0
V5,85.0,67.0,45.0,46.0,36.0,67,3434.0,square1,r,0.225,0,V,5.0
V5,86.0,65.0,44.0,51.0,38.0,65,3499.0,square1,r,0.2512,0,V,5.0
V5,87.0,64.0,49.0,48.0,35.0,64,3563.0,square1,r,0.423,0,V,5.0
V5,88.0,68.0,47.0,56.0,36.0,68,3631.0,square1,r,0.3602,0,V,5.0
V5,89.0,60.0,42.0,57.0,32.0,60,3691.0,square1,r,0.364,0,V,5.0
V5,90.0,59.0,43.0,53.0,34.0,59,3750.0,square1,r,0.3624,0,V,5.0
V5,91.0,64.0,43.0,51.0,34.0,64,3814.0,square1,r,0.3124,0,V,5.0
V5,92.0,65.0,41.0,57.0,38.0,65,3879.0,square1,r,0.3083,0,V,5.0
V5,93.0,59.0,48.0,54.0,40.0,59,3938.0,square1,r,0.2971,0,V,5.0
V5,94.0,66.0,44.0,53.0,43.0,66,4004.0,square1,r,0.2382,0,V,5.0
V5,95.0,63.0,43.0,50.0,40.0,63,4067.0,square1,r,0.1985,0,V,5.0
V5,96.0,62.0,44.0,50.0,33.0,44,4111.0,square2,i,0.1629,1,V,5.0
V5,97.0,64.0,49.0,55.0,37.0,55,4166.0,square3,j,0.1635,2,V,5.0
V5,98.0,65.0,44.0,53.0,36.0,36,4202.0,square4,f,0.3063,3,V,5.0
V5,99.0,65.0,42.0,55.0,35.0,65,4267.0,square1,r,0.2219,0,V,5.0
V7,0.0,86.0,61.0,78.0,68.0,78,78.0,square3,r,1.7401,2,V,7.0
V7,1.0,95.0,62.0,79.0,70.0,70,148.0,square4,i,0.1364,3,V,7.0
V7,2.0,89.0,67.0,81.0,77.0,67,215.0,square2,j,0.0101,1,V,7.0
V7,3.0,90.0,56.0,85.0,72.0,90,305.0,square1,f,0.1052,0,V,7.0
V7,4.0,91.0,65.0,77.0,71.0,91,396.0,square1,f,0.2116,0,V,7.0
V7,5.0,91.0,58.0,84.0,72.0,91,487.0,square1,f,0.2412,0,V,7.0
V7,6.0,94.0,65.0,87.0,72.0,94,581.0,square1,f,0.2315,0,V,7.0
V7,7.0,89.0,67.0,79.0,67.0,79,660.0,square3,r,0.1396,2,V,7.0
V7,8.0,91.0,65.0,84.0,68.0,68,728.0,square4,i,0.3158,3,V,7.0
V7,9.0,92.0,60.0,87.0,69.0,60,788.0,square2,j,0.0955,1,V,7.0
V7,10.0,90.0,67.0,81.0,76.0,90,878.0,square1,f,0.2435,0,V,7.0
V7,11.0,86.0,67.0,83.0,73.0,86,964.0,square1,f,0.0018,0,V,7.0
V7,12.0,90.0,62.0,80.0,72.0,90,1054.0,square1,f,0.2636,0,V,7.0
V7,13.0,84.0,60.0,88.0,71.0,84,1138.0,square1,f,0.3149,0,V,7.0
V7,14.0,95.0,64.0,80.0,70.0,95,1233.0,square1,f,0.3137,0,V,7.0
V7,15.0,86.0,60.0,81.0,70.0,86,1319.0,square1,f,0.2204,0,V,7.0
V7,16.0,85.0,65.0,77.0,69.0,85,1404.0,square1,f,0.0982,0,V,7.0
V7,17.0,91.0,65.0,81.0,70.0,81,1485.0,square3,r,0.1837,2,V,7.0
V7,18.0,95.0,61.0,81.0,76.0,76,1561.0,square4,i,0.2767,3,V,7.0
V7,19.0,90.0,58.0,79.0,72.0,58,1619.0,square2,j,0.1188,1,V,7.0
V7,20.0,94.0,68.0,80.0,79.0,94,1713.0,square1,f,0.1716,0,V,7.0
V7,21.0,92.0,66.0,82.0,70.0,92,1805.0,square1,f,0.2155,0,V,7.0
V7,22.0,92.0,64.0,83.0,72.0,92,1897.0,square1,f,0.1618,0,V,7.0
V7,23.0,91.0,68.0,82.0,73.0,91,1988.0,square1,f,0.2557,0,V,7.0
V7,24.0,87.0,71.0,82.0,72.0,82,2070.0,square3,r,0.2596,2,V,7.0
V7,25.0,91.0,68.0,90.0,74.0,91,2161.0,square1,f,0.2634,0,V,7.0
V7,26.0,89.0,65.0,83.0,72.0,72,2233.0,square4,i,0.2101,3,V,7.0
V7,27.0,91.0,61.0,81.0,73.0,91,2324.0,square1,f,0.0832,0,V,7.0
V7,28.0,90.0,66.0,81.0,72.0,66,2390.0,square2,j,0.2252,1,V,7.0
V7,29.0,89.0,67.0,77.0,71.0,89,2479.0,square1,f,0.181,0,V,7.0
V7,30.0,95.0,68.0,84.0,71.0,95,2574.0,square1,f,0.2355,0,V,7.0
V7,31.0,95.0,61.0,81.0,70.0,95,2669.0,square1,f,0.3952,0,V,7.0
V7,32.0,89.0,65.0,82.0,75.0,89,2758.0,square1,f,0.2624,0,V,7.0
V7,33.0,77.0,50.0,80.0,61.0,77,2835.0,square1,f,0.2158,0,V,7.0
V7,34.0,76.0,54.0,78.0,61.0,76,2911.0,square1,f,0.0782,0,V,7.0
V7,35.0,71.0,51.0,80.0,64.0,80,2991.0,square3,r,0.226,2,V,7.0
V7,36.0,75.0,51.0,80.0,62.0,80,3071.0,square3,r,0.2508,2,V,7.0
V7,37.0,73.0,58.0,86.0,63.0,86,3157.0,square3,r,0.2082,2,V,7.0
V7,38.0,73.0,50.0,86.0,61.0,73,3230.0,square1,f,0.2836,0,V,7.0
V7,39.0,67.0,53.0,78.0,61.0,78,3308.0,square3,r,0.0415,2,V,7.0
V7,40.0,71.0,53.0,84.0,58.0,58,3366.0,square4,i,0.1789,3,V,7.0
V7,41.0,75.0,51.0,83.0,63.0,51,3417.0,square2,j,0.3355,1,V,7.0
V7,42.0,69.0,48.0,87.0,63.0,69,3486.0,square1,f,0.3036,0,V,7.0
V7,43.0,70.0,58.0,81.0,60.0,81,3567.0,square3,r,0.2494,2,V,7.0
V7,44.0,68.0,56.0,76.0,63.0,76,3643.0,square3,r,0.0341,2,V,7.0
V7,45.0,74.0,59.0,76.0,56.0,76,3719.0,square3,r,0.5288,2,V,7.0
V7,46.0,72.0,54.0,77.0,61.0,77,3796.0,square3,r,0.2837,2,V,7.0
V7,47.0,69.0,47.0,81.0,62.0,81,3877.0,square3,r,0.1699,2,V,7.0
V7,48.0,75.0,52.0,81.0,57.0,81,3958.0,square3,r,0.0174,2,V,7.0
V7,49.0,74.0,55.0,78.0,60.0,78,4036.0,square3,r,0.2111,2,V,7.0
V7,50.0,71.0,51.0,80.0,61.0,80,4116.0,square3,r,0.0247,2,V,7.0
V7,51.0,75.0,55.0,85.0,62.0,85,4201.0,square3,r,0.0013,2,V,7.0
V7,52.0,75.0,59.0,76.0,59.0,76,4277.0,square3,r,0.0666,2,V,7.0
V7,53.0,72.0,53.0,84.0,66.0,84,4361.0,square3,r,0.0722,2,V,7.0
V7,54.0,69.0,51.0,81.0,60.0,81,4442.0,square3,r,0.7502,2,V,7.0
V7,55.0,74.0,56.0,75.0,54.0,75,4517.0,square3,r,0.1951,2,V,7.0
V7,56.0,76.0,51.0,83.0,58.0,58,4575.0,square4,i,0.4061,3,V,7.0
V7,57.0,71.0,53.0,80.0,64.0,53,4628.0,square2,j,0.4531,1,V,7.0
V7,58.0,81.0,56.0,79.0,61.0,81,4709.0,square1,f,0.2987,0,V,7.0
V7,59.0,71.0,55.0,83.0,59.0,71,4780.0,square1,f,0.2402,0,V,7.0
V7,60.0,73.0,53.0,83.0,64.0,83,4863.0,square3,r,0.2794,2,V,7.0
V7,61.0,70.0,53.0,77.0,63.0,77,4940.0,square3,r,0.065,2,V,7.0
V7,62.0,71.0,54.0,76.0,61.0,71,5011.0,square1,f,0.1926,0,V,7.0
V7,63.0,68.0,45.0,79.0,65.0,68,5079.0,square1,f,0.1893,0,V,7.0
V7,64.0,65.0,55.0,79.0,59.0,79,5158.0,square3,r,0.0252,2,V,7.0
V7,65.0,74.0,54.0,81.0,61.0,81,5239.0,square3,r,0.3436,2,V,7.0
V7,66.0,70.0,56.0,81.0,63.0,81,5320.0,square3,r,0.3108,2,V,7.0
V7,67.0,70.0,85.0,64.0,92.0,64,5384.0,square3,r,0.0687,2,V,7.0
V7,68.0,73.0,85.0,68.0,92.0,92,5476.0,square4,i,0.2621,3,V,7.0
V7,69.0,75.0,83.0,70.0,91.0,91,5567.0,square4,i,0.1291,3,V,7.0
V7,70.0,75.0,85.0,69.0,91.0,91,5658.0,square4,i,0.2413,3,V,7.0
V7,71.0,71.0,86.0,65.0,94.0,94,5752.0,square4,i,0.2386,3,V,7.0
V7,72.0,77.0,86.0,65.0,98.0,98,5850.0,square4,i,0.5208,3,V,7.0
V7,73.0,77.0,84.0,63.0,94.0,94,5944.0,square4,i,0.2667,3,V,7.0
V7,74.0,71.0,86.0,64.0,91.0,91,6035.0,square4,i,0.1926,3,V,7.0
V7,75.0,73.0,90.0,60.0,90.0,90,6125.0,square4,i,0.0398,3,V,7.0
V7,76.0,79.0,84.0,68.0,95.0,95,6220.0,square4,i,0.1316,3,V,7.0
V7,77.0,73.0,85.0,66.0,89.0,85,6305.0,square2,j,0.0866,1,V,7.0
V7,78.0,75.0,82.0,67.0,91.0,91,6396.0,square4,i,0.0756,3,V,7.0
V7,79.0,72.0,85.0,60.0,90.0,72,6468.0,square1,f,0.1573,0,V,7.0
V7,80.0,73.0,83.0,66.0,97.0,97,6565.0,square4,i,0.5755,3,V,7.0
V7,81.0,73.0,84.0,67.0,92.0,67,6632.0,square3,r,0.4671,2,V,7.0
V7,82.0,69.0,84.0,65.0,91.0,91,6723.0,square4,i,0.4242,3,V,7.0
V7,83.0,76.0,83.0,72.0,99.0,99,6822.0,square4,i,0.3951,3,V,7.0
V7,84.0,72.0,84.0,70.0,94.0,94,6916.0,square4,i,0.6621,3,V,7.0
V7,85.0,77.0,83.0,67.0,88.0,88,7004.0,square4,i,0.0367,3,V,7.0
V7,86.0,76.0,80.0,67.0,90.0,90,7094.0,square4,i,0.2927,3,V,7.0
V7,87.0,70.0,86.0,67.0,95.0,95,7189.0,square4,i,0.3277,3,V,7.0
V7,88.0,76.0,84.0,67.0,100.0,100,7289.0,square4,i,1.8651,3,V,7.0
V7,89.0,71.0,88.0,60.0,97.0,97,7386.0,square4,i,0.1225,3,V,7.0
V7,90.0,69.0,82.0,71.0,95.0,95,7481.0,square4,i,0.1397,3,V,7.0
V7,91.0,80.0,84.0,65.0,92.0,92,7573.0,square4,i,0.1051,3,V,7.0
V7,92.0,77.0,85.0,68.0,85.0,85,7658.0,square4,i,0.2221,3,V,7.0
V7,93.0,72.0,84.0,66.0,91.0,91,7749.0,square4,i,0.2342,3,V,7.0
V7,94.0,69.0,83.0,66.0,95.0,95,7844.0,square4,i,0.1946,3,V,7.0
V7,95.0,70.0,86.0,75.0,91.0,91,7935.0,square4,i,0.0578,3,V,7.0
V7,96.0,74.0,85.0,66.0,88.0,88,8023.0,square4,i,0.0817,3,V,7.0
V7,97.0,77.0,82.0,73.0,91.0,91,8114.0,square4,i,0.161,3,V,7.0
V7,98.0,76.0,91.0,62.0,94.0,94,8208.0,square4,i,0.1481,3,V,7.0
V7,99.0,74.0,84.0,67.0,88.0,88,8296.0,square4,i,0.2489,3,V,7.0
V2,0.0,33.0,24.0,43.0,18.0,33,33.0,square1,r,1.2932,0,V,2.0
V2,1.0,33.0,29.0,42.0,21.0,42,75.0,square3,i,0.0242,2,V,2.0
V2,2.0,37.0,26.0,45.0,22.0,22,97.0,square4,j,0.278,3,V,2.0
V2,3.0,39.0,26.0,41.0,20.0,26,123.0,square2,f,0.0373,1,V,2.0
V2,4.0,29.0,32.0,45.0,19.0,29,152.0,square1,r,0.1453,0,V,2.0
V2,5.0,33.0,28.0,44.0,17.0,44,196.0,square3,i,0.0021,2,V,2.0
V2,6.0,32.0,24.0,49.0,20.0,20,216.0,square4,j,0.2033,3,V,2.0
V2,7.0,32.0,21.0,42.0,13.0,21,237.0,square2,f,0.0457,1,V,2.0
V2,8.0,35.0,23.0,45.0,19.0,35,272.0,square1,r,0.094,0,V,2.0
V2,9.0,33.0,28.0,46.0,17.0,46,318.0,square3,i,0.054,2,V,2.0
V2,10.0,39.0,27.0,45.0,21.0,45,363.0,square3,i,0.6605,2,V,2.0
V2,11.0,30.0,23.0,44.0,22.0,44,407.0,square3,i,0.2541,2,V,2.0
V2,12.0,31.0,26.0,43.0,16.0,43,450.0,square3,i,0.1392,2,V,2.0
V2,13.0,35.0,26.0,43.0,22.0,43,493.0,square3,i,0.2024,2,V,2.0
V2,14.0,35.0,29.0,46.0,19.0,46,539.0,square3,i,0.1593,2,V,2.0
V2,15.0,36.0,22.0,44.0,20.0,44,583.0,square3,i,0.1684,2,V,2.0
V2,16.0,33.0,27.0,45.0,19.0,45,628.0,square3,i,0.4178,2,V,2.0
V2,17.0,35.0,25.0,41.0,15.0,41,669.0,square3,i,0.3714,2,V,2.0
V2,18.0,37.0,27.0,51.0,21.0,21,690.0,square4,j,0.368,3,V,2.0
V2,19.0,33.0,25.0,43.0,18.0,43,733.0,square3,i,0.3126,2,V,2.0
V2,20.0,39.0,25.0,43.0,20.0,25,758.0,square2,f,0.3652,1,V,2.0
V2,21.0,27.0,32.0,43.0,24.0,43,801.0,square3,i,0.244,2,V,2.0
V2,22.0,35.0,27.0,50.0,13.0,35,836.0,square1,r,0.2781,0,V,2.0
V2,23.0,36.0,25.0,39.0,17.0,39,875.0,square3,i,0.1868,2,V,2.0
V2,24.0,32.0,45.0,39.0,59.0,99999,875.0,invalid,,,-1,V,2.0
V2,25.0,26.0,43.0,37.0,55.0,99999,875.0,invalid,,,-1,V,2.0
V2,26.0,23.0,45.0,39.0,58.0,39,914.0,square3,i,1.0923,2,V,2.0
V2,27.0,30.0,44.0,40.0,56.0,40,954.0,square3,i,0.3194,2,V,2.0
V2,28.0,34.0,48.0,41.0,54.0,41,995.0,square3,i,0.2655,2,V,2.0
V2,29.0,29.0,42.0,35.0,54.0,35,1030.0,square3,i,0.1248,2,V,2.0
V2,30.0,22.0,39.0,39.0,55.0,55,1085.0,square4,j,0.2708,3,V,2.0
V2,31.0,32.0,48.0,35.0,50.0,48,1133.0,square2,f,0.2595,1,V,2.0
V2,32.0,27.0,47.0,40.0,58.0,27,1160.0,square1,r,0.256,0,V,2.0
V2,33.0,28.0,46.0,31.0,54.0,31,1191.0,square3,i,0.0142,2,V,2.0
V2,34.0,28.0,44.0,41.0,49.0,49,1240.0,square4,j,0.2244,3,V,2.0
V2,35.0,31.0,44.0,33.0,59.0,59,1299.0,square4,j,0.0283,3,V,2.0
V2,36.0,29.0,48.0,30.0,55.0,55,1354.0,square4,j,0.2173,3,V,2.0
V2,37.0,25.0,45.0,32.0,51.0,51,1405.0,square4,j,0.2563,3,V,2.0
V2,38.0,29.0,48.0,33.0,54.0,54,1459.0,square4,j,0.4037,3,V,2.0
V2,39.0,29.0,44.0,33.0,54.0,54,1513.0,square4,j,0.5796,3,V,2.0
V2,40.0,33.0,42.0,37.0,61.0,61,1574.0,square4,j,0.3982,3,V,2.0
V2,41.0,28.0,45.0,41.0,57.0,57,1631.0,square4,j,0.3558,3,V,2.0
V2,42.0,33.0,46.0,36.0,54.0,54,1685.0,square4,j,0.3537,3,V,2.0
V2,43.0,31.0,42.0,40.0,57.0,57,1742.0,square4,j,0.3202,3,V,2.0
V2,44.0,27.0,45.0,38.0,56.0,56,1798.0,square4,j,0.8759,3,V,2.0
V2,45.0,27.0,44.0,32.0,51.0,51,1849.0,square4,j,0.2909,3,V,2.0
V2,46.0,28.0,44.0,39.0,57.0,57,1906.0,square4,j,0.3935,3,V,2.0
V2,47.0,30.0,45.0,36.0,56.0,56,1962.0,square4,j,0.4379,3,V,2.0
V2,48.0,31.0,47.0,41.0,59.0,59,2021.0,square4,j,0.4649,3,V,2.0
V2,49.0,32.0,45.0,33.0,57.0,57,2078.0,square4,j,0.2438,3,V,2.0
V2,50.0,24.0,38.0,36.0,52.0,52,2130.0,square4,j,0.308,3,V,2.0
V2,51.0,29.0,48.0,34.0,54.0,54,2184.0,square4,j,0.0541,3,V,2.0
V2,52.0,30.0,50.0,38.0,56.0,56,2240.0,square4,j,0.2102,3,V,2.0
V2,53.0,27.0,47.0,33.0,55.0,47,2287.0,square2,f,0.3651,1,V,2.0
V2,54.0,34.0,21.0,45.0,25.0,25,2312.0,square4,j,0.2944,3,V,2.0
V2,55.0,36.0,19.0,39.0,24.0,36,2348.0,square1,r,0.2301,0,V,2.0
V2,56.0,29.0,19.0,45.0,18.0,45,2393.0,square3,i,0.2295,2,V,2.0
V2,57.0,29.0,20.0,39.0,20.0,20,2413.0,square2,f,0.1902,1,V,2.0
V2,58.0,40.0,18.0,42.0,21.0,42,2455.0,square3,i,0.2256,2,V,2.0
V2,59.0,31.0,17.0,44.0,23.0,44,2499.0,square3,i,0.0529,2,V,2.0
V2,60.0,31.0,19.0,42.0,20.0,42,2541.0,square3,i,0.2598,2,V,2.0
V2,61.0,34.0,16.0,41.0,25.0,41,2582.0,square3,i,0.0821,2,V,2.0
V2,62.0,28.0,12.0,41.0,22.0,41,2623.0,square3,i,0.3522,2,V,2.0
V2,63.0,32.0,14.0,45.0,26.0,26,2649.0,square4,j,0.259,3,V,2.0
V2,64.0,36.0,21.0,41.0,25.0,21,2670.0,square2,f,0.0699,1,V,2.0
V2,65.0,32.0,13.0,39.0,24.0,32,2702.0,square1,r,0.0971,0,V,2.0
V2,66.0,35.0,15.0,42.0,20.0,42,2744.0,square3,i,0.1656,2,V,2.0
V2,67.0,30.0,23.0,47.0,27.0,47,2791.0,square3,i,0.4109,2,V,2.0
V2,68.0,31.0,17.0,43.0,24.0,43,2834.0,square3,i,0.285,2,V,2.0
V2,69.0,33.0,20.0,41.0,20.0,41,2875.0,square3,i,0.119,2,V,2.0
V2,70.0,37.0,17.0,43.0,21.0,43,2918.0,square3,i,0.2847,2,V,2.0
V2,71.0,45.0,31.0,36.0,58.0,36,2954.0,square3,i,0.2432,2,V,2.0
V2,72.0,47.0,31.0,31.0,54.0,54,3008.0,square4,j,0.8646,3,V,2.0
V2,73.0,50.0,30.0,33.0,55.0,30,3038.0,square2,f,0.3168,1,V,2.0
V2,74.0,45.0,31.0,36.0,51.0,45,3083.0,square1,r,0.1575,0,V,2.0
V2,75.0,47.0,28.0,38.0,54.0,54,3137.0,square4,j,0.0219,3,V,2.0
V2,76.0,52.0,33.0,35.0,60.0,60,3197.0,square4,j,0.0643,3,V,2.0
V2,77.0,41.0,29.0,37.0,53.0,53,3250.0,square4,j,0.2876,3,V,2.0
V2,78.0,51.0,24.0,34.0,56.0,56,3306.0,square4,j,0.9746,3,V,2.0
V2,79.0,41.0,34.0,36.0,52.0,52,3358.0,square4,j,0.0827,3,V,2.0
V2,80.0,48.0,31.0,37.0,51.0,51,3409.0,square4,j,0.2017,3,V,2.0
V2,81.0,43.0,32.0,40.0,53.0,53,3462.0,square4,j,0.1839,3,V,2.0
V2,82.0,48.0,25.0,37.0,58.0,58,3520.0,square4,j,0.2664,3,V,2.0
V2,83.0,45.0,32.0,36.0,61.0,61,3581.0,square4,j,0.2093,3,V,2.0
V2,84.0,47.0,29.0,39.0,60.0,60,3641.0,square4,j,0.0616,3,V,2.0
V2,85.0,49.0,30.0,39.0,54.0,30,3671.0,square2,f,0.2288,1,V,2.0
V2,86.0,46.0,28.0,33.0,51.0,51,3722.0,square4,j,0.2262,3,V,2.0
V2,87.0,45.0,24.0,37.0,55.0,45,3767.0,square1,r,0.1597,0,V,2.0
V2,88.0,48.0,29.0,42.0,54.0,54,3821.0,square4,j,0.2208,3,V,2.0
V2,89.0,43.0,31.0,38.0,52.0,38,3859.0,square3,i,0.114,2,V,2.0
V2,90.0,51.0,33.0,36.0,56.0,56,3915.0,square4,j,0.0561,3,V,2.0
V2,91.0,49.0,32.0,37.0,59.0,59,3974.0,square4,j,0.7586,3,V,2.0
V2,92.0,47.0,29.0,37.0,56.0,56,4030.0,square4,j,0.4353,3,V,2.0
V2,93.0,45.0,27.0,35.0,56.0,56,4086.0,square4,j,0.5581,3,V,2.0
V2,94.0,45.0,31.0,31.0,49.0,49,4135.0,square4,j,0.4541,3,V,2.0
V2,95.0,47.0,33.0,36.0,52.0,52,4187.0,square4,j,0.3535,3,V,2.0
V2,96.0,44.0,28.0,37.0,59.0,59,4246.0,square4,j,0.1192,3,V,2.0
V2,97.0,48.0,28.0,33.0,55.0,55,4301.0,square4,j,0.092,3,V,2.0
V2,98.0,49.0,29.0,39.0,60.0,60,4361.0,square4,j,0.1036,3,V,2.0
V2,99.0,44.0,30.0,36.0,50.0,50,4411.0,square4,j,0.7169,3,V,2.0
NS11,0.0,78.0,37.0,30.0,78.0,78,78.0,square4,r,1.8538,3,N,11.0
NS11,1.0,85.0,34.0,30.0,76.0,85,163.0,square1,i,0.3683,0,N,11.0
NS11,2.0,79.0,33.0,36.0,77.0,33,196.0,square2,j,0.2435,1,N,11.0
NS11,3.0,82.0,33.0,28.0,72.0,28,224.0,square3,f,0.1971,2,N,11.0
NS11,4.0,82.0,34.0,33.0,76.0,82,306.0,square1,i,0.6267,0,N,11.0
NS11,5.0,78.0,38.0,32.0,83.0,83,389.0,square4,r,0.2426,3,N,11.0
NS11,6.0,78.0,37.0,34.0,77.0,77,466.0,square4,r,0.2754,3,N,11.0
NS11,7.0,80.0,30.0,33.0,74.0,80,546.0,square1,i,0.1486,0,N,11.0
NS11,8.0,79.0,32.0,30.0,73.0,79,625.0,square1,i,0.1691,0,N,11.0
NS11,9.0,81.0,41.0,34.0,61.0,61,686.0,square4,r,0.1768,3,N,11.0
NS11,10.0,76.0,38.0,25.0,64.0,38,724.0,square2,j,0.2518,1,N,11.0
NS11,11.0,79.0,34.0,27.0,65.0,27,751.0,square3,f,0.1005,2,N,11.0
NS11,12.0,81.0,32.0,25.0,68.0,81,832.0,square1,i,0.0652,0,N,11.0
NS11,13.0,84.0,36.0,24.0,64.0,84,916.0,square1,i,0.5925,0,N,11.0
NS11,14.0,80.0,30.0,24.0,61.0,80,996.0,square1,i,0.3298,0,N,11.0
NS11,15.0,86.0,33.0,22.0,66.0,86,1082.0,square1,i,0.2748,0,N,11.0
NS11,16.0,85.0,32.0,20.0,64.0,85,1167.0,square1,i,0.3781,0,N,11.0
NS11,17.0,83.0,32.0,22.0,71.0,83,1250.0,square1,i,0.1142,0,N,11.0
NS11,18.0,80.0,31.0,19.0,66.0,66,1316.0,square4,r,0.0691,3,N,11.0
NS11,19.0,75.0,40.0,23.0,69.0,40,1356.0,square2,j,0.4341,1,N,11.0
NS11,20.0,73.0,37.0,14.0,67.0,73,1429.0,square1,i,0.3243,0,N,11.0
NS11,21.0,81.0,34.0,23.0,70.0,23,1452.0,square3,f,0.1388,2,N,11.0
NS11,22.0,77.0,39.0,16.0,73.0,73,1525.0,square4,r,0.1707,3,N,11.0
NS11,23.0,78.0,30.0,23.0,74.0,78,1603.0,square1,i,0.1827,0,N,11.0
NS11,24.0,80.0,32.0,26.0,68.0,80,1683.0,square1,i,0.1677,0,N,11.0
NS11,25.0,81.0,29.0,29.0,73.0,73,1756.0,square4,r,0.4564,3,N,11.0
NS11,26.0,77.0,31.0,26.0,69.0,77,1833.0,square1,i,0.2794,0,N,11.0
NS11,27.0,69.0,47.0,29.0,64.0,64,1897.0,square4,r,0.3909,3,N,11.0
NS11,28.0,69.0,39.0,28.0,71.0,69,1966.0,square1,i,0.2052,0,N,11.0
NS11,29.0,71.0,41.0,24.0,66.0,66,2032.0,square4,r,0.2788,3,N,11.0
NS11,30.0,70.0,40.0,21.0,68.0,70,2102.0,square1,i,0.2858,0,N,11.0
NS11,31.0,72.0,44.0,21.0,68.0,72,2174.0,square1,i,0.2909,0,N,11.0
NS11,32.0,72.0,41.0,19.0,75.0,72,2246.0,square1,i,0.3629,0,N,11.0
NS11,33.0,66.0,48.0,21.0,72.0,66,2312.0,square1,i,0.2043,0,N,11.0
NS11,34.0,67.0,48.0,24.0,72.0,67,2379.0,square1,i,0.7095,0,N,11.0
NS11,35.0,58.0,52.0,14.0,73.0,73,2452.0,square4,r,0.0827,3,N,11.0
NS11,36.0,61.0,52.0,23.0,70.0,70,2522.0,square4,r,0.1406,3,N,11.0
NS11,37.0,50.0,55.0,29.0,67.0,67,2589.0,square4,r,0.1103,3,N,11.0
NS11,38.0,51.0,54.0,20.0,64.0,20,2609.0,square3,f,0.7379,2,N,11.0
NS11,39.0,54.0,49.0,26.0,63.0,49,2658.0,square2,j,0.2666,1,N,11.0
NS11,40.0,50.0,47.0,24.0,70.0,50,2708.0,square1,i,0.2855,0,N,11.0
NS11,41.0,54.0,46.0,23.0,63.0,63,2771.0,square4,r,0.2141,3,N,11.0
NS11,42.0,54.0,47.0,25.0,61.0,61,2832.0,square4,r,0.0935,3,N,11.0
NS11,43.0,46.0,49.0,33.0,72.0,72,2904.0,square4,r,0.2096,3,N,11.0
NS11,44.0,54.0,50.0,38.0,72.0,72,2976.0,square4,r,0.1613,3,N,11.0
NS11,45.0,56.0,53.0,39.0,81.0,81,3057.0,square4,r,0.1878,3,N,11.0
NS11,46.0,57.0,55.0,33.0,77.0,77,3134.0,square4,r,0.1018,3,N,11.0
NS11,47.0,56.0,51.0,32.0,76.0,32,3166.0,square3,f,0.3347,2,N,11.0
NS11,48.0,58.0,49.0,29.0,85.0,85,3251.0,square4,r,0.0996,3,N,11.0
NS11,49.0,58.0,53.0,27.0,83.0,83,3334.0,square4,r,0.4562,3,N,11.0
NS11,50.0,62.0,49.0,24.0,80.0,80,3414.0,square4,r,0.3269,3,N,11.0
NS11,51.0,57.0,55.0,23.0,77.0,77,3491.0,square4,r,0.5366,3,N,11.0
NS11,52.0,56.0,55.0,20.0,77.0,77,3568.0,square4,r,0.3877,3,N,11.0
NS11,53.0,59.0,56.0,20.0,78.0,78,3646.0,square4,r,0.2519,3,N,11.0
NS11,54.0,58.0,57.0,27.0,74.0,74,3720.0,square4,r,0.2707,3,N,11.0
NS11,55.0,60.0,55.0,24.0,79.0,79,3799.0,square4,r,0.2194,3,N,11.0
NS11,56.0,60.0,52.0,22.0,77.0,77,3876.0,square4,r,0.2384,3,N,11.0
NS11,57.0,58.0,55.0,22.0,72.0,72,3948.0,square4,r,0.2034,3,N,11.0
NS11,58.0,63.0,52.0,22.0,75.0,75,4023.0,square4,r,0.2424,3,N,11.0
NS11,59.0,62.0,56.0,17.0,70.0,70,4093.0,square4,r,0.1618,3,N,11.0
NS11,60.0,61.0,55.0,22.0,70.0,61,4154.0,square1,i,0.2386,0,N,11.0
NS11,61.0,57.0,52.0,21.0,76.0,52,4206.0,square2,j,0.2049,1,N,11.0
NS11,62.0,57.0,48.0,28.0,75.0,28,4234.0,square3,f,0.284,2,N,11.0
NS11,63.0,57.0,58.0,30.0,68.0,68,4302.0,square4,r,0.2155,3,N,11.0
NS11,64.0,61.0,61.0,27.0,74.0,61,4363.0,square1,i,0.0643,0,N,11.0
NS11,65.0,67.0,63.0,40.0,71.0,71,4434.0,square4,r,0.2007,3,N,11.0
NS11,66.0,69.0,55.0,38.0,73.0,69,4503.0,square1,i,0.0467,0,N,11.0
NS11,67.0,72.0,57.0,36.0,65.0,65,4568.0,square4,r,0.1988,3,N,11.0
NS11,68.0,71.0,61.0,36.0,64.0,71,4639.0,square1,i,0.2386,0,N,11.0
NS11,69.0,74.0,66.0,37.0,58.0,74,4713.0,square1,i,0.2157,0,N,11.0
NS11,70.0,69.0,60.0,40.0,66.0,69,4782.0,square1,i,0.0196,0,N,11.0
NS11,71.0,71.0,58.0,40.0,64.0,71,4853.0,square1,i,0.3443,0,N,11.0
NS11,72.0,72.0,58.0,46.0,67.0,72,4925.0,square1,i,0.071,0,N,11.0
NS11,73.0,72.0,56.0,47.0,65.0,72,4997.0,square1,i,0.3325,0,N,11.0
NS11,74.0,66.0,54.0,47.0,63.0,66,5063.0,square1,i,0.035,0,N,11.0
NS11,75.0,75.0,53.0,43.0,58.0,75,5138.0,square1,i,0.8263,0,N,11.0
NS11,76.0,75.0,48.0,40.0,59.0,75,5213.0,square1,i,0.2027,0,N,11.0
NS11,77.0,65.0,48.0,36.0,58.0,65,5278.0,square1,i,0.2761,0,N,11.0
NS11,78.0,70.0,45.0,37.0,59.0,70,5348.0,square1,i,0.1403,0,N,11.0
NS11,79.0,70.0,41.0,36.0,59.0,70,5418.0,square1,i,0.2425,0,N,11.0
NS11,80.0,73.0,43.0,39.0,59.0,59,5477.0,square4,r,0.1629,3,N,11.0
NS11,81.0,72.0,39.0,38.0,60.0,72,5549.0,square1,i,0.1586,0,N,11.0
NS11,82.0,72.0,39.0,44.0,65.0,72,5621.0,square1,i,0.0776,0,N,11.0
NS11,83.0,68.0,38.0,40.0,61.0,68,5689.0,square1,i,0.3797,0,N,11.0
NS11,84.0,69.0,36.0,36.0,64.0,69,5758.0,square1,i,0.0837,0,N,11.0
NS11,85.0,70.0,34.0,40.0,69.0,70,5828.0,square1,i,0.2328,0,N,11.0
NS11,86.0,70.0,32.0,36.0,71.0,70,5898.0,square1,i,0.1807,0,N,11.0
NS11,87.0,69.0,31.0,37.0,70.0,69,5967.0,square1,i,0.1832,0,N,11.0
NS11,88.0,69.0,34.0,41.0,67.0,69,6036.0,square1,i,0.2819,0,N,11.0
NS11,89.0,67.0,39.0,44.0,67.0,67,6103.0,square1,i,0.2018,0,N,11.0
NS11,90.0,64.0,33.0,36.0,69.0,64,6167.0,square1,i,0.2028,0,N,11.0
NS11,91.0,60.0,33.0,38.0,67.0,60,6227.0,square1,i,0.01,0,N,11.0
NS11,92.0,60.0,33.0,37.0,68.0,60,6287.0,square1,i,0.3551,0,N,11.0
NS11,93.0,54.0,36.0,38.0,73.0,54,6341.0,square1,i,0.2265,0,N,11.0
NS11,94.0,58.0,35.0,39.0,68.0,58,6399.0,square1,i,0.537,0,N,11.0
NS11,95.0,50.0,38.0,32.0,77.0,50,6449.0,square1,i,0.1253,0,N,11.0
NS11,96.0,53.0,42.0,30.0,71.0,53,6502.0,square1,i,0.1225,0,N,11.0
NS11,97.0,54.0,38.0,32.0,75.0,54,6556.0,square1,i,0.0115,0,N,11.0
NS11,98.0,52.0,48.0,32.0,72.0,52,6608.0,square1,i,0.0685,0,N,11.0
NS11,99.0,55.0,45.0,33.0,73.0,55,6663.0,square1,i,0.2079,0,N,11.0
NS1,0.0,60.0,65.0,21.0,53.0,21,21.0,square3,r,0.5991,2,N,1.0
NS1,1.0,56.0,62.0,31.0,51.0,62,83.0,square2,i,0.5585,1,N,1.0
NS1,2.0,58.0,62.0,24.0,57.0,57,140.0,square4,j,0.2739,3,N,1.0
NS1,3.0,56.0,58.0,33.0,58.0,56,196.0,square1,f,0.2223,0,N,1.0
NS1,4.0,60.0,58.0,32.0,58.0,58,254.0,square2,i,0.2382,1,N,1.0
NS1,5.0,56.0,59.0,31.0,54.0,56,310.0,square1,f,0.2086,0,N,1.0
NS1,6.0,58.0,57.0,37.0,56.0,56,366.0,square4,j,0.0787,3,N,1.0
NS1,7.0,57.0,53.0,37.0,57.0,53,419.0,square2,i,0.1616,1,N,1.0
NS1,8.0,58.0,57.0,37.0,54.0,54,473.0,square4,j,0.1152,3,N,1.0
NS1,9.0,53.0,50.0,36.0,55.0,50,523.0,square2,i,0.0908,1,N,1.0
NS1,10.0,58.0,47.0,32.0,53.0,58,581.0,square1,f,0.2519,0,N,1.0
NS1,11.0,55.0,44.0,34.0,53.0,55,636.0,square1,f,0.0979,0,N,1.0
NS1,12.0,56.0,44.0,30.0,45.0,56,692.0,square1,f,0.3967,0,N,1.0
NS1,13.0,60.0,47.0,34.0,48.0,60,752.0,square1,f,0.1899,0,N,1.0
NS1,14.0,54.0,48.0,37.0,54.0,54,806.0,square1,f,0.3507,0,N,1.0
NS1,15.0,53.0,44.0,35.0,51.0,53,859.0,square1,f,0.2863,0,N,1.0
NS1,16.0,50.0,50.0,35.0,43.0,50,909.0,square1,f,0.2175,0,N,1.0
NS1,17.0,53.0,46.0,35.0,44.0,53,962.0,square1,f,0.1646,0,N,1.0
NS1,18.0,54.0,51.0,42.0,48.0,54,1016.0,square1,f,0.1731,0,N,1.0
NS1,19.0,62.0,51.0,44.0,53.0,62,1078.0,square1,f,0.1748,0,N,1.0
NS1,20.0,63.0,47.0,42.0,47.0,63,1141.0,square1,f,0.2374,0,N,1.0
NS1,21.0,67.0,51.0,41.0,46.0,67,1208.0,square1,f,0.2518,0,N,1.0
NS1,22.0,75.0,44.0,45.0,43.0,75,1283.0,square1,f,0.2683,0,N,1.0
NS1,23.0,64.0,42.0,41.0,47.0,64,1347.0,square1,f,0.2558,0,N,1.0
NS1,24.0,68.0,41.0,39.0,49.0,68,1415.0,square1,f,0.1765,0,N,1.0
NS1,25.0,71.0,43.0,33.0,42.0,71,1486.0,square1,f,0.1792,0,N,1.0
NS1,26.0,70.0,41.0,26.0,45.0,70,1556.0,square1,f,0.1986,0,N,1.0
NS1,27.0,72.0,42.0,34.0,48.0,72,1628.0,square1,f,0.4057,0,N,1.0
NS1,28.0,71.0,41.0,33.0,45.0,71,1699.0,square1,f,0.2815,0,N,1.0
NS1,29.0,77.0,42.0,31.0,48.0,77,1776.0,square1,f,0.2182,0,N,1.0
NS1,30.0,73.0,41.0,33.0,51.0,73,1849.0,square1,f,0.1125,0,N,1.0
NS1,31.0,71.0,44.0,35.0,48.0,71,1920.0,square1,f,0.0572,0,N,1.0
NS1,32.0,81.0,47.0,33.0,50.0,81,2001.0,square1,f,0.1684,0,N,1.0
NS1,33.0,75.0,50.0,27.0,42.0,75,2076.0,square1,f,0.202,0,N,1.0
NS1,34.0,71.0,49.0,27.0,44.0,71,2147.0,square1,f,0.2116,0,N,1.0
NS1,35.0,69.0,47.0,23.0,47.0,69,2216.0,square1,f,0.2637,0,N,1.0
NS1,36.0,71.0,50.0,32.0,45.0,71,2287.0,square1,f,0.5616,0,N,1.0
NS1,37.0,66.0,48.0,33.0,52.0,66,2353.0,square1,f,0.1217,0,N,1.0
NS1,38.0,64.0,50.0,34.0,51.0,64,2417.0,square1,f,0.0492,0,N,1.0
NS1,39.0,65.0,49.0,25.0,47.0,65,2482.0,square1,f,0.3006,0,N,1.0
NS1,40.0,66.0,46.0,23.0,50.0,66,2548.0,square1,f,0.0279,0,N,1.0
NS1,41.0,68.0,45.0,22.0,50.0,68,2616.0,square1,f,0.2843,0,N,1.0
NS1,42.0,74.0,41.0,28.0,50.0,74,2690.0,square1,f,0.5951,0,N,1.0
NS1,43.0,69.0,42.0,27.0,52.0,69,2759.0,square1,f,0.5886,0,N,1.0
NS1,44.0,71.0,38.0,32.0,49.0,71,2830.0,square1,f,0.2821,0,N,1.0
NS1,45.0,68.0,38.0,30.0,55.0,68,2898.0,square1,f,0.1972,0,N,1.0
NS1,46.0,66.0,39.0,30.0,56.0,66,2964.0,square1,f,0.2447,0,N,1.0
NS1,47.0,62.0,35.0,31.0,50.0,62,3026.0,square1,f,0.181,0,N,1.0
NS1,48.0,68.0,31.0,32.0,49.0,68,3094.0,square1,f,0.3227,0,N,1.0
NS1,49.0,66.0,33.0,35.0,46.0,66,3160.0,square1,f,0.1128,0,N,1.0
NS1,50.0,64.0,30.0,32.0,46.0,64,3224.0,square1,f,0.2707,0,N,1.0
NS1,51.0,66.0,35.0,39.0,43.0,66,3290.0,square1,f,0.2444,0,N,1.0
NS1,52.0,67.0,33.0,37.0,49.0,67,3357.0,square1,f,0.1187,0,N,1.0
NS1,53.0,70.0,32.0,35.0,47.0,70,3427.0,square1,f,0.0926,0,N,1.0
NS1,54.0,62.0,40.0,28.0,43.0,62,3489.0,square1,f,0.2646,0,N,1.0
NS1,55.0,66.0,39.0,26.0,43.0,66,3555.0,square1,f,0.1633,0,N,1.0
NS1,56.0,64.0,38.0,26.0,44.0,64,3619.0,square1,f,0.3315,0,N,1.0
NS1,57.0,63.0,41.0,24.0,48.0,63,3682.0,square1,f,0.1969,0,N,1.0
NS1,58.0,67.0,49.0,24.0,48.0,67,3749.0,square1,f,0.2502,0,N,1.0
NS1,59.0,57.0,51.0,27.0,43.0,57,3806.0,square1,f,0.1884,0,N,1.0
NS1,60.0,56.0,51.0,31.0,42.0,56,3862.0,square1,f,0.1252,0,N,1.0
NS1,61.0,55.0,50.0,25.0,49.0,55,3917.0,square1,f,0.1889,0,N,1.0
NS1,62.0,55.0,51.0,27.0,50.0,55,3972.0,square1,f,0.0863,0,N,1.0
NS1,63.0,53.0,51.0,27.0,50.0,53,4025.0,square1,f,0.0917,0,N,1.0
NS1,64.0,53.0,56.0,27.0,50.0,53,4078.0,square1,f,0.0644,0,N,1.0
NS1,65.0,49.0,56.0,26.0,49.0,49,4127.0,square1,f,0.1043,0,N,1.0
NS1,66.0,47.0,61.0,29.0,50.0,47,4174.0,square1,f,0.4886,0,N,1.0
NS1,67.0,47.0,56.0,27.0,50.0,47,4221.0,square1,f,0.17,0,N,1.0
NS1,68.0,47.0,64.0,29.0,48.0,47,4268.0,square1,f,0.823,0,N,1.0
NS1,69.0,54.0,67.0,24.0,53.0,54,4322.0,square1,f,0.2906,0,N,1.0
NS1,70.0,44.0,70.0,21.0,48.0,44,4366.0,square1,f,0.2514,0,N,1.0
NS1,71.0,45.0,67.0,26.0,52.0,45,4411.0,square1,f,0.2902,0,N,1.0
NS1,72.0,44.0,64.0,22.0,49.0,44,4455.0,square1,f,0.2235,0,N,1.0
NS1,73.0,43.0,60.0,23.0,51.0,43,4498.0,square1,f,0.305,0,N,1.0
NS1,74.0,47.0,59.0,26.0,57.0,47,4545.0,square1,f,0.3188,0,N,1.0
NS1,75.0,44.0,56.0,27.0,51.0,44,4589.0,square1,f,0.2364,0,N,1.0
NS1,76.0,34.0,55.0,21.0,52.0,34,4623.0,square1,f,0.1899,0,N,1.0
NS1,77.0,39.0,64.0,17.0,55.0,39,4662.0,square1,f,0.7178,0,N,1.0
NS1,78.0,38.0,64.0,25.0,52.0,52,4714.0,square4,j,0.0018,3,N,1.0
NS1,79.0,40.0,65.0,24.0,54.0,65,4779.0,square2,i,0.1028,1,N,1.0
NS1,80.0,44.0,66.0,21.0,53.0,21,4800.0,square3,r,0.1748,2,N,1.0
NS1,81.0,50.0,60.0,27.0,54.0,60,4860.0,square2,i,0.165,1,N,1.0
NS1,82.0,43.0,62.0,20.0,57.0,62,4922.0,square2,i,0.4764,1,N,1.0
NS1,83.0,44.0,55.0,24.0,59.0,55,4977.0,square2,i,0.4729,1,N,1.0
NS1,84.0,41.0,51.0,28.0,61.0,51,5028.0,square2,i,0.2436,1,N,1.0
NS1,85.0,49.0,49.0,29.0,70.0,49,5077.0,square2,i,0.2782,1,N,1.0
NS1,86.0,47.0,44.0,26.0,66.0,44,5121.0,square2,i,0.1009,1,N,1.0
NS1,87.0,48.0,48.0,23.0,68.0,48,5169.0,square2,i,0.0075,1,N,1.0
NS1,88.0,46.0,51.0,20.0,70.0,51,5220.0,square2,i,0.1133,1,N,1.0
NS1,89.0,45.0,50.0,17.0,75.0,50,5270.0,square2,i,0.1693,1,N,1.0
NS1,90.0,50.0,48.0,18.0,74.0,48,5318.0,square2,i,0.4338,1,N,1.0
NS1,91.0,46.0,53.0,17.0,67.0,53,5371.0,square2,i,0.3499,1,N,1.0
NS1,92.0,38.0,56.0,22.0,65.0,56,5427.0,square2,i,0.585,1,N,1.0
NS1,93.0,38.0,53.0,22.0,66.0,53,5480.0,square2,i,0.5315,1,N,1.0
NS1,94.0,42.0,49.0,24.0,72.0,49,5529.0,square2,i,0.3505,1,N,1.0
NS1,95.0,44.0,48.0,25.0,70.0,48,5577.0,square2,i,0.3399,1,N,1.0
NS1,96.0,35.0,50.0,21.0,67.0,50,5627.0,square2,i,0.2886,1,N,1.0
NS1,97.0,43.0,55.0,16.0,72.0,55,5682.0,square2,i,0.3264,1,N,1.0
NS1,98.0,46.0,50.0,21.0,73.0,50,5732.0,square2,i,0.2532,1,N,1.0
NS1,99.0,43.0,46.0,27.0,71.0,46,5778.0,square2,i,0.2711,1,N,1.0
NS8,0.0,61.0,62.0,34.0,32.0,34,34.0,square3,j,1.5942,2,N,8.0
NS8,1.0,57.0,56.0,38.0,27.0,38,72.0,square3,j,0.4447,2,N,8.0
NS8,2.0,66.0,55.0,42.0,28.0,42,114.0,square3,j,0.0613,2,N,8.0
NS8,3.0,67.0,51.0,37.0,28.0,37,151.0,square3,j,0.1423,2,N,8.0
NS8,4.0,65.0,53.0,38.0,32.0,38,189.0,square3,j,0.0949,2,N,8.0
NS8,5.0,67.0,52.0,43.0,33.0,43,232.0,square3,j,0.1234,2,N,8.0
NS8,6.0,56.0,47.0,41.0,36.0,41,273.0,square3,j,0.1191,2,N,8.0
NS8,7.0,58.0,46.0,37.0,31.0,37,310.0,square3,j,0.2635,2,N,8.0
NS8,8.0,60.0,58.0,36.0,35.0,36,346.0,square3,j,0.2432,2,N,8.0
NS8,9.0,60.0,66.0,41.0,39.0,41,387.0,square3,j,0.2767,2,N,8.0
NS8,10.0,60.0,60.0,36.0,33.0,36,423.0,square3,j,0.121,2,N,8.0
NS8,11.0,53.0,63.0,32.0,35.0,32,455.0,square3,j,0.1458,2,N,8.0
NS8,12.0,51.0,60.0,32.0,29.0,32,487.0,square3,j,0.2959,2,N,8.0
NS8,13.0,53.0,65.0,30.0,32.0,30,517.0,square3,j,1.0267,2,N,8.0
NS8,14.0,56.0,69.0,25.0,33.0,25,542.0,square3,j,1.0153,2,N,8.0
NS8,15.0,57.0,71.0,29.0,35.0,29,571.0,square3,j,0.3548,2,N,8.0
NS8,16.0,55.0,64.0,31.0,33.0,31,602.0,square3,j,0.4306,2,N,8.0
NS8,17.0,48.0,65.0,29.0,32.0,29,631.0,square3,j,0.2333,2,N,8.0
NS8,18.0,44.0,64.0,28.0,34.0,28,659.0,square3,j,0.4077,2,N,8.0
NS8,19.0,46.0,60.0,26.0,33.0,26,685.0,square3,j,0.2767,2,N,8.0
NS8,20.0,41.0,58.0,29.0,35.0,29,714.0,square3,j,0.0299,2,N,8.0
NS8,21.0,45.0,57.0,29.0,35.0,29,743.0,square3,j,0.3001,2,N,8.0
NS8,22.0,47.0,53.0,32.0,32.0,32,775.0,square3,j,0.3135,2,N,8.0
NS8,23.0,49.0,52.0,33.0,35.0,33,808.0,square3,j,0.1369,2,N,8.0
NS8,24.0,56.0,53.0,30.0,37.0,30,838.0,square3,j,0.2734,2,N,8.0
NS8,25.0,57.0,48.0,28.0,42.0,28,866.0,square3,j,0.2785,2,N,8.0
NS8,26.0,52.0,48.0,33.0,43.0,33,899.0,square3,j,0.3137,2,N,8.0
NS8,27.0,53.0,45.0,28.0,47.0,28,927.0,square3,j,0.2903,2,N,8.0
NS8,28.0,50.0,43.0,27.0,41.0,27,954.0,square3,j,0.2934,2,N,8.0
NS8,29.0,53.0,52.0,29.0,43.0,29,983.0,square3,j,0.2656,2,N,8.0
NS8,30.0,54.0,51.0,30.0,41.0,30,1013.0,square3,j,0.3203,2,N,8.0
NS8,31.0,50.0,50.0,31.0,42.0,31,1044.0,square3,j,0.3006,2,N,8.0
NS8,32.0,50.0,50.0,35.0,43.0,35,1079.0,square3,j,0.1808,2,N,8.0
NS8,33.0,46.0,48.0,39.0,41.0,39,1118.0,square3,j,0.1755,2,N,8.0
NS8,34.0,47.0,46.0,41.0,40.0,41,1159.0,square3,j,0.3008,2,N,8.0
NS8,35.0,57.0,45.0,36.0,37.0,36,1195.0,square3,j,0.0024,2,N,8.0
NS8,36.0,53.0,49.0,41.0,38.0,41,1236.0,square3,j,0.1602,2,N,8.0
NS8,37.0,57.0,50.0,41.0,39.0,41,1277.0,square3,j,0.1089,2,N,8.0
NS8,38.0,61.0,51.0,39.0,43.0,39,1316.0,square3,j,0.0799,2,N,8.0
NS8,39.0,59.0,54.0,41.0,36.0,41,1357.0,square3,j,0.5892,2,N,8.0
NS8,40.0,53.0,55.0,47.0,40.0,47,1404.0,square3,j,0.1344,2,N,8.0
NS8,41.0,53.0,55.0,43.0,39.0,43,1447.0,square3,j,0.2118,2,N,8.0
NS8,42.0,59.0,55.0,45.0,40.0,45,1492.0,square3,j,0.1219,2,N,8.0
NS8,43.0,54.0,46.0,51.0,37.0,51,1543.0,square3,j,0.352,2,N,8.0
NS8,44.0,56.0,44.0,50.0,35.0,50,1593.0,square3,j,0.2268,2,N,8.0
NS8,45.0,51.0,46.0,41.0,37.0,41,1634.0,square3,j,0.2725,2,N,8.0
NS8,46.0,52.0,43.0,44.0,34.0,44,1678.0,square3,j,0.3883,2,N,8.0
NS8,47.0,46.0,41.0,36.0,37.0,36,1714.0,square3,j,0.2783,2,N,8.0
NS8,48.0,47.0,46.0,39.0,37.0,39,1753.0,square3,j,0.3133,2,N,8.0
NS8,49.0,48.0,36.0,38.0,40.0,38,1791.0,square3,j,0.4666,2,N,8.0
NS8,50.0,51.0,37.0,36.0,46.0,36,1827.0,square3,j,0.2779,2,N,8.0
NS8,51.0,53.0,38.0,40.0,43.0,40,1867.0,square3,j,0.2298,2,N,8.0
NS8,52.0,47.0,32.0,37.0,44.0,37,1904.0,square3,j,0.1896,2,N,8.0
NS8,53.0,52.0,31.0,38.0,46.0,38,1942.0,square3,j,0.4693,2,N,8.0
NS8,54.0,44.0,34.0,40.0,45.0,40,1982.0,square3,j,0.4503,2,N,8.0
NS8,55.0,46.0,26.0,37.0,41.0,37,2019.0,square3,j,0.8092,2,N,8.0
NS8,56.0,42.0,29.0,36.0,40.0,36,2055.0,square3,j,0.4572,2,N,8.0
NS8,57.0,39.0,21.0,39.0,40.0,39,2094.0,square3,j,0.2526,2,N,8.0
NS8,58.0,42.0,18.0,39.0,40.0,39,2133.0,square3,j,0.1112,2,N,8.0
NS8,59.0,46.0,16.0,41.0,39.0,41,2174.0,square3,j,0.6801,2,N,8.0
NS8,60.0,45.0,20.0,40.0,39.0,40,2214.0,square3,j,1.3257,2,N,8.0
NS8,61.0,45.0,26.0,42.0,39.0,42,2256.0,square3,j,1.2928,2,N,8.0
NS8,62.0,46.0,21.0,45.0,37.0,45,2301.0,square3,j,0.0315,2,N,8.0
NS8,63.0,50.0,23.0,40.0,38.0,40,2341.0,square3,j,0.1981,2,N,8.0
NS8,64.0,46.0,24.0,41.0,33.0,41,2382.0,square3,j,0.4749,2,N,8.0
NS8,65.0,48.0,28.0,42.0,32.0,42,2424.0,square3,j,1.0089,2,N,8.0
NS8,66.0,47.0,20.0,40.0,35.0,40,2464.0,square3,j,0.3627,2,N,8.0
NS8,67.0,49.0,25.0,46.0,34.0,99999,2464.0,invalid,,,-1,N,8.0
NS8,68.0,47.0,24.0,45.0,33.0,99999,2464.0,invalid,,,-1,N,8.0
NS8,69.0,45.0,21.0,47.0,35.0,47,2511.0,square3,j,0.0375,2,N,8.0
NS8,70.0,44.0,21.0,47.0,37.0,47,2558.0,square3,j,0.0161,2,N,8.0
NS8,71.0,44.0,15.0,41.0,38.0,41,2599.0,square3,j,0.5894,2,N,8.0
NS8,72.0,47.0,19.0,49.0,40.0,99999,2599.0,invalid,,,-1,N,8.0
NS8,73.0,39.0,21.0,53.0,38.0,53,2652.0,square3,j,0.3804,2,N,8.0
NS8,74.0,42.0,19.0,53.0,35.0,53,2705.0,square3,j,0.5152,2,N,8.0
NS8,75.0,37.0,18.0,43.0,35.0,43,2748.0,square3,j,0.0238,2,N,8.0
NS8,76.0,35.0,14.0,42.0,38.0,42,2790.0,square3,j,0.4095,2,N,8.0
NS8,77.0,38.0,19.0,47.0,44.0,47,2837.0,square3,j,0.3196,2,N,8.0
NS8,78.0,38.0,18.0,50.0,46.0,50,2887.0,square3,j,0.4448,2,N,8.0
NS8,79.0,33.0,22.0,54.0,44.0,54,2941.0,square3,j,0.3057,2,N,8.0
NS8,80.0,38.0,21.0,56.0,52.0,56,2997.0,square3,j,0.2436,2,N,8.0
NS8,81.0,37.0,22.0,56.0,43.0,56,3053.0,square3,j,0.3325,2,N,8.0
NS8,82.0,30.0,26.0,60.0,42.0,60,3113.0,square3,j,0.5918,2,N,8.0
NS8,83.0,38.0,22.0,54.0,46.0,99999,3113.0,invalid,,,-1,N,8.0
NS8,84.0,33.0,18.0,52.0,46.0,52,3165.0,square3,j,0.3304,2,N,8.0
NS8,85.0,42.0,12.0,57.0,48.0,57,3222.0,square3,j,0.169,2,N,8.0
NS8,86.0,45.0,19.0,58.0,42.0,58,3280.0,square3,j,0.1221,2,N,8.0
NS8,87.0,46.0,10.0,65.0,44.0,65,3345.0,square3,j,0.1795,2,N,8.0
NS8,88.0,45.0,11.0,59.0,45.0,59,3404.0,square3,j,0.2218,2,N,8.0
NS8,89.0,42.0,11.0,60.0,47.0,60,3464.0,square3,j,0.646,2,N,8.0
NS8,90.0,40.0,7.0,64.0,49.0,64,3528.0,square3,j,0.9724,2,N,8.0
NS8,91.0,42.0,11.0,64.0,48.0,64,3592.0,square3,j,0.0881,2,N,8.0
NS8,92.0,43.0,13.0,60.0,43.0,60,3652.0,square3,j,0.1266,2,N,8.0
NS8,93.0,44.0,12.0,64.0,45.0,64,3716.0,square3,j,0.5601,2,N,8.0
NS8,94.0,45.0,16.0,65.0,49.0,65,3781.0,square3,j,1.809,2,N,8.0
NS8,95.0,45.0,24.0,66.0,42.0,66,3847.0,square3,j,0.2317,2,N,8.0
NS8,96.0,53.0,27.0,67.0,44.0,99999,3847.0,invalid,,,-1,N,8.0
NS8,97.0,50.0,29.0,68.0,43.0,68,3915.0,square3,j,1.032,2,N,8.0
NS8,98.0,52.0,29.0,66.0,37.0,66,3981.0,square3,j,0.2484,2,N,8.0
NS8,99.0,53.0,32.0,65.0,37.0,65,4046.0,square3,j,0.1329,2,N,8.0
