block,Trial,square1,square2,square3,square4,currPoints,totalPoints,square,choiceKey.keys,choiceKey.rt,armNum,blockType,blockNum
prac,0.0,100.0,0.0,0.0,0.0,0,0.0,square2,,,1,p,0.0
prac,1.0,100.0,0.0,0.0,0.0,99999,0.0,invalid,,,-1,p,0.0
prac,2.0,100.0,0.0,0.0,0.0,0,0.0,square2,,,1,p,0.0
prac,3.0,100.0,0.0,0.0,0.0,99999,0.0,invalid,,,-1,p,0.0
prac,4.0,100.0,0.0,0.0,0.0,0,0.0,square3,,,2,p,0.0
prac,5.0,100.0,0.0,0.0,0.0,0,0.0,square4,,,3,p,0.0
prac,6.0,100.0,0.0,0.0,0.0,0,0.0,square2,,,1,p,0.0
prac,7.0,100.0,0.0,0.0,0.0,100,100.0,square1,,,0,p,0.0
prac,8.0,100.0,0.0,0.0,0.0,100,200.0,square1,,,0,p,0.0
prac,9.0,100.0,0.0,0.0,0.0,100,300.0,square1,,,0,p,0.0
V4,0.0,63.0,38.0,47.0,55.0,38,38.0,square2,j,0.804,1,V,4.0
V4,1.0,66.0,42.0,43.0,59.0,43,81.0,square3,r,0.786,2,V,4.0
V4,2.0,66.0,39.0,57.0,59.0,59,140.0,square4,i,0.467,3,V,4.0
V4,3.0,66.0,37.0,51.0,59.0,37,177.0,square2,j,0.737,1,V,4.0
V4,4.0,69.0,37.0,50.0,55.0,69,246.0,square1,f,1.376,0,V,4.0
V4,5.0,64.0,44.0,46.0,62.0,64,310.0,square1,f,0.376,0,V,4.0
V4,6.0,75.0,43.0,49.0,57.0,75,385.0,square1,f,0.834,0,V,4.0
V4,7.0,62.0,41.0,52.0,59.0,41,426.0,square2,j,0.387,1,V,4.0
V4,8.0,65.0,41.0,44.0,60.0,65,491.0,square1,f,0.327,0,V,4.0
V4,9.0,68.0,35.0,44.0,64.0,44,535.0,square3,r,0.326,2,V,4.0
V4,10.0,67.0,44.0,48.0,61.0,67,602.0,square1,f,0.745,0,V,4.0
V4,11.0,61.0,40.0,48.0,56.0,56,658.0,square4,i,0.37,3,V,4.0
V4,12.0,68.0,41.0,49.0,55.0,68,726.0,square1,f,0.266,0,V,4.0
V4,13.0,63.0,42.0,47.0,60.0,63,789.0,square1,f,0.497,0,V,4.0
V4,14.0,63.0,40.0,51.0,55.0,40,829.0,square2,j,0.262,1,V,4.0
V4,15.0,62.0,41.0,52.0,62.0,62,891.0,square1,f,0.078,0,V,4.0
V4,16.0,69.0,37.0,47.0,60.0,69,960.0,square1,f,0.243,0,V,4.0
V4,17.0,66.0,40.0,48.0,56.0,66,1026.0,square1,f,0.346,0,V,4.0
V4,18.0,67.0,43.0,47.0,59.0,67,1093.0,square1,f,0.343,0,V,4.0
V4,19.0,64.0,42.0,51.0,59.0,64,1157.0,square1,f,0.334,0,V,4.0
V4,20.0,67.0,40.0,47.0,58.0,47,1204.0,square3,r,0.227,2,V,4.0
V4,21.0,60.0,41.0,50.0,59.0,60,1264.0,square1,f,0.047,0,V,4.0
V4,22.0,66.0,43.0,54.0,55.0,55,1319.0,square4,i,0.137,3,V,4.0
V4,23.0,67.0,37.0,50.0,62.0,37,1356.0,square2,j,0.232,1,V,4.0
V4,24.0,67.0,37.0,49.0,60.0,67,1423.0,square1,f,0.077,0,V,4.0
V4,25.0,67.0,39.0,55.0,52.0,67,1490.0,square1,f,0.056,0,V,4.0
V4,26.0,64.0,39.0,51.0,63.0,64,1554.0,square1,f,0.014,0,V,4.0
V4,27.0,68.0,36.0,55.0,60.0,68,1622.0,square1,f,0.163,0,V,4.0
V4,28.0,67.0,40.0,46.0,54.0,67,1689.0,square1,f,0.128,0,V,4.0
V4,29.0,67.0,41.0,50.0,57.0,67,1756.0,square1,f,0.062,0,V,4.0
V4,30.0,66.0,39.0,49.0,53.0,66,1822.0,square1,f,1.284,0,V,4.0
V4,31.0,70.0,38.0,48.0,58.0,70,1892.0,square1,f,0.313,0,V,4.0
V4,32.0,63.0,40.0,53.0,61.0,63,1955.0,square1,f,0.055,0,V,4.0
V4,33.0,66.0,41.0,51.0,56.0,66,2021.0,square1,f,0.513,0,V,4.0
V4,34.0,64.0,39.0,46.0,57.0,39,2060.0,square2,j,0.368,1,V,4.0
V4,35.0,69.0,36.0,50.0,58.0,69,2129.0,square1,f,0.294,0,V,4.0
V4,36.0,60.0,43.0,53.0,54.0,60,2189.0,square1,f,0.147,0,V,4.0
V4,37.0,52.0,78.0,68.0,66.0,52,2241.0,square1,f,0.054,0,V,4.0
V4,38.0,44.0,81.0,68.0,62.0,44,2285.0,square1,f,0.772,0,V,4.0
V4,39.0,59.0,71.0,70.0,63.0,63,2348.0,square4,i,0.146,3,V,4.0
V4,40.0,53.0,77.0,73.0,59.0,59,2407.0,square4,i,0.26,3,V,4.0
V4,41.0,53.0,76.0,74.0,66.0,66,2473.0,square4,i,0.078,3,V,4.0
V4,42.0,51.0,79.0,73.0,59.0,59,2532.0,square4,i,0.679,3,V,4.0
V4,43.0,48.0,76.0,68.0,65.0,65,2597.0,square4,i,0.026,3,V,4.0
V4,44.0,57.0,83.0,78.0,63.0,63,2660.0,square4,i,0.107,3,V,4.0
V4,45.0,54.0,74.0,69.0,61.0,61,2721.0,square4,i,0.261,3,V,4.0
V4,46.0,53.0,85.0,66.0,62.0,62,2783.0,square4,i,0.868,3,V,4.0
V4,47.0,56.0,83.0,68.0,57.0,57,2840.0,square4,i,0.971,3,V,4.0
V4,48.0,49.0,74.0,73.0,59.0,59,2899.0,square4,i,0.094,3,V,4.0
V4,49.0,54.0,74.0,70.0,60.0,60,2959.0,square4,i,0.021,3,V,4.0
V4,50.0,47.0,83.0,69.0,60.0,60,3019.0,square4,i,0.127,3,V,4.0
V4,51.0,54.0,78.0,73.0,56.0,56,3075.0,square4,i,1.132,3,V,4.0
V4,52.0,52.0,76.0,71.0,58.0,58,3133.0,square4,i,0.062,3,V,4.0
V4,53.0,51.0,82.0,76.0,63.0,63,3196.0,square4,i,0.718,3,V,4.0
V4,54.0,57.0,76.0,69.0,64.0,64,3260.0,square4,i,1.068,3,V,4.0
V4,55.0,49.0,75.0,68.0,59.0,59,3319.0,square4,i,0.032,3,V,4.0
V4,56.0,55.0,81.0,66.0,65.0,65,3384.0,square4,i,1.08,3,V,4.0
V4,57.0,58.0,80.0,72.0,63.0,63,3447.0,square4,i,0.043,3,V,4.0
V4,58.0,49.0,81.0,66.0,62.0,62,3509.0,square4,i,1.049,3,V,4.0
V4,59.0,57.0,78.0,73.0,59.0,59,3568.0,square4,i,0.834,3,V,4.0
V4,60.0,48.0,79.0,66.0,59.0,59,3627.0,square4,i,0.875,3,V,4.0
V4,61.0,53.0,80.0,72.0,60.0,60,3687.0,square4,i,0.06,3,V,4.0
V4,62.0,53.0,79.0,70.0,61.0,61,3748.0,square4,i,0.114,3,V,4.0
V4,63.0,81.0,66.0,90.0,66.0,66,3814.0,square4,i,0.019,3,V,4.0
V4,64.0,80.0,64.0,85.0,76.0,76,3890.0,square4,i,1.045,3,V,4.0
V4,65.0,77.0,61.0,92.0,74.0,74,3964.0,square4,i,0.0,3,V,4.0
V4,66.0,89.0,65.0,91.0,73.0,73,4037.0,square4,i,0.563,3,V,4.0
V4,67.0,86.0,64.0,92.0,70.0,70,4107.0,square4,i,0.697,3,V,4.0
V4,68.0,82.0,60.0,91.0,77.0,77,4184.0,square4,i,1.163,3,V,4.0
V4,69.0,78.0,69.0,90.0,70.0,70,4254.0,square4,i,0.984,3,V,4.0
V4,70.0,85.0,64.0,95.0,73.0,73,4327.0,square4,i,0.697,3,V,4.0
V4,71.0,85.0,61.0,88.0,69.0,69,4396.0,square4,i,0.704,3,V,4.0
V4,72.0,86.0,63.0,87.0,75.0,75,4471.0,square4,i,1.202,3,V,4.0
V4,73.0,86.0,69.0,92.0,70.0,70,4541.0,square4,i,0.293,3,V,4.0
V4,74.0,81.0,62.0,90.0,69.0,69,4610.0,square4,i,0.041,3,V,4.0
V4,75.0,83.0,66.0,88.0,74.0,74,4684.0,square4,i,0.177,3,V,4.0
V4,76.0,80.0,64.0,92.0,75.0,75,4759.0,square4,i,0.177,3,V,4.0
V4,77.0,81.0,65.0,91.0,74.0,99999,4759.0,invalid,,,-1,V,4.0
V4,78.0,78.0,70.0,89.0,73.0,73,4832.0,square4,i,0.629,3,V,4.0
V4,79.0,84.0,66.0,85.0,75.0,75,4907.0,square4,i,0.624,3,V,4.0
V4,80.0,83.0,65.0,93.0,74.0,74,4981.0,square4,i,0.035,3,V,4.0
V4,81.0,86.0,59.0,91.0,74.0,74,5055.0,square4,i,0.053,3,V,4.0
V4,82.0,87.0,64.0,92.0,73.0,73,5128.0,square4,i,0.511,3,V,4.0
V4,83.0,83.0,68.0,86.0,70.0,70,5198.0,square4,i,0.117,3,V,4.0
V4,84.0,82.0,62.0,87.0,73.0,73,5271.0,square4,i,0.014,3,V,4.0
V4,85.0,85.0,61.0,90.0,70.0,70,5341.0,square4,i,0.636,3,V,4.0
V4,86.0,84.0,66.0,97.0,71.0,71,5412.0,square4,i,0.965,3,V,4.0
V4,87.0,82.0,64.0,87.0,71.0,71,5483.0,square4,i,1.176,3,V,4.0
V4,88.0,80.0,67.0,93.0,72.0,72,5555.0,square4,i,0.885,3,V,4.0
V4,89.0,78.0,64.0,92.0,75.0,75,5630.0,square4,i,0.027,3,V,4.0
V4,90.0,75.0,66.0,88.0,72.0,72,5702.0,square4,i,0.893,3,V,4.0
V4,91.0,82.0,59.0,91.0,76.0,76,5778.0,square4,i,0.001,3,V,4.0
V4,92.0,84.0,62.0,91.0,70.0,70,5848.0,square4,i,0.819,3,V,4.0
V4,93.0,80.0,61.0,94.0,76.0,76,5924.0,square4,i,0.955,3,V,4.0
V4,94.0,83.0,64.0,88.0,72.0,72,5996.0,square4,i,0.085,3,V,4.0
V4,95.0,82.0,60.0,94.0,69.0,69,6065.0,square4,i,0.181,3,V,4.0
V4,96.0,84.0,63.0,92.0,72.0,72,6137.0,square4,i,0.061,3,V,4.0
V4,97.0,84.0,62.0,85.0,70.0,70,6207.0,square4,i,0.044,3,V,4.0
V4,98.0,81.0,64.0,93.0,72.0,72,6279.0,square4,i,0.0,3,V,4.0
V4,99.0,80.0,61.0,92.0,75.0,75,6354.0,square4,i,0.977,3,V,4.0
V11,0.0,42.0,67.0,57.0,49.0,67,67.0,square2,r,1.31,1,V,11.0
V11,1.0,42.0,71.0,60.0,53.0,71,138.0,square2,r,0.578,1,V,11.0
V11,2.0,45.0,76.0,58.0,51.0,76,214.0,square2,r,0.21,1,V,11.0
V11,3.0,44.0,65.0,60.0,49.0,65,279.0,square2,r,0.049,1,V,11.0
V11,4.0,46.0,73.0,64.0,51.0,73,352.0,square2,r,0.776,1,V,11.0
V11,5.0,47.0,67.0,58.0,54.0,67,419.0,square2,r,0.629,1,V,11.0
V11,6.0,43.0,68.0,58.0,50.0,68,487.0,square2,r,0.41,1,V,11.0
V11,7.0,42.0,67.0,60.0,58.0,60,547.0,square3,i,0.278,2,V,11.0
V11,8.0,44.0,67.0,60.0,53.0,44,591.0,square1,j,0.573,0,V,11.0
V11,9.0,44.0,67.0,59.0,54.0,54,645.0,square4,f,0.669,3,V,11.0
V11,10.0,49.0,76.0,57.0,52.0,76,721.0,square2,r,0.16,1,V,11.0
V11,11.0,45.0,71.0,58.0,51.0,71,792.0,square2,r,0.078,1,V,11.0
V11,12.0,45.0,72.0,58.0,56.0,72,864.0,square2,r,0.118,1,V,11.0
V11,13.0,49.0,67.0,63.0,54.0,67,931.0,square2,r,0.094,1,V,11.0
V11,14.0,50.0,75.0,57.0,48.0,57,988.0,square3,i,0.313,2,V,11.0
V11,15.0,40.0,71.0,61.0,51.0,71,1059.0,square2,r,0.716,1,V,11.0
V11,16.0,47.0,72.0,56.0,54.0,72,1131.0,square2,r,0.906,1,V,11.0
V11,17.0,40.0,71.0,61.0,46.0,71,1202.0,square2,r,0.878,1,V,11.0
V11,18.0,44.0,69.0,59.0,51.0,69,1271.0,square2,r,1.15,1,V,11.0
V11,19.0,44.0,73.0,59.0,47.0,73,1344.0,square2,r,0.213,1,V,11.0
V11,20.0,47.0,69.0,64.0,54.0,69,1413.0,square2,r,0.169,1,V,11.0
V11,21.0,78.0,49.0,70.0,65.0,49,1462.0,square2,r,0.051,1,V,11.0
V11,22.0,78.0,56.0,73.0,62.0,73,1535.0,square3,i,0.613,2,V,11.0
V11,23.0,84.0,54.0,71.0,65.0,84,1619.0,square1,j,0.435,0,V,11.0
V11,24.0,80.0,55.0,72.0,67.0,80,1699.0,square1,j,0.102,0,V,11.0
V11,25.0,80.0,55.0,75.0,63.0,80,1779.0,square1,j,0.827,0,V,11.0
V11,26.0,80.0,56.0,67.0,62.0,62,1841.0,square4,f,0.596,3,V,11.0
V11,27.0,80.0,51.0,68.0,62.0,80,1921.0,square1,j,0.885,0,V,11.0
V11,28.0,79.0,57.0,67.0,57.0,79,2000.0,square1,j,0.046,0,V,11.0
V11,29.0,79.0,50.0,67.0,62.0,79,2079.0,square1,j,0.899,0,V,11.0
V11,30.0,88.0,54.0,74.0,61.0,88,2167.0,square1,j,1.193,0,V,11.0
V11,31.0,81.0,51.0,75.0,63.0,81,2248.0,square1,j,0.0,0,V,11.0
V11,32.0,76.0,51.0,69.0,65.0,76,2324.0,square1,j,0.626,0,V,11.0
V11,33.0,78.0,54.0,72.0,64.0,78,2402.0,square1,j,0.617,0,V,11.0
V11,34.0,77.0,53.0,71.0,62.0,77,2479.0,square1,j,0.141,0,V,11.0
V11,35.0,74.0,59.0,75.0,62.0,74,2553.0,square1,j,0.02,0,V,11.0
V11,36.0,79.0,50.0,72.0,62.0,79,2632.0,square1,j,0.935,0,V,11.0
V11,37.0,74.0,54.0,68.0,62.0,68,2700.0,square3,i,0.517,2,V,11.0
V11,38.0,80.0,57.0,65.0,58.0,80,2780.0,square1,j,0.979,0,V,11.0
V11,39.0,73.0,52.0,75.0,66.0,52,2832.0,square2,r,0.229,1,V,11.0
V11,40.0,82.0,57.0,71.0,57.0,82,2914.0,square1,j,0.543,0,V,11.0
V11,41.0,78.0,53.0,73.0,64.0,78,2992.0,square1,j,0.593,0,V,11.0
V11,42.0,72.0,56.0,67.0,59.0,72,3064.0,square1,j,0.752,0,V,11.0
V11,43.0,81.0,54.0,73.0,63.0,81,3145.0,square1,j,0.564,0,V,11.0
V11,44.0,76.0,54.0,75.0,59.0,76,3221.0,square1,j,0.636,0,V,11.0
V11,45.0,79.0,59.0,71.0,64.0,79,3300.0,square1,j,0.787,0,V,11.0
V11,46.0,80.0,55.0,67.0,57.0,80,3380.0,square1,j,0.56,0,V,11.0
V11,47.0,84.0,53.0,75.0,56.0,84,3464.0,square1,j,0.682,0,V,11.0
V11,48.0,83.0,57.0,71.0,60.0,83,3547.0,square1,j,0.527,0,V,11.0
V11,49.0,79.0,52.0,71.0,60.0,79,3626.0,square1,j,0.094,0,V,11.0
V11,50.0,76.0,50.0,69.0,60.0,76,3702.0,square1,j,0.728,0,V,11.0
V11,51.0,79.0,54.0,72.0,57.0,79,3781.0,square1,j,0.012,0,V,11.0
V11,52.0,80.0,54.0,72.0,64.0,80,3861.0,square1,j,0.779,0,V,11.0
V11,53.0,35.0,50.0,55.0,69.0,35,3896.0,square1,j,0.514,0,V,11.0
V11,54.0,45.0,48.0,55.0,73.0,55,3951.0,square3,i,0.155,2,V,11.0
V11,55.0,43.0,53.0,58.0,70.0,53,4004.0,square2,r,0.066,1,V,11.0
V11,56.0,40.0,46.0,60.0,62.0,62,4066.0,square4,f,0.901,3,V,11.0
V11,57.0,44.0,46.0,53.0,71.0,44,4110.0,square1,j,0.112,0,V,11.0
V11,58.0,44.0,52.0,55.0,68.0,68,4178.0,square4,f,0.744,3,V,11.0
V11,59.0,44.0,44.0,57.0,66.0,44,4222.0,square2,r,0.404,1,V,11.0
V11,60.0,40.0,46.0,57.0,62.0,57,4279.0,square3,i,0.944,2,V,11.0
V11,61.0,42.0,52.0,58.0,62.0,62,4341.0,square4,f,0.918,3,V,11.0
V11,62.0,40.0,49.0,56.0,71.0,71,4412.0,square4,f,0.177,3,V,11.0
V11,63.0,40.0,54.0,60.0,66.0,66,4478.0,square4,f,0.753,3,V,11.0
V11,64.0,41.0,43.0,51.0,66.0,66,4544.0,square4,f,1.06,3,V,11.0
V11,65.0,39.0,48.0,59.0,66.0,66,4610.0,square4,f,0.837,3,V,11.0
V11,66.0,40.0,48.0,59.0,69.0,48,4658.0,square2,r,0.927,1,V,11.0
V11,67.0,46.0,45.0,58.0,69.0,58,4716.0,square3,i,0.901,2,V,11.0
V11,68.0,41.0,50.0,56.0,69.0,69,4785.0,square4,f,0.314,3,V,11.0
V11,69.0,48.0,49.0,57.0,71.0,71,4856.0,square4,f,0.346,3,V,11.0
V11,70.0,41.0,47.0,58.0,65.0,65,4921.0,square4,f,0.91,3,V,11.0
V11,71.0,37.0,46.0,58.0,60.0,37,4958.0,square1,j,0.193,0,V,11.0
V11,72.0,41.0,47.0,54.0,65.0,65,5023.0,square4,f,0.243,3,V,11.0
V11,73.0,42.0,47.0,60.0,67.0,67,5090.0,square4,f,0.229,3,V,11.0
V11,74.0,43.0,49.0,57.0,64.0,64,5154.0,square4,f,0.412,3,V,11.0
V11,75.0,38.0,46.0,57.0,66.0,66,5220.0,square4,f,0.614,3,V,11.0
V11,76.0,42.0,50.0,58.0,68.0,68,5288.0,square4,f,0.628,3,V,11.0
V11,77.0,36.0,49.0,58.0,64.0,64,5352.0,square4,f,0.994,3,V,11.0
V11,78.0,40.0,50.0,56.0,67.0,67,5419.0,square4,f,0.655,3,V,11.0
V11,79.0,39.0,48.0,56.0,67.0,67,5486.0,square4,f,0.119,3,V,11.0
V11,80.0,51.0,33.0,30.0,45.0,45,5531.0,square4,f,0.923,3,V,11.0
V11,81.0,49.0,31.0,23.0,48.0,48,5579.0,square4,f,1.096,3,V,11.0
V11,82.0,55.0,30.0,25.0,42.0,30,5609.0,square2,r,0.777,1,V,11.0
V11,83.0,50.0,33.0,27.0,48.0,27,5636.0,square3,i,1.133,2,V,11.0
V11,84.0,52.0,34.0,25.0,43.0,52,5688.0,square1,j,0.577,0,V,11.0
V11,85.0,49.0,28.0,28.0,44.0,49,5737.0,square1,j,0.271,0,V,11.0
V11,86.0,57.0,29.0,27.0,48.0,57,5794.0,square1,j,0.077,0,V,11.0
V11,87.0,49.0,29.0,21.0,38.0,49,5843.0,square1,j,0.642,0,V,11.0
V11,88.0,55.0,32.0,29.0,46.0,55,5898.0,square1,j,0.115,0,V,11.0
V11,89.0,50.0,28.0,23.0,43.0,28,5926.0,square2,r,0.598,1,V,11.0
V11,90.0,54.0,34.0,32.0,41.0,32,5958.0,square3,i,0.314,2,V,11.0
V11,91.0,50.0,34.0,26.0,44.0,44,6002.0,square4,f,0.927,3,V,11.0
V11,92.0,51.0,31.0,27.0,50.0,51,6053.0,square1,j,0.228,0,V,11.0
V11,93.0,49.0,38.0,28.0,42.0,49,6102.0,square1,j,0.319,0,V,11.0
V11,94.0,50.0,29.0,25.0,46.0,50,6152.0,square1,j,0.379,0,V,11.0
V11,95.0,51.0,36.0,22.0,40.0,51,6203.0,square1,j,0.001,0,V,11.0
V11,96.0,52.0,34.0,32.0,45.0,52,6255.0,square1,j,0.049,0,V,11.0
V11,97.0,53.0,27.0,32.0,44.0,53,6308.0,square1,j,0.805,0,V,11.0
V11,98.0,60.0,31.0,25.0,48.0,60,6368.0,square1,j,0.028,0,V,11.0
V11,99.0,53.0,33.0,23.0,42.0,53,6421.0,square1,j,1.084,0,V,11.0
V5,0.0,46.0,21.0,37.0,28.0,28,28.0,square4,r,0.804,3,V,5.0
V5,1.0,43.0,27.0,36.0,31.0,43,71.0,square1,i,0.527,0,V,5.0
V5,2.0,50.0,18.0,43.0,32.0,18,89.0,square2,j,0.279,1,V,5.0
V5,3.0,53.0,23.0,36.0,34.0,36,125.0,square3,f,0.112,2,V,5.0
V5,4.0,52.0,19.0,38.0,34.0,34,159.0,square4,r,0.343,3,V,5.0
V5,5.0,50.0,22.0,41.0,29.0,50,209.0,square1,i,0.64,0,V,5.0
V5,6.0,52.0,19.0,40.0,33.0,40,249.0,square3,f,0.198,2,V,5.0
V5,7.0,48.0,24.0,36.0,27.0,24,273.0,square2,j,0.161,1,V,5.0
V5,8.0,50.0,24.0,35.0,33.0,50,323.0,square1,i,0.263,0,V,5.0
V5,9.0,48.0,25.0,39.0,34.0,48,371.0,square1,i,0.252,0,V,5.0
V5,10.0,52.0,19.0,32.0,34.0,52,423.0,square1,i,0.133,0,V,5.0
V5,11.0,48.0,22.0,32.0,32.0,48,471.0,square1,i,0.245,0,V,5.0
V5,12.0,47.0,17.0,43.0,29.0,47,518.0,square1,i,0.16,0,V,5.0
V5,13.0,46.0,21.0,42.0,29.0,46,564.0,square1,i,0.455,0,V,5.0
V5,14.0,47.0,28.0,42.0,28.0,47,611.0,square1,i,0.551,0,V,5.0
V5,15.0,50.0,29.0,38.0,36.0,50,661.0,square1,i,0.615,0,V,5.0
V5,16.0,49.0,24.0,36.0,34.0,34,695.0,square4,r,0.564,3,V,5.0
V5,17.0,50.0,20.0,38.0,35.0,38,733.0,square3,f,0.128,2,V,5.0
V5,18.0,49.0,22.0,46.0,29.0,22,755.0,square2,j,0.602,1,V,5.0
V5,19.0,46.0,23.0,40.0,31.0,46,801.0,square1,i,0.146,0,V,5.0
V5,20.0,51.0,22.0,41.0,28.0,51,852.0,square1,i,0.33,0,V,5.0
V5,21.0,51.0,26.0,36.0,31.0,51,903.0,square1,i,0.567,0,V,5.0
V5,22.0,47.0,18.0,41.0,28.0,47,950.0,square1,i,0.166,0,V,5.0
V5,23.0,52.0,20.0,36.0,29.0,52,1002.0,square1,i,0.151,0,V,5.0
V5,24.0,51.0,21.0,41.0,34.0,51,1053.0,square1,i,0.311,0,V,5.0
V5,25.0,50.0,20.0,41.0,27.0,50,1103.0,square1,i,0.046,0,V,5.0
V5,26.0,49.0,29.0,37.0,28.0,49,1152.0,square1,i,0.367,0,V,5.0
V5,27.0,10.0,13.0,42.0,32.0,10,1162.0,square1,i,0.5,0,V,5.0
V5,28.0,9.0,19.0,40.0,27.0,27,1189.0,square4,r,0.512,3,V,5.0
V5,29.0,17.0,17.0,38.0,29.0,38,1227.0,square3,f,0.227,2,V,5.0
V5,30.0,8.0,18.0,36.0,29.0,18,1245.0,square2,j,0.343,1,V,5.0
V5,31.0,16.0,24.0,34.0,29.0,16,1261.0,square1,i,0.783,0,V,5.0
V5,32.0,9.0,17.0,35.0,31.0,9,1270.0,square1,i,1.143,0,V,5.0
V5,33.0,11.0,19.0,36.0,28.0,28,1298.0,square4,r,0.279,3,V,5.0
V5,34.0,10.0,19.0,38.0,28.0,38,1336.0,square3,f,0.23,2,V,5.0
V5,35.0,5.0,23.0,40.0,34.0,23,1359.0,square2,j,0.419,1,V,5.0
V5,36.0,17.0,20.0,36.0,31.0,36,1395.0,square3,f,0.771,2,V,5.0
V5,37.0,12.0,13.0,36.0,30.0,36,1431.0,square3,f,0.178,2,V,5.0
V5,38.0,14.0,24.0,35.0,27.0,35,1466.0,square3,f,0.571,2,V,5.0
V5,39.0,13.0,20.0,39.0,32.0,39,1505.0,square3,f,0.23,2,V,5.0
V5,40.0,9.0,15.0,37.0,24.0,24,1529.0,square4,r,0.045,3,V,5.0
V5,41.0,9.0,14.0,38.0,31.0,38,1567.0,square3,f,0.684,2,V,5.0
V5,42.0,14.0,17.0,43.0,31.0,14,1581.0,square1,i,0.486,0,V,5.0
V5,43.0,10.0,18.0,39.0,23.0,18,1599.0,square2,j,0.336,1,V,5.0
V5,44.0,10.0,20.0,33.0,32.0,33,1632.0,square3,f,0.172,2,V,5.0
V5,45.0,16.0,17.0,37.0,29.0,37,1669.0,square3,f,0.529,2,V,5.0
V5,46.0,9.0,22.0,37.0,25.0,37,1706.0,square3,f,1.019,2,V,5.0
V5,47.0,10.0,22.0,35.0,26.0,35,1741.0,square3,f,0.693,2,V,5.0
V5,48.0,11.0,16.0,39.0,23.0,39,1780.0,square3,f,0.503,2,V,5.0
V5,49.0,13.0,16.0,33.0,27.0,33,1813.0,square3,f,0.012,2,V,5.0
V5,50.0,12.0,16.0,39.0,24.0,39,1852.0,square3,f,0.212,2,V,5.0
V5,51.0,10.0,21.0,43.0,28.0,43,1895.0,square3,f,0.109,2,V,5.0
V5,52.0,8.0,15.0,36.0,28.0,36,1931.0,square3,f,0.185,2,V,5.0
V5,53.0,38.0,20.0,31.0,54.0,31,1962.0,square3,f,0.21,2,V,5.0
V5,54.0,39.0,20.0,35.0,51.0,51,2013.0,square4,r,0.145,3,V,5.0
V5,55.0,41.0,21.0,27.0,50.0,41,2054.0,square1,i,0.126,0,V,5.0
V5,56.0,39.0,23.0,28.0,49.0,23,2077.0,square2,j,0.042,1,V,5.0
V5,57.0,36.0,28.0,29.0,59.0,59,2136.0,square4,r,0.478,3,V,5.0
V5,58.0,38.0,22.0,28.0,49.0,49,2185.0,square4,r,0.048,3,V,5.0
V5,59.0,44.0,23.0,30.0,51.0,51,2236.0,square4,r,0.519,3,V,5.0
V5,60.0,43.0,21.0,31.0,48.0,48,2284.0,square4,r,0.244,3,V,5.0
V5,61.0,39.0,24.0,35.0,50.0,50,2334.0,square4,r,0.301,3,V,5.0
V5,62.0,38.0,25.0,31.0,52.0,52,2386.0,square4,r,0.278,3,V,5.0
V5,63.0,41.0,14.0,31.0,52.0,31,2417.0,square3,f,0.101,2,V,5.0
V5,64.0,43.0,23.0,30.0,51.0,43,2460.0,square1,i,0.243,0,V,5.0
V5,65.0,41.0,23.0,35.0,52.0,23,2483.0,square2,j,0.07,1,V,5.0
V5,66.0,41.0,17.0,33.0,47.0,47,2530.0,square4,r,0.195,3,V,5.0
V5,67.0,44.0,23.0,32.0,49.0,49,2579.0,square4,r,0.255,3,V,5.0
V5,68.0,44.0,24.0,31.0,44.0,44,2623.0,square4,r,0.001,3,V,5.0
V5,69.0,43.0,28.0,27.0,48.0,48,2671.0,square4,r,0.059,3,V,5.0
V5,70.0,38.0,22.0,26.0,50.0,50,2721.0,square4,r,0.411,3,V,5.0
V5,71.0,41.0,29.0,26.0,53.0,53,2774.0,square4,r,0.361,3,V,5.0
V5,72.0,40.0,20.0,28.0,51.0,51,2825.0,square4,r,0.269,3,V,5.0
V5,73.0,59.0,44.0,51.0,35.0,35,2860.0,square4,r,0.163,3,V,5.0
V5,74.0,60.0,38.0,55.0,43.0,43,2903.0,square4,r,0.127,3,V,5.0
V5,75.0,63.0,45.0,50.0,37.0,63,2966.0,square1,i,0.295,0,V,5.0
V5,76.0,62.0,42.0,50.0,37.0,42,3008.0,square2,j,0.183,1,V,5.0
V5,77.0,57.0,37.0,52.0,35.0,52,3060.0,square3,f,0.287,2,V,5.0
V5,78.0,66.0,45.0,54.0,37.0,66,3126.0,square1,i,0.227,0,V,5.0
V5,79.0,64.0,37.0,48.0,35.0,64,3190.0,square1,i,0.202,0,V,5.0
V5,80.0,63.0,40.0,56.0,38.0,63,3253.0,square1,i,0.244,0,V,5.0
V5,81.0,62.0,41.0,54.0,32.0,62,3315.0,square1,i,0.095,0,V,5.0
V5,82.0,58.0,41.0,59.0,39.0,58,3373.0,square1,i,0.077,0,V,5.0
V5,83.0,66.0,46.0,54.0,35.0,66,3439.0,square1,i,0.211,0,V,5.0
V5,84.0,67.0,44.0,52.0,33.0,67,3506.0,square1,i,0.295,0,V,5.0
V5,85.0,67.0,45.0,46.0,36.0,67,3573.0,square1,i,0.152,0,V,5.0
V5,86.0,65.0,44.0,51.0,38.0,65,3638.0,square1,i,0.214,0,V,5.0
V5,87.0,64.0,49.0,48.0,35.0,64,3702.0,square1,i,0.279,0,V,5.0
V5,88.0,68.0,47.0,56.0,36.0,68,3770.0,square1,i,0.126,0,V,5.0
V5,89.0,60.0,42.0,57.0,32.0,60,3830.0,square1,i,0.23,0,V,5.0
V5,90.0,59.0,43.0,53.0,34.0,59,3889.0,square1,i,0.365,0,V,5.0
V5,91.0,64.0,43.0,51.0,34.0,43,3932.0,square2,j,0.261,1,V,5.0
V5,92.0,65.0,41.0,57.0,38.0,99999,3932.0,invalid,,,-1,V,5.0
V5,93.0,59.0,48.0,54.0,40.0,54,3986.0,square3,f,0.346,2,V,5.0
V5,94.0,66.0,44.0,53.0,43.0,43,4029.0,square4,r,0.195,3,V,5.0
V5,95.0,63.0,43.0,50.0,40.0,63,4092.0,square1,i,0.152,0,V,5.0
V5,96.0,62.0,44.0,50.0,33.0,62,4154.0,square1,i,0.357,0,V,5.0
V5,97.0,64.0,49.0,55.0,37.0,64,4218.0,square1,i,0.215,0,V,5.0
V5,98.0,65.0,44.0,53.0,36.0,65,4283.0,square1,i,0.252,0,V,5.0
V5,99.0,65.0,42.0,55.0,35.0,65,4348.0,square1,i,0.25,0,V,5.0
NS4,0.0,55.0,53.0,59.0,44.0,55,55.0,square1,r,1.024,0,N,4.0
NS4,1.0,49.0,56.0,64.0,41.0,64,119.0,square3,i,0.026,2,N,4.0
NS4,2.0,50.0,54.0,71.0,48.0,48,167.0,square4,j,0.845,3,N,4.0
NS4,3.0,53.0,58.0,67.0,50.0,58,225.0,square2,f,0.244,1,N,4.0
NS4,4.0,49.0,51.0,70.0,55.0,49,274.0,square1,r,0.194,0,N,4.0
NS4,5.0,55.0,59.0,73.0,58.0,73,347.0,square3,i,0.662,2,N,4.0
NS4,6.0,56.0,54.0,71.0,57.0,71,418.0,square3,i,0.076,2,N,4.0
NS4,7.0,60.0,54.0,75.0,52.0,75,493.0,square3,i,0.028,2,N,4.0
NS4,8.0,58.0,53.0,74.0,52.0,74,567.0,square3,i,0.394,2,N,4.0
NS4,9.0,46.0,48.0,78.0,51.0,78,645.0,square3,i,0.717,2,N,4.0
NS4,10.0,55.0,48.0,78.0,51.0,78,723.0,square3,i,0.266,2,N,4.0
NS4,11.0,55.0,44.0,79.0,49.0,79,802.0,square3,i,0.243,2,N,4.0
NS4,12.0,50.0,40.0,79.0,50.0,79,881.0,square3,i,0.254,2,N,4.0
NS4,13.0,45.0,39.0,79.0,53.0,79,960.0,square3,i,0.132,2,N,4.0
NS4,14.0,44.0,38.0,77.0,56.0,77,1037.0,square3,i,0.686,2,N,4.0
NS4,15.0,45.0,32.0,68.0,52.0,68,1105.0,square3,i,0.002,2,N,4.0
NS4,16.0,49.0,32.0,74.0,53.0,74,1179.0,square3,i,0.043,2,N,4.0
NS4,17.0,45.0,32.0,69.0,51.0,69,1248.0,square3,i,0.011,2,N,4.0
NS4,18.0,50.0,34.0,69.0,47.0,69,1317.0,square3,i,0.083,2,N,4.0
NS4,19.0,50.0,36.0,65.0,53.0,65,1382.0,square3,i,0.0,2,N,4.0
NS4,20.0,45.0,36.0,62.0,53.0,62,1444.0,square3,i,0.193,2,N,4.0
NS4,21.0,49.0,35.0,62.0,55.0,62,1506.0,square3,i,0.193,2,N,4.0
NS4,22.0,53.0,32.0,61.0,60.0,61,1567.0,square3,i,0.199,2,N,4.0
NS4,23.0,52.0,33.0,58.0,54.0,52,1619.0,square1,r,0.144,0,N,4.0
NS4,24.0,48.0,32.0,52.0,60.0,32,1651.0,square2,f,0.319,1,N,4.0
NS4,25.0,47.0,30.0,53.0,57.0,57,1708.0,square4,j,0.295,3,N,4.0
NS4,26.0,50.0,30.0,60.0,55.0,60,1768.0,square3,i,0.029,2,N,4.0
NS4,27.0,50.0,28.0,62.0,47.0,62,1830.0,square3,i,0.243,2,N,4.0
NS4,28.0,54.0,28.0,58.0,49.0,58,1888.0,square3,i,0.626,2,N,4.0
NS4,29.0,44.0,29.0,50.0,49.0,50,1938.0,square3,i,0.269,2,N,4.0
NS4,30.0,43.0,26.0,55.0,57.0,55,1993.0,square3,i,0.772,2,N,4.0
NS4,31.0,43.0,25.0,60.0,54.0,43,2036.0,square1,r,0.161,0,N,4.0
NS4,32.0,34.0,27.0,58.0,56.0,27,2063.0,square2,f,0.563,1,N,4.0
NS4,33.0,34.0,20.0,60.0,62.0,62,2125.0,square4,j,0.279,3,N,4.0
NS4,34.0,38.0,28.0,58.0,57.0,58,2183.0,square3,i,0.248,2,N,4.0
NS4,35.0,40.0,24.0,63.0,59.0,59,2242.0,square4,j,0.163,3,N,4.0
NS4,36.0,36.0,30.0,56.0,63.0,63,2305.0,square4,j,0.7,3,N,4.0
NS4,37.0,40.0,29.0,54.0,63.0,54,2359.0,square3,i,0.026,2,N,4.0
NS4,38.0,40.0,33.0,53.0,69.0,69,2428.0,square4,j,0.26,3,N,4.0
NS4,39.0,36.0,30.0,57.0,67.0,67,2495.0,square4,j,0.561,3,N,4.0
NS4,40.0,33.0,33.0,58.0,68.0,68,2563.0,square4,j,0.313,3,N,4.0
NS4,41.0,34.0,28.0,58.0,72.0,72,2635.0,square4,j,0.195,3,N,4.0
NS4,42.0,35.0,30.0,60.0,70.0,70,2705.0,square4,j,0.35,3,N,4.0
NS4,43.0,35.0,34.0,57.0,63.0,63,2768.0,square4,j,0.222,3,N,4.0
NS4,44.0,30.0,32.0,59.0,69.0,69,2837.0,square4,j,0.302,3,N,4.0
NS4,45.0,29.0,31.0,60.0,66.0,66,2903.0,square4,j,0.193,3,N,4.0
NS4,46.0,35.0,34.0,66.0,66.0,66,2969.0,square4,j,0.31,3,N,4.0
NS4,47.0,35.0,28.0,63.0,62.0,62,3031.0,square4,j,0.226,3,N,4.0
NS4,48.0,37.0,37.0,61.0,55.0,55,3086.0,square4,j,0.3,3,N,4.0
NS4,49.0,40.0,34.0,59.0,54.0,40,3126.0,square1,r,0.003,0,N,4.0
NS4,50.0,39.0,38.0,68.0,51.0,68,3194.0,square3,i,0.563,2,N,4.0
NS4,51.0,46.0,28.0,69.0,48.0,28,3222.0,square2,f,0.009,1,N,4.0
NS4,52.0,40.0,34.0,62.0,49.0,49,3271.0,square4,j,0.696,3,N,4.0
NS4,53.0,39.0,34.0,63.0,48.0,63,3334.0,square3,i,0.58,2,N,4.0
NS4,54.0,44.0,31.0,58.0,47.0,58,3392.0,square3,i,0.231,2,N,4.0
NS4,55.0,42.0,30.0,68.0,46.0,68,3460.0,square3,i,0.434,2,N,4.0
NS4,56.0,36.0,25.0,69.0,44.0,69,3529.0,square3,i,0.004,2,N,4.0
NS4,57.0,35.0,29.0,71.0,46.0,71,3600.0,square3,i,0.43,2,N,4.0
NS4,58.0,43.0,28.0,68.0,47.0,68,3668.0,square3,i,0.361,2,N,4.0
NS4,59.0,43.0,27.0,67.0,43.0,67,3735.0,square3,i,0.219,2,N,4.0
NS4,60.0,40.0,25.0,72.0,46.0,72,3807.0,square3,i,0.265,2,N,4.0
NS4,61.0,39.0,32.0,63.0,43.0,63,3870.0,square3,i,0.311,2,N,4.0
NS4,62.0,39.0,29.0,61.0,39.0,61,3931.0,square3,i,0.167,2,N,4.0
NS4,63.0,41.0,28.0,59.0,40.0,59,3990.0,square3,i,0.45,2,N,4.0
NS4,64.0,41.0,31.0,57.0,51.0,51,4041.0,square4,j,0.587,3,N,4.0
NS4,65.0,46.0,36.0,59.0,58.0,46,4087.0,square1,r,0.756,0,N,4.0
NS4,66.0,45.0,36.0,53.0,46.0,36,4123.0,square2,f,0.018,1,N,4.0
NS4,67.0,40.0,34.0,49.0,46.0,49,4172.0,square3,i,0.15,2,N,4.0
NS4,68.0,43.0,37.0,48.0,48.0,48,4220.0,square4,j,0.293,3,N,4.0
NS4,69.0,42.0,36.0,44.0,56.0,56,4276.0,square4,j,0.032,3,N,4.0
NS4,70.0,40.0,38.0,47.0,58.0,47,4323.0,square3,i,0.127,2,N,4.0
NS4,71.0,36.0,34.0,42.0,63.0,63,4386.0,square4,j,0.36,3,N,4.0
NS4,72.0,38.0,36.0,36.0,66.0,38,4424.0,square1,r,0.263,0,N,4.0
NS4,73.0,36.0,40.0,40.0,66.0,66,4490.0,square4,j,0.145,3,N,4.0
NS4,74.0,31.0,38.0,46.0,67.0,46,4536.0,square3,i,0.304,2,N,4.0
NS4,75.0,40.0,33.0,42.0,64.0,64,4600.0,square4,j,0.078,3,N,4.0
NS4,76.0,38.0,35.0,42.0,64.0,64,4664.0,square4,j,0.098,3,N,4.0
NS4,77.0,40.0,35.0,39.0,66.0,66,4730.0,square4,j,0.455,3,N,4.0
NS4,78.0,40.0,33.0,38.0,68.0,68,4798.0,square4,j,0.585,3,N,4.0
NS4,79.0,40.0,38.0,31.0,70.0,70,4868.0,square4,j,0.393,3,N,4.0
NS4,80.0,37.0,35.0,33.0,73.0,73,4941.0,square4,j,0.115,3,N,4.0
NS4,81.0,34.0,35.0,30.0,70.0,70,5011.0,square4,j,0.146,3,N,4.0
NS4,82.0,35.0,37.0,31.0,66.0,66,5077.0,square4,j,0.385,3,N,4.0
NS4,83.0,42.0,32.0,28.0,67.0,67,5144.0,square4,j,0.203,3,N,4.0
NS4,84.0,38.0,35.0,30.0,68.0,68,5212.0,square4,j,0.242,3,N,4.0
NS4,85.0,43.0,35.0,32.0,64.0,64,5276.0,square4,j,0.277,3,N,4.0
NS4,86.0,49.0,35.0,32.0,70.0,70,5346.0,square4,j,0.494,3,N,4.0
NS4,87.0,48.0,34.0,32.0,69.0,69,5415.0,square4,j,0.282,3,N,4.0
NS4,88.0,50.0,35.0,30.0,64.0,64,5479.0,square4,j,0.196,3,N,4.0
NS4,89.0,48.0,34.0,32.0,68.0,68,5547.0,square4,j,0.246,3,N,4.0
NS4,90.0,53.0,29.0,27.0,68.0,27,5574.0,square3,i,0.011,2,N,4.0
NS4,91.0,54.0,27.0,34.0,68.0,68,5642.0,square4,j,0.16,3,N,4.0
NS4,92.0,52.0,20.0,35.0,69.0,69,5711.0,square4,j,0.177,3,N,4.0
NS4,93.0,42.0,15.0,33.0,68.0,68,5779.0,square4,j,0.094,3,N,4.0
NS4,94.0,40.0,24.0,37.0,72.0,72,5851.0,square4,j,0.286,3,N,4.0
NS4,95.0,43.0,25.0,43.0,69.0,69,5920.0,square4,j,0.338,3,N,4.0
NS4,96.0,41.0,29.0,43.0,74.0,74,5994.0,square4,j,0.205,3,N,4.0
NS4,97.0,46.0,32.0,42.0,78.0,78,6072.0,square4,j,0.462,3,N,4.0
NS4,98.0,48.0,26.0,46.0,75.0,75,6147.0,square4,j,0.361,3,N,4.0
NS4,99.0,46.0,27.0,45.0,71.0,71,6218.0,square4,j,0.628,3,N,4.0
NS6,0.0,68.0,18.0,30.0,58.0,30,30.0,square3,r,1.251,2,N,6.0
NS6,1.0,62.0,23.0,38.0,67.0,67,97.0,square4,i,0.376,3,N,6.0
NS6,2.0,59.0,30.0,33.0,67.0,30,127.0,square2,j,0.281,1,N,6.0
NS6,3.0,62.0,27.0,39.0,65.0,62,189.0,square1,f,0.146,0,N,6.0
NS6,4.0,65.0,22.0,32.0,67.0,67,256.0,square4,i,0.111,3,N,6.0
NS6,5.0,61.0,28.0,39.0,67.0,67,323.0,square4,i,0.043,3,N,6.0
NS6,6.0,59.0,28.0,39.0,66.0,66,389.0,square4,i,0.001,3,N,6.0
NS6,7.0,56.0,30.0,43.0,63.0,63,452.0,square4,i,0.018,3,N,6.0
NS6,8.0,57.0,26.0,36.0,60.0,60,512.0,square4,i,0.044,3,N,6.0
NS6,9.0,51.0,30.0,38.0,65.0,51,563.0,square1,f,0.109,0,N,6.0
NS6,10.0,46.0,26.0,41.0,61.0,61,624.0,square4,i,0.06,3,N,6.0
NS6,11.0,46.0,30.0,40.0,58.0,40,664.0,square3,r,0.332,2,N,6.0
NS6,12.0,44.0,27.0,41.0,56.0,27,691.0,square2,j,0.012,1,N,6.0
NS6,13.0,41.0,32.0,44.0,54.0,54,745.0,square4,i,0.118,3,N,6.0
NS6,14.0,45.0,36.0,41.0,51.0,51,796.0,square4,i,0.447,3,N,6.0
NS6,15.0,37.0,34.0,39.0,54.0,54,850.0,square4,i,0.127,3,N,6.0
NS6,16.0,36.0,37.0,39.0,48.0,36,886.0,square1,f,0.159,0,N,6.0
NS6,17.0,41.0,39.0,36.0,45.0,45,931.0,square4,i,0.189,3,N,6.0
NS6,18.0,39.0,38.0,29.0,48.0,48,979.0,square4,i,0.226,3,N,6.0
NS6,19.0,35.0,40.0,32.0,46.0,46,1025.0,square4,i,0.134,3,N,6.0
NS6,20.0,41.0,40.0,28.0,55.0,55,1080.0,square4,i,0.063,3,N,6.0
NS6,21.0,45.0,44.0,27.0,54.0,54,1134.0,square4,i,0.205,3,N,6.0
NS6,22.0,44.0,51.0,31.0,53.0,53,1187.0,square4,i,0.129,3,N,6.0
NS6,23.0,44.0,50.0,29.0,53.0,50,1237.0,square2,j,0.0,1,N,6.0
NS6,24.0,49.0,49.0,35.0,55.0,35,1272.0,square3,r,0.051,2,N,6.0
NS6,25.0,44.0,51.0,36.0,56.0,44,1316.0,square1,f,0.001,0,N,6.0
NS6,26.0,43.0,46.0,38.0,58.0,58,1374.0,square4,i,0.445,3,N,6.0
NS6,27.0,41.0,44.0,41.0,59.0,59,1433.0,square4,i,0.244,3,N,6.0
NS6,28.0,38.0,47.0,39.0,58.0,58,1491.0,square4,i,0.161,3,N,6.0
NS6,29.0,39.0,46.0,37.0,54.0,54,1545.0,square4,i,0.264,3,N,6.0
NS6,30.0,36.0,49.0,40.0,53.0,53,1598.0,square4,i,0.01,3,N,6.0
NS6,31.0,37.0,45.0,36.0,55.0,55,1653.0,square4,i,0.543,3,N,6.0
NS6,32.0,42.0,42.0,40.0,56.0,56,1709.0,square4,i,0.212,3,N,6.0
NS6,33.0,33.0,44.0,32.0,53.0,53,1762.0,square4,i,0.053,3,N,6.0
NS6,34.0,32.0,42.0,36.0,49.0,49,1811.0,square4,i,0.452,3,N,6.0
NS6,35.0,35.0,28.0,38.0,51.0,35,1846.0,square1,f,0.01,0,N,6.0
NS6,36.0,38.0,28.0,35.0,52.0,35,1881.0,square3,r,0.635,2,N,6.0
NS6,37.0,44.0,31.0,37.0,55.0,31,1912.0,square2,j,0.037,1,N,6.0
NS6,38.0,36.0,31.0,36.0,54.0,54,1966.0,square4,i,0.0,3,N,6.0
NS6,39.0,40.0,29.0,41.0,60.0,60,2026.0,square4,i,0.594,3,N,6.0
NS6,40.0,46.0,33.0,36.0,62.0,62,2088.0,square4,i,0.404,3,N,6.0
NS6,41.0,44.0,38.0,34.0,63.0,63,2151.0,square4,i,0.611,3,N,6.0
NS6,42.0,43.0,32.0,29.0,59.0,59,2210.0,square4,i,0.212,3,N,6.0
NS6,43.0,47.0,29.0,38.0,61.0,61,2271.0,square4,i,0.545,3,N,6.0
NS6,44.0,49.0,33.0,36.0,56.0,56,2327.0,square4,i,0.269,3,N,6.0
NS6,45.0,51.0,29.0,32.0,60.0,60,2387.0,square4,i,0.052,3,N,6.0
NS6,46.0,52.0,36.0,41.0,64.0,64,2451.0,square4,i,0.62,3,N,6.0
NS6,47.0,55.0,35.0,46.0,60.0,60,2511.0,square4,i,0.471,3,N,6.0
NS6,48.0,57.0,34.0,40.0,64.0,64,2575.0,square4,i,0.303,3,N,6.0
NS6,49.0,54.0,37.0,42.0,59.0,59,2634.0,square4,i,0.834,3,N,6.0
NS6,50.0,58.0,40.0,35.0,51.0,51,2685.0,square4,i,0.038,3,N,6.0
NS6,51.0,64.0,35.0,36.0,53.0,53,2738.0,square4,i,0.381,3,N,6.0
NS6,52.0,60.0,37.0,30.0,52.0,52,2790.0,square4,i,0.261,3,N,6.0
NS6,53.0,63.0,40.0,30.0,54.0,54,2844.0,square4,i,0.192,3,N,6.0
NS6,54.0,60.0,37.0,30.0,53.0,53,2897.0,square4,i,0.088,3,N,6.0
NS6,55.0,57.0,40.0,29.0,50.0,50,2947.0,square4,i,0.162,3,N,6.0
NS6,56.0,58.0,30.0,30.0,46.0,46,2993.0,square4,i,0.202,3,N,6.0
NS6,57.0,64.0,34.0,31.0,45.0,31,3024.0,square3,r,0.013,2,N,6.0
NS6,58.0,66.0,31.0,34.0,48.0,66,3090.0,square1,f,0.782,0,N,6.0
NS6,59.0,68.0,31.0,35.0,44.0,31,3121.0,square2,j,0.305,1,N,6.0
NS6,60.0,65.0,28.0,27.0,49.0,49,3170.0,square4,i,0.658,3,N,6.0
NS6,61.0,67.0,29.0,25.0,47.0,67,3237.0,square1,f,0.464,0,N,6.0
NS6,62.0,67.0,31.0,27.0,41.0,67,3304.0,square1,f,0.287,0,N,6.0
NS6,63.0,69.0,32.0,24.0,45.0,69,3373.0,square1,f,0.349,0,N,6.0
NS6,64.0,72.0,41.0,30.0,50.0,72,3445.0,square1,f,0.278,0,N,6.0
NS6,65.0,75.0,35.0,33.0,50.0,75,3520.0,square1,f,0.065,0,N,6.0
NS6,66.0,71.0,37.0,26.0,49.0,71,3591.0,square1,f,0.09,0,N,6.0
NS6,67.0,74.0,34.0,21.0,49.0,74,3665.0,square1,f,0.037,0,N,6.0
NS6,68.0,81.0,37.0,27.0,50.0,81,3746.0,square1,f,0.07,0,N,6.0
NS6,69.0,80.0,31.0,25.0,49.0,80,3826.0,square1,f,0.467,0,N,6.0
NS6,70.0,83.0,33.0,31.0,46.0,83,3909.0,square1,f,0.494,0,N,6.0
NS6,71.0,75.0,33.0,34.0,53.0,75,3984.0,square1,f,0.114,0,N,6.0
NS6,72.0,73.0,39.0,32.0,55.0,73,4057.0,square1,f,0.112,0,N,6.0
NS6,73.0,74.0,40.0,33.0,53.0,74,4131.0,square1,f,0.176,0,N,6.0
NS6,74.0,73.0,46.0,32.0,50.0,73,4204.0,square1,f,0.11,0,N,6.0
NS6,75.0,71.0,40.0,32.0,49.0,71,4275.0,square1,f,0.082,0,N,6.0
NS6,76.0,65.0,43.0,31.0,56.0,99999,4275.0,invalid,,,-1,N,6.0
NS6,77.0,66.0,41.0,33.0,56.0,66,4341.0,square1,f,0.515,0,N,6.0
NS6,78.0,71.0,40.0,38.0,64.0,99999,4341.0,invalid,,,-1,N,6.0
NS6,79.0,69.0,36.0,35.0,62.0,69,4410.0,square1,f,0.541,0,N,6.0
NS6,80.0,69.0,34.0,37.0,69.0,69,4479.0,square1,f,0.258,0,N,6.0
NS6,81.0,70.0,37.0,37.0,71.0,70,4549.0,square1,f,0.371,0,N,6.0
NS6,82.0,68.0,38.0,39.0,66.0,68,4617.0,square1,f,0.082,0,N,6.0
NS6,83.0,69.0,42.0,41.0,73.0,69,4686.0,square1,f,0.246,0,N,6.0
NS6,84.0,62.0,42.0,42.0,70.0,70,4756.0,square4,i,0.231,3,N,6.0
NS6,85.0,57.0,45.0,42.0,77.0,57,4813.0,square1,f,0.231,0,N,6.0
NS6,86.0,58.0,47.0,44.0,70.0,70,4883.0,square4,i,0.181,3,N,6.0
NS6,87.0,62.0,44.0,52.0,73.0,73,4956.0,square4,i,0.496,3,N,6.0
NS6,88.0,62.0,45.0,47.0,72.0,72,5028.0,square4,i,0.32,3,N,6.0
NS6,89.0,59.0,50.0,47.0,73.0,73,5101.0,square4,i,0.103,3,N,6.0
NS6,90.0,55.0,45.0,44.0,68.0,68,5169.0,square4,i,0.055,3,N,6.0
NS6,91.0,55.0,51.0,47.0,67.0,67,5236.0,square4,i,0.125,3,N,6.0
NS6,92.0,62.0,52.0,35.0,69.0,69,5305.0,square4,i,0.551,3,N,6.0
NS6,93.0,59.0,47.0,32.0,68.0,68,5373.0,square4,i,0.261,3,N,6.0
NS6,94.0,67.0,53.0,44.0,66.0,66,5439.0,square4,i,0.134,3,N,6.0
NS6,95.0,71.0,44.0,47.0,66.0,66,5505.0,square4,i,0.104,3,N,6.0
NS6,96.0,68.0,53.0,47.0,66.0,66,5571.0,square4,i,0.331,3,N,6.0
NS6,97.0,65.0,49.0,44.0,64.0,64,5635.0,square4,i,0.182,3,N,6.0
NS6,98.0,66.0,54.0,55.0,57.0,57,5692.0,square4,i,0.059,3,N,6.0
NS6,99.0,69.0,57.0,51.0,56.0,69,5761.0,square1,f,0.444,0,N,6.0
NS3,0.0,52.0,26.0,68.0,52.0,26,26.0,square2,r,1.199,1,N,3.0
NS3,1.0,57.0,23.0,69.0,48.0,57,83.0,square1,i,0.118,0,N,3.0
NS3,2.0,59.0,26.0,70.0,52.0,52,135.0,square4,j,0.248,3,N,3.0
NS3,3.0,57.0,24.0,70.0,52.0,70,205.0,square3,f,0.293,2,N,3.0
NS3,4.0,59.0,30.0,74.0,49.0,74,279.0,square3,f,0.276,2,N,3.0
NS3,5.0,55.0,24.0,67.0,51.0,67,346.0,square3,f,0.117,2,N,3.0
NS3,6.0,54.0,27.0,73.0,55.0,73,419.0,square3,f,0.027,2,N,3.0
NS3,7.0,55.0,28.0,66.0,43.0,66,485.0,square3,f,0.1,2,N,3.0
NS3,8.0,57.0,30.0,65.0,45.0,65,550.0,square3,f,0.094,2,N,3.0
NS3,9.0,53.0,33.0,54.0,37.0,54,604.0,square3,f,0.099,2,N,3.0
NS3,10.0,46.0,27.0,54.0,43.0,54,658.0,square3,f,0.117,2,N,3.0
NS3,11.0,48.0,31.0,58.0,51.0,48,706.0,square1,i,0.331,0,N,3.0
NS3,12.0,50.0,27.0,54.0,53.0,53,759.0,square4,j,0.093,3,N,3.0
NS3,13.0,49.0,28.0,62.0,50.0,62,821.0,square3,f,0.16,2,N,3.0
NS3,14.0,53.0,28.0,62.0,52.0,62,883.0,square3,f,0.166,2,N,3.0
NS3,15.0,52.0,25.0,57.0,57.0,57,940.0,square3,f,0.067,2,N,3.0
NS3,16.0,48.0,29.0,56.0,56.0,56,996.0,square3,f,0.06,2,N,3.0
NS3,17.0,39.0,21.0,58.0,56.0,58,1054.0,square3,f,0.098,2,N,3.0
NS3,18.0,40.0,23.0,58.0,60.0,58,1112.0,square3,f,0.185,2,N,3.0
NS3,19.0,40.0,26.0,63.0,58.0,63,1175.0,square3,f,0.098,2,N,3.0
NS3,20.0,46.0,24.0,60.0,56.0,60,1235.0,square3,f,0.146,2,N,3.0
NS3,21.0,42.0,27.0,61.0,55.0,61,1296.0,square3,f,0.034,2,N,3.0
NS3,22.0,45.0,26.0,62.0,56.0,62,1358.0,square3,f,0.154,2,N,3.0
NS3,23.0,39.0,21.0,64.0,60.0,60,1418.0,square4,j,0.03,3,N,3.0
NS3,24.0,44.0,21.0,59.0,64.0,44,1462.0,square1,i,0.129,0,N,3.0
NS3,25.0,44.0,22.0,58.0,65.0,22,1484.0,square2,r,0.139,1,N,3.0
NS3,26.0,42.0,26.0,60.0,62.0,60,1544.0,square3,f,0.08,2,N,3.0
NS3,27.0,38.0,18.0,55.0,67.0,67,1611.0,square4,j,0.127,3,N,3.0
NS3,28.0,41.0,23.0,56.0,60.0,60,1671.0,square4,j,0.415,3,N,3.0
NS3,29.0,38.0,16.0,52.0,66.0,52,1723.0,square3,f,0.117,2,N,3.0
NS3,30.0,36.0,13.0,61.0,64.0,64,1787.0,square4,j,0.155,3,N,3.0
NS3,31.0,42.0,13.0,54.0,63.0,63,1850.0,square4,j,0.057,3,N,3.0
NS3,32.0,38.0,18.0,50.0,62.0,62,1912.0,square4,j,0.345,3,N,3.0
NS3,33.0,29.0,20.0,51.0,64.0,64,1976.0,square4,j,0.429,3,N,3.0
NS3,34.0,32.0,21.0,45.0,63.0,63,2039.0,square4,j,0.128,3,N,3.0
NS3,35.0,30.0,17.0,46.0,65.0,65,2104.0,square4,j,0.104,3,N,3.0
NS3,36.0,35.0,16.0,47.0,69.0,69,2173.0,square4,j,0.646,3,N,3.0
NS3,37.0,34.0,18.0,45.0,68.0,68,2241.0,square4,j,0.22,3,N,3.0
NS3,38.0,40.0,14.0,50.0,74.0,74,2315.0,square4,j,0.088,3,N,3.0
NS3,39.0,39.0,15.0,49.0,73.0,73,2388.0,square4,j,0.143,3,N,3.0
NS3,40.0,42.0,15.0,51.0,74.0,74,2462.0,square4,j,0.196,3,N,3.0
NS3,41.0,38.0,17.0,43.0,74.0,74,2536.0,square4,j,0.036,3,N,3.0
NS3,42.0,36.0,16.0,46.0,74.0,74,2610.0,square4,j,0.176,3,N,3.0
NS3,43.0,41.0,21.0,44.0,76.0,76,2686.0,square4,j,0.079,3,N,3.0
NS3,44.0,41.0,26.0,35.0,70.0,70,2756.0,square4,j,0.591,3,N,3.0
NS3,45.0,39.0,27.0,33.0,75.0,75,2831.0,square4,j,0.194,3,N,3.0
NS3,46.0,45.0,25.0,38.0,77.0,77,2908.0,square4,j,0.129,3,N,3.0
NS3,47.0,41.0,20.0,34.0,76.0,76,2984.0,square4,j,0.061,3,N,3.0
NS3,48.0,37.0,25.0,34.0,77.0,77,3061.0,square4,j,0.051,3,N,3.0
NS3,49.0,41.0,18.0,40.0,78.0,78,3139.0,square4,j,0.179,3,N,3.0
NS3,50.0,42.0,17.0,41.0,83.0,83,3222.0,square4,j,0.16,3,N,3.0
NS3,51.0,53.0,18.0,39.0,83.0,83,3305.0,square4,j,0.079,3,N,3.0
NS3,52.0,55.0,19.0,34.0,82.0,82,3387.0,square4,j,0.512,3,N,3.0
NS3,53.0,52.0,17.0,39.0,77.0,77,3464.0,square4,j,0.178,3,N,3.0
NS3,54.0,55.0,21.0,46.0,77.0,77,3541.0,square4,j,0.285,3,N,3.0
NS3,55.0,48.0,21.0,49.0,75.0,75,3616.0,square4,j,0.077,3,N,3.0
NS3,56.0,50.0,25.0,51.0,74.0,74,3690.0,square4,j,0.41,3,N,3.0
NS3,57.0,54.0,23.0,46.0,66.0,66,3756.0,square4,j,0.001,3,N,3.0
NS3,58.0,60.0,25.0,50.0,72.0,72,3828.0,square4,j,0.685,3,N,3.0
NS3,59.0,54.0,23.0,46.0,72.0,72,3900.0,square4,j,0.145,3,N,3.0
NS3,60.0,51.0,26.0,50.0,72.0,72,3972.0,square4,j,0.377,3,N,3.0
NS3,61.0,57.0,27.0,54.0,71.0,71,4043.0,square4,j,0.344,3,N,3.0
NS3,62.0,51.0,27.0,54.0,64.0,64,4107.0,square4,j,0.332,3,N,3.0
NS3,63.0,54.0,25.0,42.0,62.0,62,4169.0,square4,j,0.264,3,N,3.0
NS3,64.0,54.0,25.0,47.0,62.0,47,4216.0,square3,f,0.026,2,N,3.0
NS3,65.0,48.0,26.0,45.0,60.0,48,4264.0,square1,i,0.0,0,N,3.0
NS3,66.0,49.0,22.0,47.0,60.0,60,4324.0,square4,j,0.78,3,N,3.0
NS3,67.0,49.0,26.0,45.0,65.0,26,4350.0,square2,r,0.151,1,N,3.0
NS3,68.0,54.0,26.0,47.0,67.0,67,4417.0,square4,j,0.144,3,N,3.0
NS3,69.0,48.0,22.0,45.0,56.0,56,4473.0,square4,j,0.69,3,N,3.0
NS3,70.0,55.0,26.0,48.0,61.0,61,4534.0,square4,j,0.244,3,N,3.0
NS3,71.0,55.0,29.0,43.0,60.0,60,4594.0,square4,j,0.843,3,N,3.0
NS3,72.0,56.0,30.0,43.0,51.0,51,4645.0,square4,j,0.261,3,N,3.0
NS3,73.0,55.0,27.0,47.0,56.0,56,4701.0,square4,j,0.627,3,N,3.0
NS3,74.0,63.0,26.0,44.0,55.0,55,4756.0,square4,j,0.088,3,N,3.0
NS3,75.0,61.0,34.0,45.0,62.0,62,4818.0,square4,j,0.01,3,N,3.0
NS3,76.0,55.0,28.0,45.0,62.0,62,4880.0,square4,j,0.661,3,N,3.0
NS3,77.0,58.0,31.0,53.0,66.0,66,4946.0,square4,j,0.343,3,N,3.0
NS3,78.0,55.0,29.0,51.0,60.0,60,5006.0,square4,j,0.33,3,N,3.0
NS3,79.0,51.0,29.0,52.0,68.0,68,5074.0,square4,j,0.244,3,N,3.0
NS3,80.0,55.0,31.0,48.0,59.0,59,5133.0,square4,j,0.009,3,N,3.0
NS3,81.0,56.0,38.0,56.0,64.0,64,5197.0,square4,j,0.071,3,N,3.0
NS3,82.0,54.0,27.0,54.0,55.0,54,5251.0,square3,f,0.329,2,N,3.0
NS3,83.0,62.0,30.0,49.0,58.0,58,5309.0,square4,j,0.047,3,N,3.0
NS3,84.0,64.0,24.0,47.0,62.0,64,5373.0,square1,i,0.594,0,N,3.0
NS3,85.0,65.0,23.0,54.0,63.0,23,5396.0,square2,r,0.338,1,N,3.0
NS3,86.0,68.0,25.0,56.0,65.0,68,5464.0,square1,i,0.113,0,N,3.0
NS3,87.0,65.0,22.0,55.0,60.0,60,5524.0,square4,j,0.281,3,N,3.0
NS3,88.0,64.0,20.0,58.0,65.0,64,5588.0,square1,i,0.348,0,N,3.0
NS3,89.0,68.0,13.0,62.0,64.0,68,5656.0,square1,i,0.046,0,N,3.0
NS3,90.0,72.0,13.0,52.0,64.0,72,5728.0,square1,i,0.247,0,N,3.0
NS3,91.0,67.0,20.0,52.0,69.0,67,5795.0,square1,i,0.217,0,N,3.0
NS3,92.0,72.0,21.0,58.0,64.0,72,5867.0,square1,i,0.194,0,N,3.0
NS3,93.0,73.0,16.0,54.0,67.0,73,5940.0,square1,i,0.18,0,N,3.0
NS3,94.0,69.0,17.0,51.0,64.0,69,6009.0,square1,i,0.083,0,N,3.0
NS3,95.0,62.0,19.0,60.0,62.0,60,6069.0,square3,f,0.307,2,N,3.0
NS3,96.0,67.0,15.0,56.0,67.0,67,6136.0,square1,i,0.447,0,N,3.0
NS3,97.0,61.0,17.0,58.0,62.0,62,6198.0,square4,j,0.133,3,N,3.0
NS3,98.0,59.0,13.0,58.0,58.0,59,6257.0,square1,i,0.078,0,N,3.0
NS3,99.0,62.0,15.0,51.0,60.0,60,6317.0,square4,j,0.137,3,N,3.0
