block,Trial,square1,square2,square3,square4,currPoints,totalPoints,square,choiceKey.keys,choiceKey.rt,armNum,blockType,blockNum
prac,0.0,100.0,0.0,0.0,0.0,99999,0.0,invalid,,,-1,p,0.0
prac,1.0,100.0,0.0,0.0,0.0,100,100.0,square1,,,0,p,0.0
prac,2.0,100.0,0.0,0.0,0.0,0,100.0,square3,,,2,p,0.0
prac,3.0,100.0,0.0,0.0,0.0,0,100.0,square4,,,3,p,0.0
prac,4.0,100.0,0.0,0.0,0.0,0,100.0,square2,,,1,p,0.0
prac,5.0,100.0,0.0,0.0,0.0,100,200.0,square1,,,0,p,0.0
prac,6.0,100.0,0.0,0.0,0.0,100,300.0,square1,,,0,p,0.0
prac,7.0,100.0,0.0,0.0,0.0,100,400.0,square1,,,0,p,0.0
prac,8.0,100.0,0.0,0.0,0.0,100,500.0,square1,,,0,p,0.0
prac,9.0,100.0,0.0,0.0,0.0,0,500.0,square3,,,2,p,0.0
V3,0.0,62.0,45.0,70.0,53.0,70,70.0,square3,f,0.564,2,V,3.0
V3,1.0,63.0,47.0,76.0,60.0,60,130.0,square4,r,0.3812,3,V,3.0
V3,2.0,65.0,54.0,73.0,57.0,54,184.0,square2,i,0.442,1,V,3.0
V3,3.0,68.0,51.0,71.0,51.0,71,255.0,square3,f,0.3215,2,V,3.0
V3,4.0,61.0,49.0,75.0,53.0,75,330.0,square3,f,0.2665,2,V,3.0
V3,5.0,65.0,47.0,74.0,50.0,65,395.0,square1,j,0.1241,0,V,3.0
V3,6.0,61.0,51.0,72.0,57.0,72,467.0,square3,f,0.1068,2,V,3.0
V3,7.0,67.0,49.0,75.0,55.0,75,542.0,square3,f,0.0333,2,V,3.0
V3,8.0,64.0,48.0,76.0,56.0,76,618.0,square3,f,0.0266,2,V,3.0
V3,9.0,67.0,49.0,71.0,56.0,71,689.0,square3,f,0.1146,2,V,3.0
V3,10.0,65.0,50.0,71.0,56.0,56,745.0,square4,r,0.0585,3,V,3.0
V3,11.0,63.0,43.0,78.0,58.0,43,788.0,square2,i,0.0607,1,V,3.0
V3,12.0,66.0,53.0,73.0,54.0,66,854.0,square1,j,0.11,0,V,3.0
V3,13.0,64.0,46.0,78.0,51.0,78,932.0,square3,f,0.0607,2,V,3.0
V3,14.0,67.0,51.0,71.0,58.0,71,1003.0,square3,f,0.0837,2,V,3.0
V3,15.0,61.0,50.0,73.0,54.0,73,1076.0,square3,f,0.0008,2,V,3.0
V3,16.0,64.0,52.0,74.0,54.0,74,1150.0,square3,f,0.0014,2,V,3.0
V3,17.0,61.0,48.0,74.0,55.0,74,1224.0,square3,f,0.013,2,V,3.0
V3,18.0,65.0,50.0,70.0,59.0,70,1294.0,square3,f,0.0165,2,V,3.0
V3,19.0,64.0,52.0,76.0,56.0,76,1370.0,square3,f,0.0417,2,V,3.0
V3,20.0,64.0,50.0,69.0,58.0,69,1439.0,square3,f,0.0986,2,V,3.0
V3,21.0,66.0,50.0,72.0,56.0,56,1495.0,square4,r,0.0059,3,V,3.0
V3,22.0,43.0,48.0,40.0,62.0,48,1543.0,square2,i,0.1098,1,V,3.0
V3,23.0,41.0,51.0,35.0,59.0,41,1584.0,square1,j,0.0091,0,V,3.0
V3,24.0,51.0,51.0,37.0,60.0,37,1621.0,square3,f,0.0984,2,V,3.0
V3,25.0,45.0,53.0,36.0,57.0,57,1678.0,square4,r,0.0284,3,V,3.0
V3,26.0,44.0,51.0,38.0,59.0,51,1729.0,square2,i,0.1095,1,V,3.0
V3,27.0,43.0,51.0,34.0,66.0,43,1772.0,square1,j,0.1007,0,V,3.0
V3,28.0,47.0,51.0,40.0,67.0,67,1839.0,square4,r,0.1183,3,V,3.0
V3,29.0,42.0,55.0,35.0,65.0,65,1904.0,square4,r,0.0752,3,V,3.0
V3,30.0,49.0,54.0,36.0,62.0,62,1966.0,square4,r,0.0679,3,V,3.0
V3,31.0,50.0,53.0,42.0,66.0,66,2032.0,square4,r,0.0729,3,V,3.0
V3,32.0,47.0,53.0,34.0,58.0,58,2090.0,square4,r,0.1232,3,V,3.0
V3,33.0,45.0,56.0,34.0,62.0,62,2152.0,square4,r,0.0091,3,V,3.0
V3,34.0,48.0,54.0,38.0,64.0,64,2216.0,square4,r,0.1184,3,V,3.0
V3,35.0,39.0,55.0,42.0,65.0,42,2258.0,square3,f,0.0917,2,V,3.0
V3,36.0,46.0,57.0,41.0,63.0,63,2321.0,square4,r,0.1409,3,V,3.0
V3,37.0,43.0,54.0,41.0,65.0,65,2386.0,square4,r,0.1011,3,V,3.0
V3,38.0,47.0,52.0,37.0,63.0,52,2438.0,square2,i,0.1448,1,V,3.0
V3,39.0,47.0,53.0,38.0,55.0,47,2485.0,square1,j,0.045,0,V,3.0
V3,40.0,41.0,54.0,39.0,64.0,64,2549.0,square4,r,0.0007,3,V,3.0
V3,41.0,48.0,52.0,38.0,64.0,64,2613.0,square4,r,0.1179,3,V,3.0
V3,42.0,45.0,50.0,34.0,63.0,63,2676.0,square4,r,0.122,3,V,3.0
V3,43.0,44.0,50.0,34.0,62.0,62,2738.0,square4,r,0.197,3,V,3.0
V3,44.0,47.0,55.0,39.0,65.0,65,2803.0,square4,r,0.1653,3,V,3.0
V3,45.0,45.0,55.0,31.0,63.0,63,2866.0,square4,r,0.0844,3,V,3.0
V3,46.0,42.0,52.0,38.0,64.0,64,2930.0,square4,r,0.1066,3,V,3.0
V3,47.0,44.0,53.0,37.0,55.0,55,2985.0,square4,r,0.1118,3,V,3.0
V3,48.0,44.0,49.0,37.0,58.0,37,3022.0,square3,f,0.1176,2,V,3.0
V3,49.0,48.0,58.0,35.0,54.0,58,3080.0,square2,i,0.1819,1,V,3.0
V3,50.0,42.0,28.0,30.0,52.0,42,3122.0,square1,j,0.0775,0,V,3.0
V3,51.0,46.0,29.0,32.0,51.0,29,3151.0,square2,i,0.0365,1,V,3.0
V3,52.0,37.0,20.0,36.0,50.0,50,3201.0,square4,r,0.1607,3,V,3.0
V3,53.0,44.0,22.0,34.0,55.0,34,3235.0,square3,f,0.0653,2,V,3.0
V3,54.0,37.0,27.0,26.0,50.0,37,3272.0,square1,j,0.0922,0,V,3.0
V3,55.0,41.0,21.0,39.0,53.0,53,3325.0,square4,r,0.1818,3,V,3.0
V3,56.0,40.0,20.0,38.0,51.0,20,3345.0,square2,i,0.1158,1,V,3.0
V3,57.0,44.0,28.0,31.0,57.0,57,3402.0,square4,r,0.0078,3,V,3.0
V3,58.0,46.0,20.0,28.0,49.0,49,3451.0,square4,r,0.124,3,V,3.0
V3,59.0,44.0,24.0,30.0,55.0,55,3506.0,square4,r,0.0985,3,V,3.0
V3,60.0,42.0,29.0,29.0,51.0,51,3557.0,square4,r,0.0992,3,V,3.0
V3,61.0,41.0,21.0,30.0,46.0,46,3603.0,square4,r,0.3442,3,V,3.0
V3,62.0,41.0,27.0,31.0,49.0,49,3652.0,square4,r,0.3309,3,V,3.0
V3,63.0,42.0,27.0,34.0,51.0,51,3703.0,square4,r,0.3167,3,V,3.0
V3,64.0,41.0,24.0,30.0,47.0,47,3750.0,square4,r,0.1878,3,V,3.0
V3,65.0,36.0,18.0,34.0,48.0,34,3784.0,square3,f,0.1794,2,V,3.0
V3,66.0,39.0,28.0,35.0,45.0,39,3823.0,square1,j,0.1628,0,V,3.0
V3,67.0,42.0,21.0,32.0,46.0,21,3844.0,square2,i,0.1572,1,V,3.0
V3,68.0,40.0,24.0,35.0,53.0,53,3897.0,square4,r,0.1493,3,V,3.0
V3,69.0,48.0,23.0,34.0,50.0,50,3947.0,square4,r,0.1012,3,V,3.0
V3,70.0,40.0,27.0,31.0,49.0,49,3996.0,square4,r,0.084,3,V,3.0
V3,71.0,41.0,23.0,28.0,51.0,51,4047.0,square4,r,0.1102,3,V,3.0
V3,72.0,42.0,25.0,33.0,55.0,55,4102.0,square4,r,0.1733,3,V,3.0
V3,73.0,41.0,24.0,35.0,55.0,55,4157.0,square4,r,0.005,3,V,3.0
V3,74.0,38.0,26.0,28.0,53.0,53,4210.0,square4,r,0.0054,3,V,3.0
V3,75.0,54.0,39.0,69.0,50.0,50,4260.0,square4,r,0.113,3,V,3.0
V3,76.0,55.0,42.0,64.0,53.0,53,4313.0,square4,r,0.0954,3,V,3.0
V3,77.0,59.0,37.0,66.0,44.0,44,4357.0,square4,r,0.1392,3,V,3.0
V3,78.0,58.0,38.0,60.0,46.0,46,4403.0,square4,r,0.1812,3,V,3.0
V3,79.0,54.0,35.0,66.0,49.0,66,4469.0,square3,f,0.0514,2,V,3.0
V3,80.0,60.0,36.0,68.0,44.0,68,4537.0,square3,f,0.2228,2,V,3.0
V3,81.0,55.0,38.0,66.0,51.0,66,4603.0,square3,f,0.1784,2,V,3.0
V3,82.0,57.0,47.0,64.0,50.0,47,4650.0,square2,i,0.0642,1,V,3.0
V3,83.0,57.0,37.0,63.0,45.0,57,4707.0,square1,j,0.1403,0,V,3.0
V3,84.0,54.0,40.0,65.0,53.0,65,4772.0,square3,f,0.1401,2,V,3.0
V3,85.0,58.0,41.0,63.0,48.0,63,4835.0,square3,f,0.1006,2,V,3.0
V3,86.0,53.0,38.0,57.0,49.0,57,4892.0,square3,f,0.1519,2,V,3.0
V3,87.0,49.0,42.0,60.0,43.0,60,4952.0,square3,f,0.0688,2,V,3.0
V3,88.0,56.0,35.0,70.0,46.0,70,5022.0,square3,f,0.1603,2,V,3.0
V3,89.0,58.0,39.0,63.0,52.0,63,5085.0,square3,f,0.2167,2,V,3.0
V3,90.0,59.0,43.0,63.0,45.0,63,5148.0,square3,f,0.0315,2,V,3.0
V3,91.0,54.0,37.0,69.0,49.0,54,5202.0,square1,j,0.0173,0,V,3.0
V3,92.0,56.0,41.0,61.0,47.0,61,5263.0,square3,f,0.1242,2,V,3.0
V3,93.0,58.0,35.0,68.0,47.0,58,5321.0,square1,j,0.0156,0,V,3.0
V3,94.0,61.0,37.0,67.0,51.0,61,5382.0,square1,j,0.0736,0,V,3.0
V3,95.0,57.0,32.0,64.0,47.0,57,5439.0,square1,j,0.0899,0,V,3.0
V3,96.0,53.0,38.0,63.0,48.0,53,5492.0,square1,j,0.0809,0,V,3.0
V3,97.0,57.0,44.0,71.0,50.0,57,5549.0,square1,j,0.0946,0,V,3.0
V3,98.0,56.0,39.0,70.0,47.0,39,5588.0,square2,i,0.1207,1,V,3.0
V3,99.0,62.0,40.0,67.0,49.0,40,5628.0,square2,i,0.0755,1,V,3.0
V8,0.0,49.0,55.0,64.0,74.0,99999,0.0,invalid,,,-1,V,8.0
V8,1.0,51.0,54.0,70.0,81.0,81,81.0,square4,f,0.295,3,V,8.0
V8,2.0,46.0,62.0,70.0,77.0,70,151.0,square3,j,0.0675,2,V,8.0
V8,3.0,46.0,56.0,67.0,75.0,46,197.0,square1,i,0.1479,0,V,8.0
V8,4.0,50.0,59.0,67.0,83.0,83,280.0,square4,f,0.1063,3,V,8.0
V8,5.0,51.0,54.0,65.0,78.0,54,334.0,square2,r,0.1259,1,V,8.0
V8,6.0,45.0,57.0,66.0,80.0,80,414.0,square4,f,0.0014,3,V,8.0
V8,7.0,46.0,64.0,68.0,77.0,77,491.0,square4,f,0.0517,3,V,8.0
V8,8.0,50.0,57.0,66.0,73.0,73,564.0,square4,f,0.0236,3,V,8.0
V8,9.0,46.0,56.0,71.0,72.0,72,636.0,square4,f,0.0811,3,V,8.0
V8,10.0,56.0,58.0,67.0,75.0,75,711.0,square4,f,0.1284,3,V,8.0
V8,11.0,50.0,61.0,69.0,74.0,74,785.0,square4,f,0.0754,3,V,8.0
V8,12.0,59.0,59.0,69.0,77.0,77,862.0,square4,f,0.0978,3,V,8.0
V8,13.0,50.0,56.0,72.0,77.0,77,939.0,square4,f,0.0498,3,V,8.0
V8,14.0,48.0,55.0,65.0,80.0,80,1019.0,square4,f,0.0449,3,V,8.0
V8,15.0,48.0,58.0,65.0,76.0,76,1095.0,square4,f,0.0603,3,V,8.0
V8,16.0,49.0,58.0,67.0,75.0,75,1170.0,square4,f,0.131,3,V,8.0
V8,17.0,51.0,56.0,68.0,76.0,68,1238.0,square3,j,0.132,2,V,8.0
V8,18.0,52.0,63.0,69.0,80.0,69,1307.0,square3,j,0.1882,2,V,8.0
V8,19.0,54.0,54.0,71.0,79.0,71,1378.0,square3,j,0.0475,2,V,8.0
V8,20.0,48.0,53.0,62.0,77.0,62,1440.0,square3,j,0.0892,2,V,8.0
V8,21.0,44.0,61.0,66.0,77.0,44,1484.0,square1,i,0.065,0,V,8.0
V8,22.0,52.0,58.0,64.0,78.0,52,1536.0,square1,i,0.0013,0,V,8.0
V8,23.0,50.0,49.0,67.0,79.0,50,1586.0,square1,i,0.089,0,V,8.0
V8,24.0,49.0,59.0,69.0,74.0,49,1635.0,square1,i,0.0693,0,V,8.0
V8,25.0,46.0,61.0,65.0,81.0,46,1681.0,square1,i,0.0585,0,V,8.0
V8,26.0,49.0,58.0,63.0,35.0,58,1739.0,square2,r,0.1413,1,V,8.0
V8,27.0,48.0,51.0,66.0,41.0,51,1790.0,square2,r,0.0946,1,V,8.0
V8,28.0,46.0,55.0,65.0,38.0,38,1828.0,square4,f,0.0671,3,V,8.0
V8,29.0,47.0,58.0,69.0,40.0,40,1868.0,square4,f,0.0942,3,V,8.0
V8,30.0,42.0,55.0,67.0,43.0,67,1935.0,square3,j,0.1246,2,V,8.0
V8,31.0,49.0,56.0,64.0,36.0,64,1999.0,square3,j,0.1136,2,V,8.0
V8,32.0,49.0,55.0,69.0,38.0,69,2068.0,square3,j,0.0836,2,V,8.0
V8,33.0,44.0,52.0,65.0,48.0,44,2112.0,square1,i,0.0263,0,V,8.0
V8,34.0,44.0,57.0,70.0,45.0,57,2169.0,square2,r,0.125,1,V,8.0
V8,35.0,44.0,54.0,68.0,38.0,68,2237.0,square3,j,0.0275,2,V,8.0
V8,36.0,45.0,56.0,64.0,40.0,64,2301.0,square3,j,0.1491,2,V,8.0
V8,37.0,47.0,57.0,66.0,37.0,66,2367.0,square3,j,0.0069,2,V,8.0
V8,38.0,49.0,50.0,66.0,37.0,66,2433.0,square3,j,0.0308,2,V,8.0
V8,39.0,51.0,56.0,61.0,39.0,61,2494.0,square3,j,0.164,2,V,8.0
V8,40.0,47.0,59.0,66.0,41.0,66,2560.0,square3,j,0.0308,2,V,8.0
V8,41.0,42.0,56.0,69.0,42.0,69,2629.0,square3,j,0.0305,2,V,8.0
V8,42.0,47.0,57.0,72.0,35.0,72,2701.0,square3,j,0.001,2,V,8.0
V8,43.0,47.0,57.0,63.0,44.0,63,2764.0,square3,j,0.0014,2,V,8.0
V8,44.0,45.0,58.0,67.0,42.0,67,2831.0,square3,j,0.0862,2,V,8.0
V8,45.0,44.0,56.0,66.0,43.0,66,2897.0,square3,j,0.0709,2,V,8.0
V8,46.0,46.0,53.0,70.0,37.0,70,2967.0,square3,j,0.0798,2,V,8.0
V8,47.0,54.0,53.0,71.0,41.0,71,3038.0,square3,j,0.018,2,V,8.0
V8,48.0,49.0,53.0,69.0,37.0,69,3107.0,square3,j,0.1226,2,V,8.0
V8,49.0,39.0,57.0,65.0,47.0,47,3154.0,square4,f,0.1345,3,V,8.0
V8,50.0,48.0,55.0,65.0,41.0,55,3209.0,square2,r,0.0474,1,V,8.0
V8,51.0,45.0,61.0,68.0,43.0,45,3254.0,square1,i,0.0697,0,V,8.0
V8,52.0,53.0,52.0,68.0,37.0,68,3322.0,square3,j,0.1568,2,V,8.0
V8,53.0,47.0,55.0,66.0,46.0,66,3388.0,square3,j,0.0581,2,V,8.0
V8,54.0,49.0,53.0,61.0,39.0,61,3449.0,square3,j,0.0386,2,V,8.0
V8,55.0,53.0,70.0,55.0,72.0,55,3504.0,square3,j,0.0926,2,V,8.0
V8,56.0,57.0,63.0,48.0,73.0,48,3552.0,square3,j,0.0065,2,V,8.0
V8,57.0,53.0,71.0,45.0,80.0,45,3597.0,square3,j,0.1734,2,V,8.0
V8,58.0,57.0,69.0,52.0,73.0,52,3649.0,square3,j,0.0434,2,V,8.0
V8,59.0,58.0,67.0,54.0,73.0,54,3703.0,square3,j,0.0008,2,V,8.0
V8,60.0,55.0,66.0,47.0,76.0,47,3750.0,square3,j,0.0637,2,V,8.0
V8,61.0,56.0,65.0,54.0,72.0,54,3804.0,square3,j,0.1946,2,V,8.0
V8,62.0,56.0,65.0,49.0,75.0,49,3853.0,square3,j,0.0041,2,V,8.0
V8,63.0,61.0,65.0,44.0,78.0,44,3897.0,square3,j,0.1492,2,V,8.0
V8,64.0,54.0,66.0,48.0,75.0,75,3972.0,square4,f,0.0063,3,V,8.0
V8,65.0,59.0,65.0,46.0,79.0,79,4051.0,square4,f,0.2243,3,V,8.0
V8,66.0,51.0,62.0,46.0,73.0,62,4113.0,square2,r,0.1827,1,V,8.0
V8,67.0,60.0,70.0,45.0,76.0,60,4173.0,square1,i,0.1694,0,V,8.0
V8,68.0,63.0,64.0,47.0,73.0,73,4246.0,square4,f,0.1016,3,V,8.0
V8,69.0,58.0,66.0,43.0,77.0,77,4323.0,square4,f,0.0326,3,V,8.0
V8,70.0,59.0,65.0,49.0,73.0,73,4396.0,square4,f,0.0433,3,V,8.0
V8,71.0,60.0,64.0,49.0,79.0,79,4475.0,square4,f,0.0617,3,V,8.0
V8,72.0,96.0,68.0,78.0,67.0,67,4542.0,square4,f,0.0924,3,V,8.0
V8,73.0,96.0,68.0,79.0,64.0,64,4606.0,square4,f,0.0745,3,V,8.0
V8,74.0,92.0,67.0,81.0,62.0,62,4668.0,square4,f,0.0451,3,V,8.0
V8,75.0,96.0,72.0,83.0,62.0,62,4730.0,square4,f,0.031,3,V,8.0
V8,76.0,94.0,70.0,77.0,57.0,57,4787.0,square4,f,0.2526,3,V,8.0
V8,77.0,91.0,68.0,81.0,59.0,59,4846.0,square4,f,0.0628,3,V,8.0
V8,78.0,90.0,73.0,80.0,63.0,80,4926.0,square3,j,0.0282,2,V,8.0
V8,79.0,90.0,73.0,83.0,61.0,83,5009.0,square3,j,0.0621,2,V,8.0
V8,80.0,95.0,75.0,81.0,66.0,81,5090.0,square3,j,0.0009,2,V,8.0
V8,81.0,92.0,72.0,81.0,57.0,81,5171.0,square3,j,0.0009,2,V,8.0
V8,82.0,91.0,71.0,80.0,61.0,80,5251.0,square3,j,0.1784,2,V,8.0
V8,83.0,90.0,66.0,83.0,62.0,83,5334.0,square3,j,0.0579,2,V,8.0
V8,84.0,93.0,67.0,87.0,65.0,87,5421.0,square3,j,0.0526,2,V,8.0
V8,85.0,85.0,70.0,80.0,62.0,80,5501.0,square3,j,0.1655,2,V,8.0
V8,86.0,84.0,72.0,85.0,62.0,85,5586.0,square3,j,0.1403,2,V,8.0
V8,87.0,91.0,68.0,82.0,65.0,82,5668.0,square3,j,0.1012,2,V,8.0
V8,88.0,93.0,67.0,83.0,61.0,83,5751.0,square3,j,0.024,2,V,8.0
V8,89.0,95.0,68.0,78.0,66.0,78,5829.0,square3,j,0.0006,2,V,8.0
V8,90.0,91.0,73.0,80.0,60.0,80,5909.0,square3,j,0.0014,2,V,8.0
V8,91.0,93.0,68.0,81.0,64.0,81,5990.0,square3,j,0.0318,2,V,8.0
V8,92.0,90.0,75.0,82.0,67.0,82,6072.0,square3,j,0.0319,2,V,8.0
V8,93.0,92.0,70.0,82.0,66.0,82,6154.0,square3,j,0.1238,2,V,8.0
V8,94.0,90.0,71.0,78.0,63.0,78,6232.0,square3,j,0.1495,2,V,8.0
V8,95.0,88.0,65.0,78.0,63.0,88,6320.0,square1,i,0.145,0,V,8.0
V8,96.0,89.0,72.0,85.0,62.0,89,6409.0,square1,i,0.24,0,V,8.0
V8,97.0,92.0,72.0,77.0,67.0,92,6501.0,square1,i,0.1075,0,V,8.0
V8,98.0,86.0,63.0,82.0,62.0,63,6564.0,square2,r,0.0676,1,V,8.0
V8,99.0,90.0,66.0,75.0,61.0,61,6625.0,square4,f,0.0827,3,V,8.0
V10,0.0,28.0,21.0,37.0,46.0,21,21.0,square2,i,0.7969,1,V,10.0
V10,1.0,26.0,19.0,41.0,49.0,49,70.0,square4,j,0.1423,3,V,10.0
V10,2.0,29.0,20.0,43.0,48.0,29,99.0,square1,f,0.0581,0,V,10.0
V10,3.0,27.0,27.0,37.0,44.0,37,136.0,square3,r,0.0703,2,V,10.0
V10,4.0,28.0,16.0,36.0,47.0,47,183.0,square4,j,0.0009,3,V,10.0
V10,5.0,33.0,25.0,42.0,54.0,54,237.0,square4,j,0.0686,3,V,10.0
V10,6.0,28.0,19.0,35.0,45.0,45,282.0,square4,j,0.04,3,V,10.0
V10,7.0,30.0,24.0,35.0,49.0,49,331.0,square4,j,0.0049,3,V,10.0
V10,8.0,37.0,29.0,41.0,47.0,29,360.0,square2,i,0.0708,1,V,10.0
V10,9.0,28.0,21.0,41.0,48.0,21,381.0,square2,i,0.0005,1,V,10.0
V10,10.0,27.0,22.0,39.0,42.0,22,403.0,square2,i,0.1882,1,V,10.0
V10,11.0,32.0,16.0,41.0,48.0,32,435.0,square1,f,0.152,0,V,10.0
V10,12.0,34.0,15.0,33.0,49.0,34,469.0,square1,f,0.0897,0,V,10.0
V10,13.0,36.0,19.0,41.0,45.0,41,510.0,square3,r,0.0406,2,V,10.0
V10,14.0,28.0,23.0,35.0,53.0,35,545.0,square3,r,0.1775,2,V,10.0
V10,15.0,26.0,28.0,40.0,50.0,50,595.0,square4,j,0.0298,3,V,10.0
V10,16.0,30.0,25.0,42.0,47.0,47,642.0,square4,j,0.0221,3,V,10.0
V10,17.0,31.0,19.0,38.0,50.0,50,692.0,square4,j,0.0009,3,V,10.0
V10,18.0,34.0,21.0,35.0,48.0,48,740.0,square4,j,0.173,3,V,10.0
V10,19.0,31.0,24.0,39.0,46.0,46,786.0,square4,j,0.0485,3,V,10.0
V10,20.0,28.0,22.0,42.0,47.0,47,833.0,square4,j,0.0381,3,V,10.0
V10,21.0,24.0,20.0,41.0,47.0,47,880.0,square4,j,0.0081,3,V,10.0
V10,22.0,32.0,22.0,34.0,44.0,44,924.0,square4,j,0.1479,3,V,10.0
V10,23.0,29.0,23.0,37.0,47.0,47,971.0,square4,j,0.1901,3,V,10.0
V10,24.0,25.0,25.0,38.0,46.0,25,996.0,square2,i,0.0679,1,V,10.0
V10,25.0,30.0,24.0,41.0,45.0,41,1037.0,square3,r,0.1019,2,V,10.0
V10,26.0,32.0,17.0,38.0,49.0,38,1075.0,square3,r,0.115,2,V,10.0
V10,27.0,34.0,21.0,38.0,47.0,34,1109.0,square1,f,0.1141,0,V,10.0
V10,28.0,29.0,21.0,37.0,45.0,29,1138.0,square1,f,0.0008,0,V,10.0
V10,29.0,30.0,20.0,31.0,47.0,30,1168.0,square1,f,0.0076,0,V,10.0
V10,30.0,28.0,21.0,35.0,44.0,35,1203.0,square3,r,0.0557,2,V,10.0
V10,31.0,36.0,25.0,14.0,8.0,8,1211.0,square4,j,0.1314,3,V,10.0
V10,32.0,38.0,27.0,19.0,11.0,11,1222.0,square4,j,0.0274,3,V,10.0
V10,33.0,39.0,21.0,20.0,13.0,20,1242.0,square3,r,0.0007,2,V,10.0
V10,34.0,34.0,24.0,20.0,10.0,24,1266.0,square2,i,0.0845,1,V,10.0
V10,35.0,44.0,29.0,17.0,11.0,44,1310.0,square1,f,0.1163,0,V,10.0
V10,36.0,33.0,30.0,17.0,9.0,33,1343.0,square1,f,0.0851,0,V,10.0
V10,37.0,31.0,27.0,12.0,6.0,31,1374.0,square1,f,0.0788,0,V,10.0
V10,38.0,34.0,29.0,15.0,10.0,34,1408.0,square1,f,0.3252,0,V,10.0
V10,39.0,35.0,21.0,19.0,5.0,35,1443.0,square1,f,0.0008,0,V,10.0
V10,40.0,32.0,26.0,18.0,6.0,32,1475.0,square1,f,0.11,0,V,10.0
V10,41.0,34.0,32.0,13.0,9.0,34,1509.0,square1,f,0.1737,0,V,10.0
V10,42.0,35.0,30.0,16.0,8.0,35,1544.0,square1,f,0.2991,0,V,10.0
V10,43.0,38.0,32.0,16.0,8.0,38,1582.0,square1,f,0.046,0,V,10.0
V10,44.0,34.0,20.0,18.0,3.0,18,1600.0,square3,r,0.1146,2,V,10.0
V10,45.0,38.0,22.0,23.0,9.0,22,1622.0,square2,i,0.0653,1,V,10.0
V10,46.0,36.0,28.0,16.0,10.0,10,1632.0,square4,j,0.073,3,V,10.0
V10,47.0,36.0,27.0,13.0,8.0,36,1668.0,square1,f,0.1625,0,V,10.0
V10,48.0,35.0,27.0,14.0,12.0,35,1703.0,square1,f,0.0322,0,V,10.0
V10,49.0,33.0,28.0,16.0,10.0,33,1736.0,square1,f,0.0008,0,V,10.0
V10,50.0,31.0,29.0,19.0,8.0,31,1767.0,square1,f,0.0342,0,V,10.0
V10,51.0,32.0,21.0,20.0,12.0,32,1799.0,square1,f,0.115,0,V,10.0
V10,52.0,29.0,25.0,21.0,10.0,29,1828.0,square1,f,0.0996,0,V,10.0
V10,53.0,39.0,29.0,23.0,2.0,39,1867.0,square1,f,0.0571,0,V,10.0
V10,54.0,33.0,28.0,19.0,7.0,33,1900.0,square1,f,0.0818,0,V,10.0
V10,55.0,34.0,24.0,15.0,8.0,34,1934.0,square1,f,0.0495,0,V,10.0
V10,56.0,35.0,20.0,21.0,9.0,35,1969.0,square1,f,0.0335,0,V,10.0
V10,57.0,33.0,27.0,19.0,7.0,33,2002.0,square1,f,0.1476,0,V,10.0
V10,58.0,38.0,24.0,16.0,7.0,16,2018.0,square3,r,0.1095,2,V,10.0
V10,59.0,34.0,29.0,15.0,5.0,29,2047.0,square2,i,0.1597,1,V,10.0
V10,60.0,34.0,22.0,19.0,9.0,9,2056.0,square4,j,0.1899,3,V,10.0
V10,61.0,39.0,31.0,20.0,10.0,39,2095.0,square1,f,0.1676,0,V,10.0
V10,62.0,35.0,24.0,18.0,6.0,35,2130.0,square1,f,0.1654,0,V,10.0
V10,63.0,35.0,26.0,18.0,9.0,35,2165.0,square1,f,0.0255,0,V,10.0
V10,64.0,31.0,55.0,23.0,23.0,31,2196.0,square1,f,0.162,0,V,10.0
V10,65.0,35.0,50.0,22.0,27.0,35,2231.0,square1,f,0.1738,0,V,10.0
V10,66.0,35.0,53.0,25.0,29.0,35,2266.0,square1,f,0.5441,0,V,10.0
V10,67.0,38.0,44.0,17.0,29.0,38,2304.0,square1,f,1.4489,0,V,10.0
V10,68.0,36.0,48.0,22.0,27.0,36,2340.0,square1,f,0.156,0,V,10.0
V10,69.0,41.0,53.0,17.0,28.0,41,2381.0,square1,f,0.3115,0,V,10.0
V10,70.0,40.0,48.0,23.0,28.0,23,2404.0,square3,r,0.0322,2,V,10.0
V10,71.0,39.0,43.0,24.0,20.0,24,2428.0,square3,r,0.0331,2,V,10.0
V10,72.0,36.0,49.0,19.0,25.0,49,2477.0,square2,i,0.0979,1,V,10.0
V10,73.0,39.0,49.0,23.0,32.0,32,2509.0,square4,j,0.1242,3,V,10.0
V10,74.0,36.0,44.0,17.0,29.0,44,2553.0,square2,i,0.0656,1,V,10.0
V10,75.0,37.0,46.0,20.0,30.0,46,2599.0,square2,i,0.0312,1,V,10.0
V10,76.0,38.0,47.0,23.0,30.0,47,2646.0,square2,i,0.1274,1,V,10.0
V10,77.0,36.0,49.0,22.0,32.0,49,2695.0,square2,i,0.0008,1,V,10.0
V10,78.0,41.0,44.0,19.0,27.0,41,2736.0,square1,f,0.1449,0,V,10.0
V10,79.0,41.0,48.0,22.0,27.0,48,2784.0,square2,i,0.0992,1,V,10.0
V10,80.0,34.0,44.0,26.0,29.0,44,2828.0,square2,i,0.0009,1,V,10.0
V10,81.0,38.0,47.0,18.0,29.0,47,2875.0,square2,i,0.0886,1,V,10.0
V10,82.0,43.0,43.0,23.0,28.0,43,2918.0,square2,i,0.0991,1,V,10.0
V10,83.0,34.0,51.0,23.0,26.0,51,2969.0,square2,i,0.2019,1,V,10.0
V10,84.0,36.0,46.0,18.0,25.0,46,3015.0,square2,i,0.002,1,V,10.0
V10,85.0,39.0,46.0,25.0,26.0,46,3061.0,square2,i,0.1254,1,V,10.0
V10,86.0,39.0,50.0,27.0,27.0,50,3111.0,square2,i,0.0646,1,V,10.0
V10,87.0,38.0,46.0,20.0,30.0,46,3157.0,square2,i,0.0007,1,V,10.0
V10,88.0,37.0,49.0,22.0,28.0,49,3206.0,square2,i,0.0344,1,V,10.0
V10,89.0,34.0,51.0,25.0,26.0,51,3257.0,square2,i,0.0054,1,V,10.0
V10,90.0,41.0,49.0,22.0,29.0,41,3298.0,square1,f,0.0969,0,V,10.0
V10,91.0,37.0,45.0,26.0,32.0,45,3343.0,square2,i,0.1587,1,V,10.0
V10,92.0,42.0,42.0,27.0,28.0,42,3385.0,square2,i,0.1776,1,V,10.0
V10,93.0,41.0,48.0,19.0,36.0,48,3433.0,square2,i,0.0999,1,V,10.0
V10,94.0,43.0,49.0,23.0,31.0,23,3456.0,square3,r,0.0982,2,V,10.0
V10,95.0,39.0,46.0,18.0,27.0,27,3483.0,square4,j,0.0972,3,V,10.0
V10,96.0,37.0,48.0,24.0,27.0,37,3520.0,square1,f,0.0455,0,V,10.0
V10,97.0,42.0,50.0,23.0,31.0,50,3570.0,square2,i,0.0604,1,V,10.0
V10,98.0,33.0,47.0,25.0,32.0,47,3617.0,square2,i,0.1085,1,V,10.0
V10,99.0,39.0,48.0,23.0,32.0,48,3665.0,square2,i,0.1735,1,V,10.0
NS4,0.0,55.0,53.0,59.0,44.0,44,44.0,square4,f,1.0846,3,N,4.0
NS4,1.0,49.0,56.0,64.0,41.0,56,100.0,square2,r,0.048,1,N,4.0
NS4,2.0,50.0,54.0,71.0,48.0,50,150.0,square1,i,0.1024,0,N,4.0
NS4,3.0,53.0,58.0,67.0,50.0,67,217.0,square3,j,0.0571,2,N,4.0
NS4,4.0,49.0,51.0,70.0,55.0,55,272.0,square4,f,0.0442,3,N,4.0
NS4,5.0,55.0,59.0,73.0,58.0,73,345.0,square3,j,0.0731,2,N,4.0
NS4,6.0,56.0,54.0,71.0,57.0,71,416.0,square3,j,0.0008,2,N,4.0
NS4,7.0,60.0,54.0,75.0,52.0,75,491.0,square3,j,0.0007,2,N,4.0
NS4,8.0,58.0,53.0,74.0,52.0,74,565.0,square3,j,0.0012,2,N,4.0
NS4,9.0,46.0,48.0,78.0,51.0,78,643.0,square3,j,0.0244,2,N,4.0
NS4,10.0,55.0,48.0,78.0,51.0,78,721.0,square3,j,0.0859,2,N,4.0
NS4,11.0,55.0,44.0,79.0,49.0,44,765.0,square2,r,0.16,1,N,4.0
NS4,12.0,50.0,40.0,79.0,50.0,50,815.0,square1,i,0.0905,0,N,4.0
NS4,13.0,45.0,39.0,79.0,53.0,45,860.0,square1,i,0.0069,0,N,4.0
NS4,14.0,44.0,38.0,77.0,56.0,56,916.0,square4,f,0.0005,3,N,4.0
NS4,15.0,45.0,32.0,68.0,52.0,68,984.0,square3,j,0.1267,2,N,4.0
NS4,16.0,49.0,32.0,74.0,53.0,74,1058.0,square3,j,0.006,2,N,4.0
NS4,17.0,45.0,32.0,69.0,51.0,69,1127.0,square3,j,0.0013,2,N,4.0
NS4,18.0,50.0,34.0,69.0,47.0,69,1196.0,square3,j,0.1592,2,N,4.0
NS4,19.0,50.0,36.0,65.0,53.0,65,1261.0,square3,j,0.1213,2,N,4.0
NS4,20.0,45.0,36.0,62.0,53.0,62,1323.0,square3,j,0.1164,2,N,4.0
NS4,21.0,49.0,35.0,62.0,55.0,62,1385.0,square3,j,0.1506,2,N,4.0
NS4,22.0,53.0,32.0,61.0,60.0,61,1446.0,square3,j,0.1179,2,N,4.0
NS4,23.0,52.0,33.0,58.0,54.0,58,1504.0,square3,j,0.0347,2,N,4.0
NS4,24.0,48.0,32.0,52.0,60.0,52,1556.0,square3,j,0.058,2,N,4.0
NS4,25.0,47.0,30.0,53.0,57.0,53,1609.0,square3,j,0.0969,2,N,4.0
NS4,26.0,50.0,30.0,60.0,55.0,60,1669.0,square3,j,0.0472,2,N,4.0
NS4,27.0,50.0,28.0,62.0,47.0,62,1731.0,square3,j,0.1013,2,N,4.0
NS4,28.0,54.0,28.0,58.0,49.0,49,1780.0,square4,f,0.1187,3,N,4.0
NS4,29.0,44.0,29.0,50.0,49.0,29,1809.0,square2,r,0.1834,1,N,4.0
NS4,30.0,43.0,26.0,55.0,57.0,43,1852.0,square1,i,0.0009,0,N,4.0
NS4,31.0,43.0,25.0,60.0,54.0,60,1912.0,square3,j,0.0283,2,N,4.0
NS4,32.0,34.0,27.0,58.0,56.0,58,1970.0,square3,j,0.1282,2,N,4.0
NS4,33.0,34.0,20.0,60.0,62.0,60,2030.0,square3,j,0.1989,2,N,4.0
NS4,34.0,38.0,28.0,58.0,57.0,58,2088.0,square3,j,0.0276,2,N,4.0
NS4,35.0,40.0,24.0,63.0,59.0,63,2151.0,square3,j,0.1685,2,N,4.0
NS4,36.0,36.0,30.0,56.0,63.0,56,2207.0,square3,j,0.1688,2,N,4.0
NS4,37.0,40.0,29.0,54.0,63.0,54,2261.0,square3,j,0.1472,2,N,4.0
NS4,38.0,40.0,33.0,53.0,69.0,53,2314.0,square3,j,0.1589,2,N,4.0
NS4,39.0,36.0,30.0,57.0,67.0,57,2371.0,square3,j,0.0759,2,N,4.0
NS4,40.0,33.0,33.0,58.0,68.0,58,2429.0,square3,j,0.0006,2,N,4.0
NS4,41.0,34.0,28.0,58.0,72.0,58,2487.0,square3,j,0.2137,2,N,4.0
NS4,42.0,35.0,30.0,60.0,70.0,60,2547.0,square3,j,0.1251,2,N,4.0
NS4,43.0,35.0,34.0,57.0,63.0,57,2604.0,square3,j,0.0571,2,N,4.0
NS4,44.0,30.0,32.0,59.0,69.0,69,2673.0,square4,f,0.1805,3,N,4.0
NS4,45.0,29.0,31.0,60.0,66.0,66,2739.0,square4,f,0.0052,3,N,4.0
NS4,46.0,35.0,34.0,66.0,66.0,66,2805.0,square4,f,0.071,3,N,4.0
NS4,47.0,35.0,28.0,63.0,62.0,62,2867.0,square4,f,0.0703,3,N,4.0
NS4,48.0,37.0,37.0,61.0,55.0,55,2922.0,square4,f,0.0682,3,N,4.0
NS4,49.0,40.0,34.0,59.0,54.0,34,2956.0,square2,r,0.091,1,N,4.0
NS4,50.0,39.0,38.0,68.0,51.0,39,2995.0,square1,i,0.244,0,N,4.0
NS4,51.0,46.0,28.0,69.0,48.0,48,3043.0,square4,f,0.1824,3,N,4.0
NS4,52.0,40.0,34.0,62.0,49.0,49,3092.0,square4,f,0.0198,3,N,4.0
NS4,53.0,39.0,34.0,63.0,48.0,63,3155.0,square3,j,0.0409,2,N,4.0
NS4,54.0,44.0,31.0,58.0,47.0,58,3213.0,square3,j,0.0007,2,N,4.0
NS4,55.0,42.0,30.0,68.0,46.0,68,3281.0,square3,j,0.1756,2,N,4.0
NS4,56.0,36.0,25.0,69.0,44.0,69,3350.0,square3,j,0.0256,2,N,4.0
NS4,57.0,35.0,29.0,71.0,46.0,71,3421.0,square3,j,0.1354,2,N,4.0
NS4,58.0,43.0,28.0,68.0,47.0,68,3489.0,square3,j,0.0854,2,N,4.0
NS4,59.0,43.0,27.0,67.0,43.0,67,3556.0,square3,j,0.1416,2,N,4.0
NS4,60.0,40.0,25.0,72.0,46.0,72,3628.0,square3,j,0.0983,2,N,4.0
NS4,61.0,39.0,32.0,63.0,43.0,63,3691.0,square3,j,0.0825,2,N,4.0
NS4,62.0,39.0,29.0,61.0,39.0,61,3752.0,square3,j,0.1474,2,N,4.0
NS4,63.0,41.0,28.0,59.0,40.0,59,3811.0,square3,j,0.0752,2,N,4.0
NS4,64.0,41.0,31.0,57.0,51.0,57,3868.0,square3,j,0.1535,2,N,4.0
NS4,65.0,46.0,36.0,59.0,58.0,59,3927.0,square3,j,0.0278,2,N,4.0
NS4,66.0,45.0,36.0,53.0,46.0,53,3980.0,square3,j,0.0398,2,N,4.0
NS4,67.0,40.0,34.0,49.0,46.0,46,4026.0,square4,f,0.022,3,N,4.0
NS4,68.0,43.0,37.0,48.0,48.0,37,4063.0,square2,r,0.1241,1,N,4.0
NS4,69.0,42.0,36.0,44.0,56.0,42,4105.0,square1,i,0.0438,0,N,4.0
NS4,70.0,40.0,38.0,47.0,58.0,47,4152.0,square3,j,0.0988,2,N,4.0
NS4,71.0,36.0,34.0,42.0,63.0,42,4194.0,square3,j,0.0572,2,N,4.0
NS4,72.0,38.0,36.0,36.0,66.0,36,4230.0,square3,j,0.0318,2,N,4.0
NS4,73.0,36.0,40.0,40.0,66.0,40,4270.0,square3,j,0.1682,2,N,4.0
NS4,74.0,31.0,38.0,46.0,67.0,31,4301.0,square1,i,0.0052,0,N,4.0
NS4,75.0,40.0,33.0,42.0,64.0,64,4365.0,square4,f,0.0949,3,N,4.0
NS4,76.0,38.0,35.0,42.0,64.0,64,4429.0,square4,f,0.125,3,N,4.0
NS4,77.0,40.0,35.0,39.0,66.0,66,4495.0,square4,f,0.0009,3,N,4.0
NS4,78.0,40.0,33.0,38.0,68.0,68,4563.0,square4,f,0.119,3,N,4.0
NS4,79.0,40.0,38.0,31.0,70.0,70,4633.0,square4,f,0.0568,3,N,4.0
NS4,80.0,37.0,35.0,33.0,73.0,73,4706.0,square4,f,0.1858,3,N,4.0
NS4,81.0,34.0,35.0,30.0,70.0,70,4776.0,square4,f,0.0965,3,N,4.0
NS4,82.0,35.0,37.0,31.0,66.0,66,4842.0,square4,f,0.1902,3,N,4.0
NS4,83.0,42.0,32.0,28.0,67.0,67,4909.0,square4,f,0.0905,3,N,4.0
NS4,84.0,38.0,35.0,30.0,68.0,68,4977.0,square4,f,0.0801,3,N,4.0
NS4,85.0,43.0,35.0,32.0,64.0,64,5041.0,square4,f,0.0955,3,N,4.0
NS4,86.0,49.0,35.0,32.0,70.0,70,5111.0,square4,f,0.1234,3,N,4.0
NS4,87.0,48.0,34.0,32.0,69.0,69,5180.0,square4,f,0.208,3,N,4.0
NS4,88.0,50.0,35.0,30.0,64.0,64,5244.0,square4,f,0.1973,3,N,4.0
NS4,89.0,48.0,34.0,32.0,68.0,32,5276.0,square3,j,0.0056,2,N,4.0
NS4,90.0,53.0,29.0,27.0,68.0,68,5344.0,square4,f,0.1762,3,N,4.0
NS4,91.0,54.0,27.0,34.0,68.0,68,5412.0,square4,f,0.0079,3,N,4.0
NS4,92.0,52.0,20.0,35.0,69.0,69,5481.0,square4,f,0.0966,3,N,4.0
NS4,93.0,42.0,15.0,33.0,68.0,68,5549.0,square4,f,0.1745,3,N,4.0
NS4,94.0,40.0,24.0,37.0,72.0,72,5621.0,square4,f,0.1489,3,N,4.0
NS4,95.0,43.0,25.0,43.0,69.0,69,5690.0,square4,f,0.0137,3,N,4.0
NS4,96.0,41.0,29.0,43.0,74.0,74,5764.0,square4,f,0.0686,3,N,4.0
NS4,97.0,46.0,32.0,42.0,78.0,78,5842.0,square4,f,0.1502,3,N,4.0
NS4,98.0,48.0,26.0,46.0,75.0,75,5917.0,square4,f,0.0007,3,N,4.0
NS4,99.0,46.0,27.0,45.0,71.0,71,5988.0,square4,f,0.1605,3,N,4.0
NS5,0.0,26.0,19.0,54.0,39.0,26,26.0,square1,r,0.8977,0,N,5.0
NS5,1.0,21.0,17.0,51.0,42.0,42,68.0,square4,i,0.1094,3,N,5.0
NS5,2.0,19.0,17.0,52.0,42.0,42,110.0,square4,i,0.3378,3,N,5.0
NS5,3.0,21.0,16.0,55.0,38.0,55,165.0,square3,f,0.137,2,N,5.0
NS5,4.0,14.0,26.0,52.0,44.0,26,191.0,square2,j,0.0994,1,N,5.0
NS5,5.0,18.0,25.0,47.0,42.0,47,238.0,square3,f,0.0554,2,N,5.0
NS5,6.0,23.0,21.0,54.0,38.0,54,292.0,square3,f,0.049,2,N,5.0
NS5,7.0,18.0,27.0,56.0,39.0,56,348.0,square3,f,0.026,2,N,5.0
NS5,8.0,18.0,28.0,57.0,40.0,57,405.0,square3,f,0.1457,2,N,5.0
NS5,9.0,15.0,29.0,53.0,38.0,53,458.0,square3,f,0.1414,2,N,5.0
NS5,10.0,13.0,26.0,56.0,41.0,56,514.0,square3,f,0.1694,2,N,5.0
NS5,11.0,11.0,25.0,58.0,41.0,11,525.0,square1,r,0.0007,0,N,5.0
NS5,12.0,9.0,22.0,53.0,40.0,40,565.0,square4,i,0.1059,3,N,5.0
NS5,13.0,11.0,21.0,55.0,39.0,21,586.0,square2,j,0.0179,1,N,5.0
NS5,14.0,12.0,17.0,49.0,38.0,49,635.0,square3,f,0.0892,2,N,5.0
NS5,15.0,18.0,19.0,52.0,37.0,52,687.0,square3,f,0.1692,2,N,5.0
NS5,16.0,18.0,20.0,49.0,40.0,49,736.0,square3,f,0.0607,2,N,5.0
NS5,17.0,16.0,16.0,50.0,41.0,50,786.0,square3,f,0.2149,2,N,5.0
NS5,18.0,16.0,18.0,51.0,43.0,51,837.0,square3,f,0.1566,2,N,5.0
NS5,19.0,14.0,20.0,44.0,45.0,44,881.0,square3,f,0.0913,2,N,5.0
NS5,20.0,19.0,21.0,42.0,48.0,42,923.0,square3,f,0.0147,2,N,5.0
NS5,21.0,19.0,22.0,43.0,47.0,43,966.0,square3,f,0.1508,2,N,5.0
NS5,22.0,17.0,15.0,43.0,47.0,43,1009.0,square3,f,0.0821,2,N,5.0
NS5,23.0,16.0,28.0,37.0,47.0,37,1046.0,square3,f,0.0778,2,N,5.0
NS5,24.0,20.0,21.0,38.0,49.0,38,1084.0,square3,f,0.4229,2,N,5.0
NS5,25.0,22.0,17.0,34.0,46.0,46,1130.0,square4,i,0.0068,3,N,5.0
NS5,26.0,30.0,16.0,32.0,50.0,50,1180.0,square4,i,0.0601,3,N,5.0
NS5,27.0,21.0,20.0,35.0,42.0,42,1222.0,square4,i,0.1525,3,N,5.0
NS5,28.0,20.0,23.0,39.0,42.0,42,1264.0,square4,i,0.0093,3,N,5.0
NS5,29.0,21.0,18.0,39.0,41.0,21,1285.0,square1,r,0.0225,0,N,5.0
NS5,30.0,20.0,11.0,41.0,44.0,11,1296.0,square2,j,0.0485,1,N,5.0
NS5,31.0,20.0,9.0,36.0,43.0,43,1339.0,square4,i,0.1447,3,N,5.0
NS5,32.0,21.0,13.0,35.0,46.0,46,1385.0,square4,i,0.0975,3,N,5.0
NS5,33.0,16.0,22.0,32.0,44.0,44,1429.0,square4,i,0.3508,3,N,5.0
NS5,34.0,20.0,20.0,33.0,37.0,37,1466.0,square4,i,0.0507,3,N,5.0
NS5,35.0,19.0,27.0,34.0,40.0,40,1506.0,square4,i,0.1797,3,N,5.0
NS5,36.0,20.0,23.0,31.0,37.0,31,1537.0,square3,f,0.1086,2,N,5.0
NS5,37.0,15.0,28.0,41.0,40.0,40,1577.0,square4,i,0.1388,3,N,5.0
NS5,38.0,18.0,21.0,45.0,37.0,37,1614.0,square4,i,0.0743,3,N,5.0
NS5,39.0,23.0,22.0,40.0,34.0,34,1648.0,square4,i,0.0928,3,N,5.0
NS5,40.0,22.0,25.0,44.0,26.0,22,1670.0,square1,r,0.009,0,N,5.0
NS5,41.0,28.0,25.0,39.0,29.0,25,1695.0,square2,j,0.0265,1,N,5.0
NS5,42.0,27.0,27.0,42.0,35.0,35,1730.0,square4,i,0.0169,3,N,5.0
NS5,43.0,25.0,25.0,49.0,38.0,38,1768.0,square4,i,0.2056,3,N,5.0
NS5,44.0,24.0,26.0,42.0,30.0,30,1798.0,square4,i,0.0034,3,N,5.0
NS5,45.0,33.0,22.0,43.0,37.0,37,1835.0,square4,i,0.0007,3,N,5.0
NS5,46.0,32.0,24.0,50.0,38.0,38,1873.0,square4,i,0.1289,3,N,5.0
NS5,47.0,39.0,25.0,52.0,29.0,52,1925.0,square3,f,0.0902,2,N,5.0
NS5,48.0,42.0,22.0,46.0,33.0,46,1971.0,square3,f,0.0676,2,N,5.0
NS5,49.0,40.0,26.0,40.0,33.0,40,2011.0,square3,f,0.1784,2,N,5.0
NS5,50.0,34.0,19.0,47.0,33.0,47,2058.0,square3,f,0.2112,2,N,5.0
NS5,51.0,29.0,25.0,45.0,29.0,45,2103.0,square3,f,0.0986,2,N,5.0
NS5,52.0,29.0,24.0,48.0,35.0,48,2151.0,square3,f,0.1023,2,N,5.0
NS5,53.0,24.0,25.0,45.0,40.0,45,2196.0,square3,f,0.145,2,N,5.0
NS5,54.0,26.0,25.0,51.0,36.0,51,2247.0,square3,f,0.151,2,N,5.0
NS5,55.0,25.0,28.0,56.0,34.0,56,2303.0,square3,f,0.2356,2,N,5.0
NS5,56.0,23.0,27.0,54.0,36.0,54,2357.0,square3,f,0.0011,2,N,5.0
NS5,57.0,19.0,25.0,51.0,31.0,51,2408.0,square3,f,0.1131,2,N,5.0
NS5,58.0,20.0,30.0,53.0,29.0,53,2461.0,square3,f,0.3603,2,N,5.0
NS5,59.0,17.0,30.0,52.0,28.0,52,2513.0,square3,f,0.0215,2,N,5.0
NS5,60.0,15.0,30.0,55.0,30.0,55,2568.0,square3,f,0.1564,2,N,5.0
NS5,61.0,22.0,29.0,54.0,30.0,54,2622.0,square3,f,0.6411,2,N,5.0
NS5,62.0,18.0,31.0,55.0,32.0,55,2677.0,square3,f,0.1637,2,N,5.0
NS5,63.0,19.0,31.0,51.0,37.0,51,2728.0,square3,f,0.7979,2,N,5.0
NS5,64.0,20.0,30.0,45.0,35.0,45,2773.0,square3,f,0.2266,2,N,5.0
NS5,65.0,24.0,21.0,55.0,38.0,55,2828.0,square3,f,0.0534,2,N,5.0
NS5,66.0,22.0,29.0,58.0,36.0,58,2886.0,square3,f,0.3753,2,N,5.0
NS5,67.0,22.0,26.0,51.0,36.0,51,2937.0,square3,f,0.0097,2,N,5.0
NS5,68.0,20.0,28.0,52.0,36.0,36,2973.0,square4,i,0.1625,3,N,5.0
NS5,69.0,18.0,27.0,52.0,40.0,52,3025.0,square3,f,0.1489,2,N,5.0
NS5,70.0,22.0,34.0,55.0,39.0,55,3080.0,square3,f,0.1945,2,N,5.0
NS5,71.0,27.0,37.0,59.0,41.0,59,3139.0,square3,f,0.0161,2,N,5.0
NS5,72.0,27.0,37.0,57.0,40.0,57,3196.0,square3,f,1.5887,2,N,5.0
NS5,73.0,35.0,36.0,55.0,38.0,55,3251.0,square3,f,0.1903,2,N,5.0
NS5,74.0,27.0,36.0,52.0,36.0,52,3303.0,square3,f,1.5852,2,N,5.0
NS5,75.0,31.0,40.0,53.0,38.0,53,3356.0,square3,f,0.918,2,N,5.0
NS5,76.0,33.0,41.0,59.0,35.0,59,3415.0,square3,f,0.5744,2,N,5.0
NS5,77.0,33.0,42.0,56.0,38.0,56,3471.0,square3,f,0.2103,2,N,5.0
NS5,78.0,30.0,42.0,53.0,37.0,53,3524.0,square3,f,0.0242,2,N,5.0
NS5,79.0,27.0,49.0,51.0,44.0,51,3575.0,square3,f,0.2988,2,N,5.0
NS5,80.0,31.0,49.0,45.0,44.0,45,3620.0,square3,f,1.0645,2,N,5.0
NS5,81.0,33.0,51.0,48.0,43.0,48,3668.0,square3,f,0.0052,2,N,5.0
NS5,82.0,31.0,54.0,41.0,43.0,41,3709.0,square3,f,0.0102,2,N,5.0
NS5,83.0,25.0,57.0,42.0,40.0,42,3751.0,square3,f,0.2434,2,N,5.0
NS5,84.0,36.0,57.0,45.0,38.0,45,3796.0,square3,f,0.1471,2,N,5.0
NS5,85.0,36.0,62.0,44.0,42.0,44,3840.0,square3,f,0.027,2,N,5.0
NS5,86.0,33.0,55.0,48.0,43.0,48,3888.0,square3,f,0.1143,2,N,5.0
NS5,87.0,37.0,53.0,44.0,46.0,44,3932.0,square3,f,0.3576,2,N,5.0
NS5,88.0,36.0,54.0,41.0,48.0,41,3973.0,square3,f,0.1072,2,N,5.0
NS5,89.0,39.0,62.0,47.0,47.0,47,4020.0,square3,f,0.2827,2,N,5.0
NS5,90.0,37.0,62.0,51.0,48.0,51,4071.0,square3,f,0.1327,2,N,5.0
NS5,91.0,40.0,64.0,48.0,53.0,48,4119.0,square3,f,0.0008,2,N,5.0
NS5,92.0,42.0,64.0,51.0,55.0,51,4170.0,square3,f,0.0571,2,N,5.0
NS5,93.0,39.0,63.0,51.0,53.0,51,4221.0,square3,f,0.0983,2,N,5.0
NS5,94.0,41.0,60.0,50.0,58.0,50,4271.0,square3,f,0.0745,2,N,5.0
NS5,95.0,36.0,55.0,53.0,52.0,53,4324.0,square3,f,1.6471,2,N,5.0
NS5,96.0,36.0,56.0,55.0,56.0,55,4379.0,square3,f,1.0674,2,N,5.0
NS5,97.0,28.0,52.0,57.0,53.0,57,4436.0,square3,f,0.008,2,N,5.0
NS5,98.0,29.0,53.0,53.0,43.0,53,4489.0,square3,f,0.1581,2,N,5.0
NS5,99.0,25.0,55.0,53.0,46.0,53,4542.0,square3,f,0.228,2,N,5.0
NS1,0.0,60.0,65.0,21.0,53.0,53,53.0,square4,j,0.6441,3,N,1.0
NS1,1.0,56.0,62.0,31.0,51.0,56,109.0,square1,f,0.1431,0,N,1.0
NS1,2.0,58.0,62.0,24.0,57.0,62,171.0,square2,r,0.043,1,N,1.0
NS1,3.0,56.0,58.0,33.0,58.0,33,204.0,square3,i,0.164,2,N,1.0
NS1,4.0,60.0,58.0,32.0,58.0,58,262.0,square2,r,0.0162,1,N,1.0
NS1,5.0,56.0,59.0,31.0,54.0,59,321.0,square2,r,0.0755,1,N,1.0
NS1,6.0,58.0,57.0,37.0,56.0,57,378.0,square2,r,0.048,1,N,1.0
NS1,7.0,57.0,53.0,37.0,57.0,57,435.0,square1,f,0.0741,0,N,1.0
NS1,8.0,58.0,57.0,37.0,54.0,54,489.0,square4,j,0.1055,3,N,1.0
NS1,9.0,53.0,50.0,36.0,55.0,55,544.0,square4,j,0.0075,3,N,1.0
NS1,10.0,58.0,47.0,32.0,53.0,58,602.0,square1,f,0.0095,0,N,1.0
NS1,11.0,55.0,44.0,34.0,53.0,55,657.0,square1,f,0.0926,0,N,1.0
NS1,12.0,56.0,44.0,30.0,45.0,44,701.0,square2,r,0.1731,1,N,1.0
NS1,13.0,60.0,47.0,34.0,48.0,60,761.0,square1,f,0.1788,0,N,1.0
NS1,14.0,54.0,48.0,37.0,54.0,54,815.0,square1,f,0.1678,0,N,1.0
NS1,15.0,53.0,44.0,35.0,51.0,53,868.0,square1,f,0.0485,0,N,1.0
NS1,16.0,50.0,50.0,35.0,43.0,43,911.0,square4,j,0.0159,3,N,1.0
NS1,17.0,53.0,46.0,35.0,44.0,53,964.0,square1,f,0.1052,0,N,1.0
NS1,18.0,54.0,51.0,42.0,48.0,54,1018.0,square1,f,0.0897,0,N,1.0
NS1,19.0,62.0,51.0,44.0,53.0,62,1080.0,square1,f,0.1134,0,N,1.0
NS1,20.0,63.0,47.0,42.0,47.0,63,1143.0,square1,f,0.1245,0,N,1.0
NS1,21.0,67.0,51.0,41.0,46.0,51,1194.0,square2,r,0.0252,1,N,1.0
NS1,22.0,75.0,44.0,45.0,43.0,75,1269.0,square1,f,0.1493,0,N,1.0
NS1,23.0,64.0,42.0,41.0,47.0,64,1333.0,square1,f,0.0454,0,N,1.0
NS1,24.0,68.0,41.0,39.0,49.0,68,1401.0,square1,f,0.0793,0,N,1.0
NS1,25.0,71.0,43.0,33.0,42.0,71,1472.0,square1,f,0.266,0,N,1.0
NS1,26.0,70.0,41.0,26.0,45.0,70,1542.0,square1,f,0.6009,0,N,1.0
NS1,27.0,72.0,42.0,34.0,48.0,72,1614.0,square1,f,0.1251,0,N,1.0
NS1,28.0,71.0,41.0,33.0,45.0,71,1685.0,square1,f,0.108,0,N,1.0
NS1,29.0,77.0,42.0,31.0,48.0,77,1762.0,square1,f,0.0945,0,N,1.0
NS1,30.0,73.0,41.0,33.0,51.0,73,1835.0,square1,f,0.2325,0,N,1.0
NS1,31.0,71.0,44.0,35.0,48.0,71,1906.0,square1,f,0.3488,0,N,1.0
NS1,32.0,81.0,47.0,33.0,50.0,81,1987.0,square1,f,0.0896,0,N,1.0
NS1,33.0,75.0,50.0,27.0,42.0,75,2062.0,square1,f,0.4846,0,N,1.0
NS1,34.0,71.0,49.0,27.0,44.0,71,2133.0,square1,f,0.0053,0,N,1.0
NS1,35.0,69.0,47.0,23.0,47.0,69,2202.0,square1,f,0.2333,0,N,1.0
NS1,36.0,71.0,50.0,32.0,45.0,71,2273.0,square1,f,1.6478,0,N,1.0
NS1,37.0,66.0,48.0,33.0,52.0,66,2339.0,square1,f,0.1821,0,N,1.0
NS1,38.0,64.0,50.0,34.0,51.0,64,2403.0,square1,f,0.4917,0,N,1.0
NS1,39.0,65.0,49.0,25.0,47.0,65,2468.0,square1,f,0.0889,0,N,1.0
NS1,40.0,66.0,46.0,23.0,50.0,66,2534.0,square1,f,0.1483,0,N,1.0
NS1,41.0,68.0,45.0,22.0,50.0,68,2602.0,square1,f,0.0561,0,N,1.0
NS1,42.0,74.0,41.0,28.0,50.0,74,2676.0,square1,f,0.1638,0,N,1.0
NS1,43.0,69.0,42.0,27.0,52.0,69,2745.0,square1,f,0.0006,0,N,1.0
NS1,44.0,71.0,38.0,32.0,49.0,71,2816.0,square1,f,0.0396,0,N,1.0
NS1,45.0,68.0,38.0,30.0,55.0,68,2884.0,square1,f,0.0695,0,N,1.0
NS1,46.0,66.0,39.0,30.0,56.0,66,2950.0,square1,f,0.2463,0,N,1.0
NS1,47.0,62.0,35.0,31.0,50.0,62,3012.0,square1,f,0.4997,0,N,1.0
NS1,48.0,68.0,31.0,32.0,49.0,68,3080.0,square1,f,0.0106,0,N,1.0
NS1,49.0,66.0,33.0,35.0,46.0,66,3146.0,square1,f,0.0404,0,N,1.0
NS1,50.0,64.0,30.0,32.0,46.0,64,3210.0,square1,f,0.0008,0,N,1.0
NS1,51.0,66.0,35.0,39.0,43.0,66,3276.0,square1,f,0.1082,0,N,1.0
NS1,52.0,67.0,33.0,37.0,49.0,67,3343.0,square1,f,0.1175,0,N,1.0
NS1,53.0,70.0,32.0,35.0,47.0,70,3413.0,square1,f,0.057,0,N,1.0
NS1,54.0,62.0,40.0,28.0,43.0,62,3475.0,square1,f,0.0154,0,N,1.0
NS1,55.0,66.0,39.0,26.0,43.0,66,3541.0,square1,f,0.0462,0,N,1.0
NS1,56.0,64.0,38.0,26.0,44.0,38,3579.0,square2,r,0.1105,1,N,1.0
NS1,57.0,63.0,41.0,24.0,48.0,63,3642.0,square1,f,0.3088,0,N,1.0
NS1,58.0,67.0,49.0,24.0,48.0,67,3709.0,square1,f,0.0092,0,N,1.0
NS1,59.0,57.0,51.0,27.0,43.0,43,3752.0,square4,j,0.0403,3,N,1.0
NS1,60.0,56.0,51.0,31.0,42.0,56,3808.0,square1,f,0.8488,0,N,1.0
NS1,61.0,55.0,50.0,25.0,49.0,55,3863.0,square1,f,0.2278,0,N,1.0
NS1,62.0,55.0,51.0,27.0,50.0,55,3918.0,square1,f,0.1811,0,N,1.0
NS1,63.0,53.0,51.0,27.0,50.0,53,3971.0,square1,f,0.2077,0,N,1.0
NS1,64.0,53.0,56.0,27.0,50.0,53,4024.0,square1,f,0.2276,0,N,1.0
NS1,65.0,49.0,56.0,26.0,49.0,49,4073.0,square1,f,0.009,0,N,1.0
NS1,66.0,47.0,61.0,29.0,50.0,47,4120.0,square1,f,0.0923,0,N,1.0
NS1,67.0,47.0,56.0,27.0,50.0,47,4167.0,square1,f,0.1687,0,N,1.0
NS1,68.0,47.0,64.0,29.0,48.0,47,4214.0,square1,f,0.0816,0,N,1.0
NS1,69.0,54.0,67.0,24.0,53.0,54,4268.0,square1,f,0.082,0,N,1.0
NS1,70.0,44.0,70.0,21.0,48.0,44,4312.0,square1,f,0.1739,0,N,1.0
NS1,71.0,45.0,67.0,26.0,52.0,52,4364.0,square4,j,0.2416,3,N,1.0
NS1,72.0,44.0,64.0,22.0,49.0,64,4428.0,square2,r,0.1696,1,N,1.0
NS1,73.0,43.0,60.0,23.0,51.0,60,4488.0,square2,r,0.094,1,N,1.0
NS1,74.0,47.0,59.0,26.0,57.0,59,4547.0,square2,r,0.1343,1,N,1.0
NS1,75.0,44.0,56.0,27.0,51.0,56,4603.0,square2,r,0.1697,1,N,1.0
NS1,76.0,34.0,55.0,21.0,52.0,55,4658.0,square2,r,0.16,1,N,1.0
NS1,77.0,39.0,64.0,17.0,55.0,64,4722.0,square2,r,0.147,1,N,1.0
NS1,78.0,38.0,64.0,25.0,52.0,25,4747.0,square3,i,0.0294,2,N,1.0
NS1,79.0,40.0,65.0,24.0,54.0,40,4787.0,square1,f,0.3679,0,N,1.0
NS1,80.0,44.0,66.0,21.0,53.0,44,4831.0,square1,f,0.0846,0,N,1.0
NS1,81.0,50.0,60.0,27.0,54.0,60,4891.0,square2,r,0.1287,1,N,1.0
NS1,82.0,43.0,62.0,20.0,57.0,62,4953.0,square2,r,0.3949,1,N,1.0
NS1,83.0,44.0,55.0,24.0,59.0,55,5008.0,square2,r,0.0911,1,N,1.0
NS1,84.0,41.0,51.0,28.0,61.0,51,5059.0,square2,r,0.1104,1,N,1.0
NS1,85.0,49.0,49.0,29.0,70.0,49,5108.0,square2,r,0.0402,1,N,1.0
NS1,86.0,47.0,44.0,26.0,66.0,44,5152.0,square2,r,0.1742,1,N,1.0
NS1,87.0,48.0,48.0,23.0,68.0,48,5200.0,square2,r,0.3877,1,N,1.0
NS1,88.0,46.0,51.0,20.0,70.0,51,5251.0,square2,r,0.6094,1,N,1.0
NS1,89.0,45.0,50.0,17.0,75.0,50,5301.0,square2,r,0.1438,1,N,1.0
NS1,90.0,50.0,48.0,18.0,74.0,99999,5301.0,invalid,,,-1,N,1.0
NS1,91.0,46.0,53.0,17.0,67.0,53,5354.0,square2,r,0.0989,1,N,1.0
NS1,92.0,38.0,56.0,22.0,65.0,56,5410.0,square2,r,0.2293,1,N,1.0
NS1,93.0,38.0,53.0,22.0,66.0,53,5463.0,square2,r,0.1449,1,N,1.0
NS1,94.0,42.0,49.0,24.0,72.0,49,5512.0,square2,r,0.1,1,N,1.0
NS1,95.0,44.0,48.0,25.0,70.0,48,5560.0,square2,r,0.0659,1,N,1.0
NS1,96.0,35.0,50.0,21.0,67.0,50,5610.0,square2,r,0.2258,1,N,1.0
NS1,97.0,43.0,55.0,16.0,72.0,55,5665.0,square2,r,0.1399,1,N,1.0
NS1,98.0,46.0,50.0,21.0,73.0,50,5715.0,square2,r,0.1795,1,N,1.0
NS1,99.0,43.0,46.0,27.0,71.0,46,5761.0,square2,r,0.2127,1,N,1.0
