block,Trial,square1,square2,square3,square4,currPoints,totalPoints,square,choiceKey.keys,choiceKey.rt,armNum,blockType,blockNum
prac,0.0,100.0,0.0,0.0,0.0,0,0.0,square4,,,3,p,0.0
prac,1.0,100.0,0.0,0.0,0.0,100,100.0,square1,,,0,p,0.0
prac,2.0,100.0,0.0,0.0,0.0,99999,100.0,invalid,,,-1,p,0.0
prac,3.0,100.0,0.0,0.0,0.0,0,100.0,square2,,,1,p,0.0
prac,4.0,100.0,0.0,0.0,0.0,0,100.0,square3,,,2,p,0.0
prac,5.0,100.0,0.0,0.0,0.0,100,200.0,square1,,,0,p,0.0
prac,6.0,100.0,0.0,0.0,0.0,100,300.0,square1,,,0,p,0.0
prac,7.0,100.0,0.0,0.0,0.0,100,400.0,square1,,,0,p,0.0
prac,8.0,100.0,0.0,0.0,0.0,100,500.0,square1,,,0,p,0.0
prac,9.0,100.0,0.0,0.0,0.0,100,600.0,square1,,,0,p,0.0
NS8,0.0,61.0,62.0,34.0,32.0,32,32.0,square4,f,1.4574,3,N,8.0
NS8,1.0,57.0,56.0,38.0,27.0,38,70.0,square3,r,1.0565,2,N,8.0
NS8,2.0,66.0,55.0,42.0,28.0,99999,70.0,invalid,,,-1,N,8.0
NS8,3.0,67.0,51.0,37.0,28.0,67,137.0,square1,i,0.3915,0,N,8.0
NS8,4.0,65.0,53.0,38.0,32.0,53,190.0,square2,j,0.6124,1,N,8.0
NS8,5.0,67.0,52.0,43.0,33.0,67,257.0,square1,i,1.1046,0,N,8.0
NS8,6.0,56.0,47.0,41.0,36.0,56,313.0,square1,i,0.5472,0,N,8.0
NS8,7.0,58.0,46.0,37.0,31.0,31,344.0,square4,f,1.1397,3,N,8.0
NS8,8.0,60.0,58.0,36.0,35.0,58,402.0,square2,j,0.524,1,N,8.0
NS8,9.0,60.0,66.0,41.0,39.0,41,443.0,square3,r,0.4914,2,N,8.0
NS8,10.0,60.0,60.0,36.0,33.0,60,503.0,square2,j,0.6469,1,N,8.0
NS8,11.0,53.0,63.0,32.0,35.0,63,566.0,square2,j,0.3306,1,N,8.0
NS8,12.0,51.0,60.0,32.0,29.0,60,626.0,square2,j,0.3758,1,N,8.0
NS8,13.0,53.0,65.0,30.0,32.0,53,679.0,square1,i,0.269,0,N,8.0
NS8,14.0,56.0,69.0,25.0,33.0,33,712.0,square4,f,1.1183,3,N,8.0
NS8,15.0,57.0,71.0,29.0,35.0,29,741.0,square3,r,0.7758,2,N,8.0
NS8,16.0,55.0,64.0,31.0,33.0,64,805.0,square2,j,0.4316,1,N,8.0
NS8,17.0,48.0,65.0,29.0,32.0,65,870.0,square2,j,0.3535,1,N,8.0
NS8,18.0,44.0,64.0,28.0,34.0,64,934.0,square2,j,0.2419,1,N,8.0
NS8,19.0,46.0,60.0,26.0,33.0,60,994.0,square2,j,0.3588,1,N,8.0
NS8,20.0,41.0,58.0,29.0,35.0,58,1052.0,square2,j,0.1069,1,N,8.0
NS8,21.0,45.0,57.0,29.0,35.0,57,1109.0,square2,j,0.1048,1,N,8.0
NS8,22.0,47.0,53.0,32.0,32.0,47,1156.0,square1,i,0.0216,0,N,8.0
NS8,23.0,49.0,52.0,33.0,35.0,52,1208.0,square2,j,0.0398,1,N,8.0
NS8,24.0,56.0,53.0,30.0,37.0,53,1261.0,square2,j,0.2296,1,N,8.0
NS8,25.0,57.0,48.0,28.0,42.0,42,1303.0,square4,f,0.7288,3,N,8.0
NS8,26.0,52.0,48.0,33.0,43.0,33,1336.0,square3,r,0.4103,2,N,8.0
NS8,27.0,53.0,45.0,28.0,47.0,45,1381.0,square2,j,0.245,1,N,8.0
NS8,28.0,50.0,43.0,27.0,41.0,43,1424.0,square2,j,0.2738,1,N,8.0
NS8,29.0,53.0,52.0,29.0,43.0,52,1476.0,square2,j,0.3124,1,N,8.0
NS8,30.0,54.0,51.0,30.0,41.0,51,1527.0,square2,j,0.306,1,N,8.0
NS8,31.0,50.0,50.0,31.0,42.0,50,1577.0,square1,i,0.0394,0,N,8.0
NS8,32.0,50.0,50.0,35.0,43.0,50,1627.0,square1,i,0.6663,0,N,8.0
NS8,33.0,46.0,48.0,39.0,41.0,48,1675.0,square2,j,0.0641,1,N,8.0
NS8,34.0,47.0,46.0,41.0,40.0,40,1715.0,square4,f,0.4251,3,N,8.0
NS8,35.0,57.0,45.0,36.0,37.0,36,1751.0,square3,r,0.4424,2,N,8.0
NS8,36.0,53.0,49.0,41.0,38.0,49,1800.0,square2,j,0.4262,1,N,8.0
NS8,37.0,57.0,50.0,41.0,39.0,50,1850.0,square2,j,0.8529,1,N,8.0
NS8,38.0,61.0,51.0,39.0,43.0,61,1911.0,square1,i,0.521,0,N,8.0
NS8,39.0,59.0,54.0,41.0,36.0,59,1970.0,square1,i,0.3764,0,N,8.0
NS8,40.0,53.0,55.0,47.0,40.0,53,2023.0,square1,i,0.3804,0,N,8.0
NS8,41.0,53.0,55.0,43.0,39.0,53,2076.0,square1,i,0.1769,0,N,8.0
NS8,42.0,59.0,55.0,45.0,40.0,59,2135.0,square1,i,0.1176,0,N,8.0
NS8,43.0,54.0,46.0,51.0,37.0,54,2189.0,square1,i,0.1227,0,N,8.0
NS8,44.0,56.0,44.0,50.0,35.0,56,2245.0,square1,i,0.1094,0,N,8.0
NS8,45.0,51.0,46.0,41.0,37.0,46,2291.0,square2,j,0.0683,1,N,8.0
NS8,46.0,52.0,43.0,44.0,34.0,52,2343.0,square1,i,0.1269,0,N,8.0
NS8,47.0,46.0,41.0,36.0,37.0,46,2389.0,square1,i,0.8676,0,N,8.0
NS8,48.0,47.0,46.0,39.0,37.0,47,2436.0,square1,i,0.0033,0,N,8.0
NS8,49.0,48.0,36.0,38.0,40.0,36,2472.0,square2,j,0.3916,1,N,8.0
NS8,50.0,51.0,37.0,36.0,46.0,46,2518.0,square4,f,0.7889,3,N,8.0
NS8,51.0,53.0,38.0,40.0,43.0,40,2558.0,square3,r,0.3207,2,N,8.0
NS8,52.0,47.0,32.0,37.0,44.0,32,2590.0,square2,j,0.6856,1,N,8.0
NS8,53.0,52.0,31.0,38.0,46.0,52,2642.0,square1,i,0.1269,0,N,8.0
NS8,54.0,44.0,34.0,40.0,45.0,44,2686.0,square1,i,0.6431,0,N,8.0
NS8,55.0,46.0,26.0,37.0,41.0,46,2732.0,square1,i,0.3317,0,N,8.0
NS8,56.0,42.0,29.0,36.0,40.0,29,2761.0,square2,j,0.067,1,N,8.0
NS8,57.0,39.0,21.0,39.0,40.0,39,2800.0,square1,i,0.1419,0,N,8.0
NS8,58.0,42.0,18.0,39.0,40.0,40,2840.0,square4,f,0.4437,3,N,8.0
NS8,59.0,46.0,16.0,41.0,39.0,41,2881.0,square3,r,0.8056,2,N,8.0
NS8,60.0,45.0,20.0,40.0,39.0,45,2926.0,square1,i,0.2149,0,N,8.0
NS8,61.0,45.0,26.0,42.0,39.0,45,2971.0,square1,i,0.4722,0,N,8.0
NS8,62.0,46.0,21.0,45.0,37.0,46,3017.0,square1,i,0.3518,0,N,8.0
NS8,63.0,50.0,23.0,40.0,38.0,50,3067.0,square1,i,0.3823,0,N,8.0
NS8,64.0,46.0,24.0,41.0,33.0,46,3113.0,square1,i,0.4108,0,N,8.0
NS8,65.0,48.0,28.0,42.0,32.0,48,3161.0,square1,i,0.2468,0,N,8.0
NS8,66.0,47.0,20.0,40.0,35.0,20,3181.0,square2,j,0.3898,1,N,8.0
NS8,67.0,49.0,25.0,46.0,34.0,34,3215.0,square4,f,0.3896,3,N,8.0
NS8,68.0,47.0,24.0,45.0,33.0,45,3260.0,square3,r,0.6735,2,N,8.0
NS8,69.0,45.0,21.0,47.0,35.0,47,3307.0,square3,r,0.6375,2,N,8.0
NS8,70.0,44.0,21.0,47.0,37.0,47,3354.0,square3,r,0.3961,2,N,8.0
NS8,71.0,44.0,15.0,41.0,38.0,41,3395.0,square3,r,0.3064,2,N,8.0
NS8,72.0,47.0,19.0,49.0,40.0,49,3444.0,square3,r,0.7094,2,N,8.0
NS8,73.0,39.0,21.0,53.0,38.0,53,3497.0,square3,r,0.7014,2,N,8.0
NS8,74.0,42.0,19.0,53.0,35.0,53,3550.0,square3,r,0.4182,2,N,8.0
NS8,75.0,37.0,18.0,43.0,35.0,43,3593.0,square3,r,0.116,2,N,8.0
NS8,76.0,35.0,14.0,42.0,38.0,42,3635.0,square3,r,0.1986,2,N,8.0
NS8,77.0,38.0,19.0,47.0,44.0,47,3682.0,square3,r,0.2443,2,N,8.0
NS8,78.0,38.0,18.0,50.0,46.0,50,3732.0,square3,r,0.2487,2,N,8.0
NS8,79.0,33.0,22.0,54.0,44.0,54,3786.0,square3,r,0.8061,2,N,8.0
NS8,80.0,38.0,21.0,56.0,52.0,56,3842.0,square3,r,0.1937,2,N,8.0
NS8,81.0,37.0,22.0,56.0,43.0,56,3898.0,square3,r,0.0403,2,N,8.0
NS8,82.0,30.0,26.0,60.0,42.0,30,3928.0,square1,i,0.3484,0,N,8.0
NS8,83.0,38.0,22.0,54.0,46.0,22,3950.0,square2,j,0.3759,1,N,8.0
NS8,84.0,33.0,18.0,52.0,46.0,52,4002.0,square3,r,0.64,2,N,8.0
NS8,85.0,42.0,12.0,57.0,48.0,57,4059.0,square3,r,0.849,2,N,8.0
NS8,86.0,45.0,19.0,58.0,42.0,58,4117.0,square3,r,0.3051,2,N,8.0
NS8,87.0,46.0,10.0,65.0,44.0,65,4182.0,square3,r,0.0952,2,N,8.0
NS8,88.0,45.0,11.0,59.0,45.0,59,4241.0,square3,r,0.1726,2,N,8.0
NS8,89.0,42.0,11.0,60.0,47.0,60,4301.0,square3,r,0.1287,2,N,8.0
NS8,90.0,40.0,7.0,64.0,49.0,64,4365.0,square3,r,0.2899,2,N,8.0
NS8,91.0,42.0,11.0,64.0,48.0,64,4429.0,square3,r,0.1465,2,N,8.0
NS8,92.0,43.0,13.0,60.0,43.0,60,4489.0,square3,r,0.0193,2,N,8.0
NS8,93.0,44.0,12.0,64.0,45.0,64,4553.0,square3,r,0.6955,2,N,8.0
NS8,94.0,45.0,16.0,65.0,49.0,65,4618.0,square3,r,0.3896,2,N,8.0
NS8,95.0,45.0,24.0,66.0,42.0,66,4684.0,square3,r,0.014,2,N,8.0
NS8,96.0,53.0,27.0,67.0,44.0,67,4751.0,square3,r,0.0211,2,N,8.0
NS8,97.0,50.0,29.0,68.0,43.0,68,4819.0,square3,r,1.0095,2,N,8.0
NS8,98.0,52.0,29.0,66.0,37.0,66,4885.0,square3,r,0.1108,2,N,8.0
NS8,99.0,53.0,32.0,65.0,37.0,65,4950.0,square3,r,0.1762,2,N,8.0
NS5,0.0,26.0,19.0,54.0,39.0,39,39.0,square4,r,1.2788,3,N,5.0
NS5,1.0,21.0,17.0,51.0,42.0,21,60.0,square1,f,0.1392,0,N,5.0
NS5,2.0,19.0,17.0,52.0,42.0,17,77.0,square2,i,0.3933,1,N,5.0
NS5,3.0,21.0,16.0,55.0,38.0,55,132.0,square3,j,0.1061,2,N,5.0
NS5,4.0,14.0,26.0,52.0,44.0,44,176.0,square4,r,1.2233,3,N,5.0
NS5,5.0,18.0,25.0,47.0,42.0,47,223.0,square3,j,0.622,2,N,5.0
NS5,6.0,23.0,21.0,54.0,38.0,23,246.0,square1,f,0.5048,0,N,5.0
NS5,7.0,18.0,27.0,56.0,39.0,27,273.0,square2,i,0.8221,1,N,5.0
NS5,8.0,18.0,28.0,57.0,40.0,57,330.0,square3,j,0.4201,2,N,5.0
NS5,9.0,15.0,29.0,53.0,38.0,53,383.0,square3,j,0.3159,2,N,5.0
NS5,10.0,13.0,26.0,56.0,41.0,56,439.0,square3,j,0.2754,2,N,5.0
NS5,11.0,11.0,25.0,58.0,41.0,58,497.0,square3,j,0.2809,2,N,5.0
NS5,12.0,9.0,22.0,53.0,40.0,53,550.0,square3,j,0.1318,2,N,5.0
NS5,13.0,11.0,21.0,55.0,39.0,55,605.0,square3,j,0.0953,2,N,5.0
NS5,14.0,12.0,17.0,49.0,38.0,49,654.0,square3,j,0.0596,2,N,5.0
NS5,15.0,18.0,19.0,52.0,37.0,52,706.0,square3,j,0.0909,2,N,5.0
NS5,16.0,18.0,20.0,49.0,40.0,40,746.0,square4,r,0.4271,3,N,5.0
NS5,17.0,16.0,16.0,50.0,41.0,50,796.0,square3,j,0.0655,2,N,5.0
NS5,18.0,16.0,18.0,51.0,43.0,51,847.0,square3,j,0.1267,2,N,5.0
NS5,19.0,14.0,20.0,44.0,45.0,44,891.0,square3,j,0.1259,2,N,5.0
NS5,20.0,19.0,21.0,42.0,48.0,42,933.0,square3,j,0.1624,2,N,5.0
NS5,21.0,19.0,22.0,43.0,47.0,22,955.0,square2,i,0.2131,1,N,5.0
NS5,22.0,17.0,15.0,43.0,47.0,17,972.0,square1,f,0.0762,0,N,5.0
NS5,23.0,16.0,28.0,37.0,47.0,47,1019.0,square4,r,0.0009,3,N,5.0
NS5,24.0,20.0,21.0,38.0,49.0,49,1068.0,square4,r,0.573,3,N,5.0
NS5,25.0,22.0,17.0,34.0,46.0,46,1114.0,square4,r,0.2432,3,N,5.0
NS5,26.0,30.0,16.0,32.0,50.0,50,1164.0,square4,r,0.4665,3,N,5.0
NS5,27.0,21.0,20.0,35.0,42.0,35,1199.0,square3,j,0.4756,2,N,5.0
NS5,28.0,20.0,23.0,39.0,42.0,42,1241.0,square4,r,0.3261,3,N,5.0
NS5,29.0,21.0,18.0,39.0,41.0,41,1282.0,square4,r,0.7602,3,N,5.0
NS5,30.0,20.0,11.0,41.0,44.0,44,1326.0,square4,r,0.4719,3,N,5.0
NS5,31.0,20.0,9.0,36.0,43.0,43,1369.0,square4,r,0.2908,3,N,5.0
NS5,32.0,21.0,13.0,35.0,46.0,46,1415.0,square4,r,0.0923,3,N,5.0
NS5,33.0,16.0,22.0,32.0,44.0,44,1459.0,square4,r,0.228,3,N,5.0
NS5,34.0,20.0,20.0,33.0,37.0,37,1496.0,square4,r,0.2916,3,N,5.0
NS5,35.0,19.0,27.0,34.0,40.0,34,1530.0,square3,j,0.0897,2,N,5.0
NS5,36.0,20.0,23.0,31.0,37.0,23,1553.0,square2,i,0.2092,1,N,5.0
NS5,37.0,15.0,28.0,41.0,40.0,15,1568.0,square1,f,0.1301,0,N,5.0
NS5,38.0,18.0,21.0,45.0,37.0,45,1613.0,square3,j,0.0008,2,N,5.0
NS5,39.0,23.0,22.0,40.0,34.0,40,1653.0,square3,j,0.161,2,N,5.0
NS5,40.0,22.0,25.0,44.0,26.0,26,1679.0,square4,r,0.1781,3,N,5.0
NS5,41.0,28.0,25.0,39.0,29.0,39,1718.0,square3,j,0.2459,2,N,5.0
NS5,42.0,27.0,27.0,42.0,35.0,42,1760.0,square3,j,0.5788,2,N,5.0
NS5,43.0,25.0,25.0,49.0,38.0,49,1809.0,square3,j,0.0886,2,N,5.0
NS5,44.0,24.0,26.0,42.0,30.0,42,1851.0,square3,j,0.5425,2,N,5.0
NS5,45.0,33.0,22.0,43.0,37.0,43,1894.0,square3,j,0.06,2,N,5.0
NS5,46.0,32.0,24.0,50.0,38.0,50,1944.0,square3,j,0.2125,2,N,5.0
NS5,47.0,39.0,25.0,52.0,29.0,52,1996.0,square3,j,0.0562,2,N,5.0
NS5,48.0,42.0,22.0,46.0,33.0,46,2042.0,square3,j,0.065,2,N,5.0
NS5,49.0,40.0,26.0,40.0,33.0,40,2082.0,square3,j,0.2235,2,N,5.0
NS5,50.0,34.0,19.0,47.0,33.0,47,2129.0,square3,j,0.0478,2,N,5.0
NS5,51.0,29.0,25.0,45.0,29.0,45,2174.0,square3,j,0.0009,2,N,5.0
NS5,52.0,29.0,24.0,48.0,35.0,48,2222.0,square3,j,0.0557,2,N,5.0
NS5,53.0,24.0,25.0,45.0,40.0,45,2267.0,square3,j,0.059,2,N,5.0
NS5,54.0,26.0,25.0,51.0,36.0,51,2318.0,square3,j,0.0107,2,N,5.0
NS5,55.0,25.0,28.0,56.0,34.0,56,2374.0,square3,j,0.0887,2,N,5.0
NS5,56.0,23.0,27.0,54.0,36.0,54,2428.0,square3,j,0.0616,2,N,5.0
NS5,57.0,19.0,25.0,51.0,31.0,51,2479.0,square3,j,0.0005,2,N,5.0
NS5,58.0,20.0,30.0,53.0,29.0,53,2532.0,square3,j,0.4552,2,N,5.0
NS5,59.0,17.0,30.0,52.0,28.0,52,2584.0,square3,j,0.6439,2,N,5.0
NS5,60.0,15.0,30.0,55.0,30.0,55,2639.0,square3,j,0.148,2,N,5.0
NS5,61.0,22.0,29.0,54.0,30.0,54,2693.0,square3,j,0.3422,2,N,5.0
NS5,62.0,18.0,31.0,55.0,32.0,55,2748.0,square3,j,0.25,2,N,5.0
NS5,63.0,19.0,31.0,51.0,37.0,51,2799.0,square3,j,0.2117,2,N,5.0
NS5,64.0,20.0,30.0,45.0,35.0,45,2844.0,square3,j,0.1953,2,N,5.0
NS5,65.0,24.0,21.0,55.0,38.0,55,2899.0,square3,j,0.1229,2,N,5.0
NS5,66.0,22.0,29.0,58.0,36.0,36,2935.0,square4,r,0.2751,3,N,5.0
NS5,67.0,22.0,26.0,51.0,36.0,51,2986.0,square3,j,0.223,2,N,5.0
NS5,68.0,20.0,28.0,52.0,36.0,52,3038.0,square3,j,0.325,2,N,5.0
NS5,69.0,18.0,27.0,52.0,40.0,52,3090.0,square3,j,0.038,2,N,5.0
NS5,70.0,22.0,34.0,55.0,39.0,55,3145.0,square3,j,0.0644,2,N,5.0
NS5,71.0,27.0,37.0,59.0,41.0,59,3204.0,square3,j,0.0259,2,N,5.0
NS5,72.0,27.0,37.0,57.0,40.0,57,3261.0,square3,j,0.039,2,N,5.0
NS5,73.0,35.0,36.0,55.0,38.0,55,3316.0,square3,j,0.104,2,N,5.0
NS5,74.0,27.0,36.0,52.0,36.0,52,3368.0,square3,j,0.004,2,N,5.0
NS5,75.0,31.0,40.0,53.0,38.0,53,3421.0,square3,j,0.0106,2,N,5.0
NS5,76.0,33.0,41.0,59.0,35.0,59,3480.0,square3,j,0.2738,2,N,5.0
NS5,77.0,33.0,42.0,56.0,38.0,56,3536.0,square3,j,0.1645,2,N,5.0
NS5,78.0,30.0,42.0,53.0,37.0,53,3589.0,square3,j,0.0943,2,N,5.0
NS5,79.0,27.0,49.0,51.0,44.0,51,3640.0,square3,j,0.2139,2,N,5.0
NS5,80.0,31.0,49.0,45.0,44.0,45,3685.0,square3,j,0.825,2,N,5.0
NS5,81.0,33.0,51.0,48.0,43.0,48,3733.0,square3,j,0.6685,2,N,5.0
NS5,82.0,31.0,54.0,41.0,43.0,43,3776.0,square4,r,0.3415,3,N,5.0
NS5,83.0,25.0,57.0,42.0,40.0,40,3816.0,square4,r,0.4649,3,N,5.0
NS5,84.0,36.0,57.0,45.0,38.0,57,3873.0,square2,i,0.3733,1,N,5.0
NS5,85.0,36.0,62.0,44.0,42.0,62,3935.0,square2,i,0.323,1,N,5.0
NS5,86.0,33.0,55.0,48.0,43.0,55,3990.0,square2,i,0.399,1,N,5.0
NS5,87.0,37.0,53.0,44.0,46.0,53,4043.0,square2,i,0.0735,1,N,5.0
NS5,88.0,36.0,54.0,41.0,48.0,54,4097.0,square2,i,0.2938,1,N,5.0
NS5,89.0,39.0,62.0,47.0,47.0,62,4159.0,square2,i,0.3313,1,N,5.0
NS5,90.0,37.0,62.0,51.0,48.0,62,4221.0,square2,i,0.2412,1,N,5.0
NS5,91.0,40.0,64.0,48.0,53.0,64,4285.0,square2,i,0.2784,1,N,5.0
NS5,92.0,42.0,64.0,51.0,55.0,64,4349.0,square2,i,0.1796,1,N,5.0
NS5,93.0,39.0,63.0,51.0,53.0,63,4412.0,square2,i,0.1555,1,N,5.0
NS5,94.0,41.0,60.0,50.0,58.0,60,4472.0,square2,i,0.1719,1,N,5.0
NS5,95.0,36.0,55.0,53.0,52.0,55,4527.0,square2,i,0.0277,1,N,5.0
NS5,96.0,36.0,56.0,55.0,56.0,56,4583.0,square2,i,0.0579,1,N,5.0
NS5,97.0,28.0,52.0,57.0,53.0,52,4635.0,square2,i,0.111,1,N,5.0
NS5,98.0,29.0,53.0,53.0,43.0,53,4688.0,square3,j,0.3284,2,N,5.0
NS5,99.0,25.0,55.0,53.0,46.0,55,4743.0,square2,i,0.0297,1,N,5.0
NS7,0.0,26.0,62.0,36.0,41.0,99999,0.0,invalid,,,-1,N,7.0
NS7,1.0,31.0,61.0,40.0,42.0,61,61.0,square2,r,1.7948,1,N,7.0
NS7,2.0,30.0,60.0,46.0,41.0,60,121.0,square2,r,0.0403,1,N,7.0
NS7,3.0,27.0,57.0,46.0,39.0,46,167.0,square3,f,0.5723,2,N,7.0
NS7,4.0,20.0,58.0,45.0,39.0,20,187.0,square1,i,0.1542,0,N,7.0
NS7,5.0,29.0,57.0,46.0,42.0,42,229.0,square4,j,0.5162,3,N,7.0
NS7,6.0,28.0,61.0,44.0,40.0,61,290.0,square2,r,0.091,1,N,7.0
NS7,7.0,24.0,56.0,46.0,40.0,56,346.0,square2,r,0.3548,1,N,7.0
NS7,8.0,25.0,66.0,45.0,36.0,66,412.0,square2,r,0.1701,1,N,7.0
NS7,9.0,27.0,65.0,46.0,40.0,65,477.0,square2,r,0.1592,1,N,7.0
NS7,10.0,27.0,65.0,41.0,46.0,65,542.0,square2,r,0.7794,1,N,7.0
NS7,11.0,26.0,58.0,40.0,51.0,58,600.0,square2,r,0.5269,1,N,7.0
NS7,12.0,19.0,64.0,43.0,57.0,64,664.0,square2,r,0.5258,1,N,7.0
NS7,13.0,21.0,64.0,43.0,54.0,64,728.0,square2,r,0.4552,1,N,7.0
NS7,14.0,26.0,67.0,44.0,55.0,67,795.0,square2,r,0.3466,1,N,7.0
NS7,15.0,20.0,64.0,40.0,61.0,64,859.0,square2,r,0.2934,1,N,7.0
NS7,16.0,20.0,61.0,38.0,66.0,61,920.0,square2,r,0.3507,1,N,7.0
NS7,17.0,20.0,56.0,39.0,64.0,56,976.0,square2,r,0.2221,1,N,7.0
NS7,18.0,21.0,56.0,33.0,65.0,33,1009.0,square3,f,0.399,2,N,7.0
NS7,19.0,21.0,56.0,36.0,68.0,68,1077.0,square4,j,0.3937,3,N,7.0
NS7,20.0,26.0,58.0,37.0,64.0,64,1141.0,square4,j,0.4936,3,N,7.0
NS7,21.0,29.0,62.0,36.0,61.0,61,1202.0,square4,j,0.3324,3,N,7.0
NS7,22.0,24.0,63.0,37.0,55.0,55,1257.0,square4,j,0.3896,3,N,7.0
NS7,23.0,26.0,64.0,38.0,54.0,26,1283.0,square1,i,0.2566,0,N,7.0
NS7,24.0,18.0,65.0,39.0,53.0,53,1336.0,square4,j,0.5228,3,N,7.0
NS7,25.0,20.0,62.0,36.0,53.0,53,1389.0,square4,j,0.3222,3,N,7.0
NS7,26.0,24.0,56.0,39.0,52.0,52,1441.0,square4,j,0.072,3,N,7.0
NS7,27.0,31.0,58.0,36.0,51.0,58,1499.0,square2,r,0.2885,1,N,7.0
NS7,28.0,28.0,59.0,42.0,53.0,59,1558.0,square2,r,0.3223,1,N,7.0
NS7,29.0,30.0,57.0,36.0,51.0,57,1615.0,square2,r,0.0703,1,N,7.0
NS7,30.0,29.0,57.0,35.0,53.0,57,1672.0,square2,r,0.4554,1,N,7.0
NS7,31.0,27.0,59.0,37.0,48.0,59,1731.0,square2,r,0.0379,1,N,7.0
NS7,32.0,29.0,59.0,38.0,45.0,59,1790.0,square2,r,0.2116,1,N,7.0
NS7,33.0,35.0,58.0,37.0,52.0,58,1848.0,square2,r,0.1892,1,N,7.0
NS7,34.0,33.0,59.0,43.0,52.0,59,1907.0,square2,r,0.1973,1,N,7.0
NS7,35.0,37.0,61.0,43.0,49.0,49,1956.0,square4,j,0.3119,3,N,7.0
NS7,36.0,36.0,62.0,48.0,54.0,62,2018.0,square2,r,0.3737,1,N,7.0
NS7,37.0,35.0,62.0,46.0,57.0,62,2080.0,square2,r,0.1386,1,N,7.0
NS7,38.0,37.0,59.0,52.0,53.0,59,2139.0,square2,r,0.0653,1,N,7.0
NS7,39.0,32.0,57.0,50.0,59.0,57,2196.0,square2,r,0.5952,1,N,7.0
NS7,40.0,30.0,56.0,54.0,59.0,56,2252.0,square2,r,0.0901,1,N,7.0
NS7,41.0,36.0,54.0,52.0,56.0,54,2306.0,square2,r,0.2361,1,N,7.0
NS7,42.0,30.0,55.0,57.0,55.0,55,2361.0,square2,r,0.9959,1,N,7.0
NS7,43.0,35.0,52.0,54.0,58.0,52,2413.0,square2,r,0.2697,1,N,7.0
NS7,44.0,30.0,56.0,55.0,57.0,57,2470.0,square4,j,0.3045,3,N,7.0
NS7,45.0,28.0,63.0,57.0,58.0,58,2528.0,square4,j,0.1435,3,N,7.0
NS7,46.0,29.0,60.0,58.0,57.0,57,2585.0,square4,j,0.227,3,N,7.0
NS7,47.0,31.0,58.0,54.0,53.0,53,2638.0,square4,j,0.3934,3,N,7.0
NS7,48.0,27.0,58.0,59.0,48.0,48,2686.0,square4,j,0.0214,3,N,7.0
NS7,49.0,28.0,48.0,60.0,54.0,48,2734.0,square2,r,0.2595,1,N,7.0
NS7,50.0,27.0,49.0,62.0,53.0,49,2783.0,square2,r,0.2046,1,N,7.0
NS7,51.0,41.0,49.0,63.0,56.0,56,2839.0,square4,j,0.3776,3,N,7.0
NS7,52.0,36.0,43.0,66.0,56.0,56,2895.0,square4,j,0.0795,3,N,7.0
NS7,53.0,41.0,51.0,69.0,54.0,54,2949.0,square4,j,0.3962,3,N,7.0
NS7,54.0,37.0,52.0,63.0,53.0,53,3002.0,square4,j,0.245,3,N,7.0
NS7,55.0,40.0,51.0,60.0,54.0,54,3056.0,square4,j,0.2901,3,N,7.0
NS7,56.0,45.0,57.0,63.0,59.0,59,3115.0,square4,j,0.2569,3,N,7.0
NS7,57.0,42.0,49.0,64.0,53.0,53,3168.0,square4,j,0.5075,3,N,7.0
NS7,58.0,39.0,49.0,62.0,52.0,49,3217.0,square2,r,0.0391,1,N,7.0
NS7,59.0,47.0,49.0,67.0,54.0,54,3271.0,square4,j,0.3429,3,N,7.0
NS7,60.0,43.0,53.0,70.0,55.0,55,3326.0,square4,j,0.2715,3,N,7.0
NS7,61.0,41.0,48.0,69.0,52.0,69,3395.0,square3,f,0.0275,2,N,7.0
NS7,62.0,39.0,48.0,65.0,54.0,65,3460.0,square3,f,0.3066,2,N,7.0
NS7,63.0,38.0,48.0,64.0,56.0,64,3524.0,square3,f,0.3627,2,N,7.0
NS7,64.0,34.0,46.0,65.0,51.0,65,3589.0,square3,f,0.2317,2,N,7.0
NS7,65.0,43.0,51.0,63.0,53.0,63,3652.0,square3,f,0.1898,2,N,7.0
NS7,66.0,41.0,51.0,64.0,50.0,64,3716.0,square3,f,0.54,2,N,7.0
NS7,67.0,44.0,51.0,63.0,54.0,63,3779.0,square3,f,0.0593,2,N,7.0
NS7,68.0,42.0,49.0,62.0,48.0,62,3841.0,square3,f,0.4495,2,N,7.0
NS7,69.0,41.0,50.0,63.0,52.0,63,3904.0,square3,f,0.0066,2,N,7.0
NS7,70.0,45.0,45.0,59.0,53.0,59,3963.0,square3,f,0.0311,2,N,7.0
NS7,71.0,44.0,40.0,52.0,52.0,52,4015.0,square3,f,0.5608,2,N,7.0
NS7,72.0,51.0,38.0,55.0,47.0,47,4062.0,square4,j,0.2808,3,N,7.0
NS7,73.0,42.0,36.0,49.0,47.0,36,4098.0,square2,r,0.5971,1,N,7.0
NS7,74.0,44.0,40.0,46.0,48.0,44,4142.0,square1,i,0.396,0,N,7.0
NS7,75.0,46.0,38.0,45.0,53.0,45,4187.0,square3,f,0.1138,2,N,7.0
NS7,76.0,48.0,44.0,40.0,53.0,40,4227.0,square3,f,0.0709,2,N,7.0
NS7,77.0,45.0,42.0,40.0,55.0,40,4267.0,square3,f,0.1532,2,N,7.0
NS7,78.0,41.0,39.0,40.0,56.0,39,4306.0,square2,r,0.0022,1,N,7.0
NS7,79.0,44.0,38.0,41.0,55.0,44,4350.0,square1,i,0.16,0,N,7.0
NS7,80.0,48.0,49.0,48.0,62.0,62,4412.0,square4,j,0.4756,3,N,7.0
NS7,81.0,44.0,47.0,43.0,61.0,61,4473.0,square4,j,0.051,3,N,7.0
NS7,82.0,45.0,46.0,38.0,54.0,54,4527.0,square4,j,0.1946,3,N,7.0
NS7,83.0,44.0,40.0,41.0,57.0,57,4584.0,square4,j,0.1216,3,N,7.0
NS7,84.0,47.0,46.0,41.0,53.0,53,4637.0,square4,j,0.1339,3,N,7.0
NS7,85.0,50.0,45.0,45.0,54.0,54,4691.0,square4,j,0.1195,3,N,7.0
NS7,86.0,45.0,43.0,44.0,54.0,43,4734.0,square2,r,0.2134,1,N,7.0
NS7,87.0,43.0,47.0,49.0,55.0,49,4783.0,square3,f,0.1934,2,N,7.0
NS7,88.0,40.0,48.0,44.0,58.0,58,4841.0,square4,j,0.0952,3,N,7.0
NS7,89.0,40.0,44.0,47.0,54.0,54,4895.0,square4,j,0.1447,3,N,7.0
NS7,90.0,38.0,43.0,48.0,55.0,55,4950.0,square4,j,0.0388,3,N,7.0
NS7,91.0,36.0,45.0,43.0,55.0,55,5005.0,square4,j,0.2741,3,N,7.0
NS7,92.0,29.0,44.0,45.0,53.0,53,5058.0,square4,j,0.0739,3,N,7.0
NS7,93.0,33.0,46.0,44.0,57.0,33,5091.0,square1,i,0.289,0,N,7.0
NS7,94.0,32.0,43.0,52.0,47.0,47,5138.0,square4,j,0.0006,3,N,7.0
NS7,95.0,41.0,46.0,50.0,51.0,51,5189.0,square4,j,0.0578,3,N,7.0
NS7,96.0,38.0,41.0,46.0,52.0,46,5235.0,square3,f,0.289,2,N,7.0
NS7,97.0,41.0,44.0,40.0,52.0,44,5279.0,square2,r,0.3263,1,N,7.0
NS7,98.0,45.0,41.0,41.0,55.0,55,5334.0,square4,j,0.0093,3,N,7.0
NS7,99.0,39.0,41.0,39.0,53.0,53,5387.0,square4,j,0.2276,3,N,7.0
V11,0.0,42.0,67.0,57.0,49.0,57,57.0,square3,j,1.09,2,V,11.0
V11,1.0,42.0,71.0,60.0,53.0,60,117.0,square3,j,0.3127,2,V,11.0
V11,2.0,45.0,76.0,58.0,51.0,58,175.0,square3,j,0.4233,2,V,11.0
V11,3.0,44.0,65.0,60.0,49.0,65,240.0,square2,i,0.3486,1,V,11.0
V11,4.0,46.0,73.0,64.0,51.0,73,313.0,square2,i,0.4048,1,V,11.0
V11,5.0,47.0,67.0,58.0,54.0,67,380.0,square2,i,0.4087,1,V,11.0
V11,6.0,43.0,68.0,58.0,50.0,68,448.0,square2,i,0.4393,1,V,11.0
V11,7.0,42.0,67.0,60.0,58.0,67,515.0,square2,i,0.3459,1,V,11.0
V11,8.0,44.0,67.0,60.0,53.0,67,582.0,square2,i,0.3322,1,V,11.0
V11,9.0,44.0,67.0,59.0,54.0,67,649.0,square2,i,0.2365,1,V,11.0
V11,10.0,49.0,76.0,57.0,52.0,76,725.0,square2,i,0.3183,1,V,11.0
V11,11.0,45.0,71.0,58.0,51.0,71,796.0,square2,i,0.1435,1,V,11.0
V11,12.0,45.0,72.0,58.0,56.0,72,868.0,square2,i,0.3482,1,V,11.0
V11,13.0,49.0,67.0,63.0,54.0,67,935.0,square2,i,0.1272,1,V,11.0
V11,14.0,50.0,75.0,57.0,48.0,75,1010.0,square2,i,0.1993,1,V,11.0
V11,15.0,40.0,71.0,61.0,51.0,71,1081.0,square2,i,0.141,1,V,11.0
V11,16.0,47.0,72.0,56.0,54.0,72,1153.0,square2,i,0.2228,1,V,11.0
V11,17.0,40.0,71.0,61.0,46.0,71,1224.0,square2,i,0.0434,1,V,11.0
V11,18.0,44.0,69.0,59.0,51.0,69,1293.0,square2,i,0.2438,1,V,11.0
V11,19.0,44.0,73.0,59.0,47.0,73,1366.0,square2,i,0.1393,1,V,11.0
V11,20.0,47.0,69.0,64.0,54.0,69,1435.0,square2,i,0.0725,1,V,11.0
V11,21.0,78.0,49.0,70.0,65.0,49,1484.0,square2,i,0.1753,1,V,11.0
V11,22.0,78.0,56.0,73.0,62.0,78,1562.0,square1,f,0.5102,0,V,11.0
V11,23.0,84.0,54.0,71.0,65.0,84,1646.0,square1,f,0.5621,0,V,11.0
V11,24.0,80.0,55.0,72.0,67.0,80,1726.0,square1,f,0.2832,0,V,11.0
V11,25.0,80.0,55.0,75.0,63.0,80,1806.0,square1,f,0.2007,0,V,11.0
V11,26.0,80.0,56.0,67.0,62.0,80,1886.0,square1,f,0.3058,0,V,11.0
V11,27.0,80.0,51.0,68.0,62.0,80,1966.0,square1,f,0.3361,0,V,11.0
V11,28.0,79.0,57.0,67.0,57.0,79,2045.0,square1,f,0.3198,0,V,11.0
V11,29.0,79.0,50.0,67.0,62.0,79,2124.0,square1,f,0.0574,0,V,11.0
V11,30.0,88.0,54.0,74.0,61.0,88,2212.0,square1,f,0.2071,0,V,11.0
V11,31.0,81.0,51.0,75.0,63.0,81,2293.0,square1,f,0.2532,0,V,11.0
V11,32.0,76.0,51.0,69.0,65.0,76,2369.0,square1,f,0.0673,0,V,11.0
V11,33.0,78.0,54.0,72.0,64.0,78,2447.0,square1,f,0.3191,0,V,11.0
V11,34.0,77.0,53.0,71.0,62.0,77,2524.0,square1,f,0.2728,0,V,11.0
V11,35.0,74.0,59.0,75.0,62.0,74,2598.0,square1,f,0.1165,0,V,11.0
V11,36.0,79.0,50.0,72.0,62.0,79,2677.0,square1,f,0.1336,0,V,11.0
V11,37.0,74.0,54.0,68.0,62.0,74,2751.0,square1,f,0.1393,0,V,11.0
V11,38.0,80.0,57.0,65.0,58.0,80,2831.0,square1,f,0.1073,0,V,11.0
V11,39.0,73.0,52.0,75.0,66.0,73,2904.0,square1,f,0.2536,0,V,11.0
V11,40.0,82.0,57.0,71.0,57.0,82,2986.0,square1,f,0.2468,0,V,11.0
V11,41.0,78.0,53.0,73.0,64.0,78,3064.0,square1,f,0.3251,0,V,11.0
V11,42.0,72.0,56.0,67.0,59.0,72,3136.0,square1,f,0.794,0,V,11.0
V11,43.0,81.0,54.0,73.0,63.0,81,3217.0,square1,f,0.2146,0,V,11.0
V11,44.0,76.0,54.0,75.0,59.0,76,3293.0,square1,f,0.129,0,V,11.0
V11,45.0,79.0,59.0,71.0,64.0,79,3372.0,square1,f,0.1926,0,V,11.0
V11,46.0,80.0,55.0,67.0,57.0,80,3452.0,square1,f,0.08,0,V,11.0
V11,47.0,84.0,53.0,75.0,56.0,84,3536.0,square1,f,0.1725,0,V,11.0
V11,48.0,83.0,57.0,71.0,60.0,83,3619.0,square1,f,0.0422,0,V,11.0
V11,49.0,79.0,52.0,71.0,60.0,79,3698.0,square1,f,0.1779,0,V,11.0
V11,50.0,76.0,50.0,69.0,60.0,76,3774.0,square1,f,0.0008,0,V,11.0
V11,51.0,79.0,54.0,72.0,57.0,54,3828.0,square2,i,0.7064,1,V,11.0
V11,52.0,80.0,54.0,72.0,64.0,64,3892.0,square4,r,0.6135,3,V,11.0
V11,53.0,35.0,50.0,55.0,69.0,35,3927.0,square1,f,0.2474,0,V,11.0
V11,54.0,45.0,48.0,55.0,73.0,55,3982.0,square3,j,0.2199,2,V,11.0
V11,55.0,43.0,53.0,58.0,70.0,70,4052.0,square4,r,0.0004,3,V,11.0
V11,56.0,40.0,46.0,60.0,62.0,62,4114.0,square4,r,0.1136,3,V,11.0
V11,57.0,44.0,46.0,53.0,71.0,71,4185.0,square4,r,0.4221,3,V,11.0
V11,58.0,44.0,52.0,55.0,68.0,68,4253.0,square4,r,0.1366,3,V,11.0
V11,59.0,44.0,44.0,57.0,66.0,66,4319.0,square4,r,0.2049,3,V,11.0
V11,60.0,40.0,46.0,57.0,62.0,62,4381.0,square4,r,0.1583,3,V,11.0
V11,61.0,42.0,52.0,58.0,62.0,52,4433.0,square2,i,0.3009,1,V,11.0
V11,62.0,40.0,49.0,56.0,71.0,40,4473.0,square1,f,0.2265,0,V,11.0
V11,63.0,40.0,54.0,60.0,66.0,60,4533.0,square3,j,0.155,2,V,11.0
V11,64.0,41.0,43.0,51.0,66.0,66,4599.0,square4,r,0.3322,3,V,11.0
V11,65.0,39.0,48.0,59.0,66.0,66,4665.0,square4,r,0.3943,3,V,11.0
V11,66.0,40.0,48.0,59.0,69.0,69,4734.0,square4,r,0.2789,3,V,11.0
V11,67.0,46.0,45.0,58.0,69.0,69,4803.0,square4,r,0.2942,3,V,11.0
V11,68.0,41.0,50.0,56.0,69.0,69,4872.0,square4,r,0.1211,3,V,11.0
V11,69.0,48.0,49.0,57.0,71.0,71,4943.0,square4,r,0.0267,3,V,11.0
V11,70.0,41.0,47.0,58.0,65.0,65,5008.0,square4,r,0.3376,3,V,11.0
V11,71.0,37.0,46.0,58.0,60.0,60,5068.0,square4,r,0.2495,3,V,11.0
V11,72.0,41.0,47.0,54.0,65.0,65,5133.0,square4,r,0.4862,3,V,11.0
V11,73.0,42.0,47.0,60.0,67.0,67,5200.0,square4,r,0.7127,3,V,11.0
V11,74.0,43.0,49.0,57.0,64.0,64,5264.0,square4,r,0.5097,3,V,11.0
V11,75.0,38.0,46.0,57.0,66.0,66,5330.0,square4,r,0.071,3,V,11.0
V11,76.0,42.0,50.0,58.0,68.0,68,5398.0,square4,r,0.0753,3,V,11.0
V11,77.0,36.0,49.0,58.0,64.0,64,5462.0,square4,r,0.4302,3,V,11.0
V11,78.0,40.0,50.0,56.0,67.0,67,5529.0,square4,r,0.5902,3,V,11.0
V11,79.0,39.0,48.0,56.0,67.0,67,5596.0,square4,r,0.1772,3,V,11.0
V11,80.0,51.0,33.0,30.0,45.0,33,5629.0,square2,i,0.3969,1,V,11.0
V11,81.0,49.0,31.0,23.0,48.0,23,5652.0,square3,j,0.409,2,V,11.0
V11,82.0,55.0,30.0,25.0,42.0,55,5707.0,square1,f,0.556,0,V,11.0
V11,83.0,50.0,33.0,27.0,48.0,48,5755.0,square4,r,0.3753,3,V,11.0
V11,84.0,52.0,34.0,25.0,43.0,25,5780.0,square3,j,0.1258,2,V,11.0
V11,85.0,49.0,28.0,28.0,44.0,49,5829.0,square1,f,0.173,0,V,11.0
V11,86.0,57.0,29.0,27.0,48.0,29,5858.0,square2,i,0.5426,1,V,11.0
V11,87.0,49.0,29.0,21.0,38.0,49,5907.0,square1,f,0.327,0,V,11.0
V11,88.0,55.0,32.0,29.0,46.0,55,5962.0,square1,f,0.2932,0,V,11.0
V11,89.0,50.0,28.0,23.0,43.0,50,6012.0,square1,f,0.1255,0,V,11.0
V11,90.0,54.0,34.0,32.0,41.0,54,6066.0,square1,f,0.3223,0,V,11.0
V11,91.0,50.0,34.0,26.0,44.0,50,6116.0,square1,f,0.2543,0,V,11.0
V11,92.0,51.0,31.0,27.0,50.0,50,6166.0,square4,r,0.3349,3,V,11.0
V11,93.0,49.0,38.0,28.0,42.0,28,6194.0,square3,j,0.4061,2,V,11.0
V11,94.0,50.0,29.0,25.0,46.0,29,6223.0,square2,i,0.767,1,V,11.0
V11,95.0,51.0,36.0,22.0,40.0,40,6263.0,square4,r,0.2725,3,V,11.0
V11,96.0,52.0,34.0,32.0,45.0,52,6315.0,square1,f,0.4302,0,V,11.0
V11,97.0,53.0,27.0,32.0,44.0,53,6368.0,square1,f,0.4228,0,V,11.0
V11,98.0,60.0,31.0,25.0,48.0,60,6428.0,square1,f,0.2398,0,V,11.0
V11,99.0,53.0,33.0,23.0,42.0,53,6481.0,square1,f,0.5775,0,V,11.0
V1,0.0,46.0,61.0,52.0,71.0,99999,0.0,invalid,,,-1,V,1.0
V1,1.0,45.0,63.0,54.0,78.0,45,45.0,square1,i,1.1616,0,V,1.0
V1,2.0,51.0,58.0,59.0,77.0,77,122.0,square4,j,0.3455,3,V,1.0
V1,3.0,53.0,65.0,56.0,75.0,56,178.0,square3,f,0.3925,2,V,1.0
V1,4.0,49.0,68.0,53.0,72.0,72,250.0,square4,j,0.2725,3,V,1.0
V1,5.0,47.0,70.0,59.0,76.0,76,326.0,square4,j,0.07,3,V,1.0
V1,6.0,55.0,63.0,54.0,76.0,76,402.0,square4,j,0.1625,3,V,1.0
V1,7.0,47.0,67.0,55.0,74.0,74,476.0,square4,j,0.2489,3,V,1.0
V1,8.0,47.0,65.0,46.0,76.0,76,552.0,square4,j,0.2556,3,V,1.0
V1,9.0,46.0,68.0,59.0,78.0,78,630.0,square4,j,0.295,3,V,1.0
V1,10.0,58.0,67.0,58.0,79.0,79,709.0,square4,j,0.4447,3,V,1.0
V1,11.0,44.0,61.0,54.0,72.0,72,781.0,square4,j,0.0086,3,V,1.0
V1,12.0,44.0,65.0,56.0,75.0,75,856.0,square4,j,0.162,3,V,1.0
V1,13.0,47.0,63.0,53.0,73.0,73,929.0,square4,j,0.1954,3,V,1.0
V1,14.0,49.0,66.0,56.0,75.0,75,1004.0,square4,j,0.0776,3,V,1.0
V1,15.0,49.0,66.0,52.0,79.0,79,1083.0,square4,j,0.1077,3,V,1.0
V1,16.0,51.0,61.0,48.0,72.0,72,1155.0,square4,j,0.1089,3,V,1.0
V1,17.0,46.0,61.0,59.0,71.0,71,1226.0,square4,j,0.3047,3,V,1.0
V1,18.0,45.0,61.0,53.0,72.0,72,1298.0,square4,j,0.245,3,V,1.0
V1,19.0,49.0,63.0,54.0,76.0,76,1374.0,square4,j,0.1782,3,V,1.0
V1,20.0,46.0,66.0,52.0,72.0,72,1446.0,square4,j,0.2109,3,V,1.0
V1,21.0,50.0,65.0,51.0,73.0,73,1519.0,square4,j,0.0129,3,V,1.0
V1,22.0,56.0,62.0,56.0,77.0,77,1596.0,square4,j,0.0949,3,V,1.0
V1,23.0,45.0,67.0,54.0,83.0,83,1679.0,square4,j,0.2607,3,V,1.0
V1,24.0,46.0,69.0,57.0,71.0,71,1750.0,square4,j,0.0215,3,V,1.0
V1,25.0,41.0,65.0,55.0,76.0,76,1826.0,square4,j,0.1732,3,V,1.0
V1,26.0,51.0,60.0,55.0,74.0,74,1900.0,square4,j,0.048,3,V,1.0
V1,27.0,52.0,63.0,56.0,73.0,73,1973.0,square4,j,0.1478,3,V,1.0
V1,28.0,50.0,68.0,50.0,76.0,76,2049.0,square4,j,0.1727,3,V,1.0
V1,29.0,51.0,60.0,54.0,74.0,74,2123.0,square4,j,0.0006,3,V,1.0
V1,30.0,35.0,67.0,57.0,40.0,40,2163.0,square4,j,0.0898,3,V,1.0
V1,31.0,38.0,60.0,52.0,35.0,60,2223.0,square2,r,0.1399,1,V,1.0
V1,32.0,37.0,67.0,52.0,41.0,67,2290.0,square2,r,0.4227,1,V,1.0
V1,33.0,37.0,62.0,53.0,42.0,62,2352.0,square2,r,0.2823,1,V,1.0
V1,34.0,35.0,58.0,54.0,43.0,58,2410.0,square2,r,0.2734,1,V,1.0
V1,35.0,40.0,60.0,50.0,44.0,50,2460.0,square3,f,0.0576,2,V,1.0
V1,36.0,39.0,66.0,50.0,39.0,39,2499.0,square1,i,0.2596,0,V,1.0
V1,37.0,32.0,59.0,54.0,38.0,59,2558.0,square2,r,0.2201,1,V,1.0
V1,38.0,32.0,64.0,50.0,39.0,64,2622.0,square2,r,0.423,1,V,1.0
V1,39.0,37.0,60.0,45.0,40.0,60,2682.0,square2,r,0.1726,1,V,1.0
V1,40.0,35.0,61.0,54.0,43.0,61,2743.0,square2,r,0.3939,1,V,1.0
V1,41.0,33.0,62.0,49.0,42.0,62,2805.0,square2,r,0.0029,1,V,1.0
V1,42.0,31.0,70.0,52.0,42.0,70,2875.0,square2,r,0.077,1,V,1.0
V1,43.0,37.0,59.0,48.0,41.0,59,2934.0,square2,r,0.2823,1,V,1.0
V1,44.0,39.0,63.0,53.0,44.0,53,2987.0,square3,f,0.809,2,V,1.0
V1,45.0,37.0,62.0,48.0,41.0,37,3024.0,square1,i,0.2965,0,V,1.0
V1,46.0,34.0,65.0,52.0,39.0,39,3063.0,square4,j,0.4176,3,V,1.0
V1,47.0,42.0,59.0,52.0,43.0,59,3122.0,square2,r,0.296,1,V,1.0
V1,48.0,39.0,62.0,50.0,38.0,62,3184.0,square2,r,0.0464,1,V,1.0
V1,49.0,33.0,63.0,49.0,40.0,63,3247.0,square2,r,0.0432,1,V,1.0
V1,50.0,38.0,66.0,54.0,37.0,66,3313.0,square2,r,0.024,1,V,1.0
V1,51.0,33.0,66.0,50.0,37.0,66,3379.0,square2,r,0.1045,1,V,1.0
V1,52.0,41.0,65.0,55.0,44.0,65,3444.0,square2,r,0.0925,1,V,1.0
V1,53.0,75.0,50.0,46.0,60.0,50,3494.0,square2,r,0.1066,1,V,1.0
V1,54.0,74.0,53.0,45.0,61.0,61,3555.0,square4,j,0.5385,3,V,1.0
V1,55.0,74.0,54.0,43.0,65.0,65,3620.0,square4,j,0.0941,3,V,1.0
V1,56.0,73.0,54.0,44.0,56.0,56,3676.0,square4,j,0.5666,3,V,1.0
V1,57.0,67.0,58.0,52.0,63.0,63,3739.0,square4,j,0.2223,3,V,1.0
V1,58.0,72.0,51.0,43.0,62.0,62,3801.0,square4,j,0.2104,3,V,1.0
V1,59.0,68.0,47.0,49.0,56.0,56,3857.0,square4,j,0.0892,3,V,1.0
V1,60.0,72.0,55.0,46.0,65.0,65,3922.0,square4,j,0.0774,3,V,1.0
V1,61.0,76.0,50.0,46.0,62.0,62,3984.0,square4,j,0.2235,3,V,1.0
V1,62.0,77.0,58.0,46.0,66.0,66,4050.0,square4,j,1.1223,3,V,1.0
V1,63.0,72.0,53.0,48.0,66.0,66,4116.0,square4,j,0.9062,3,V,1.0
V1,64.0,70.0,49.0,49.0,60.0,60,4176.0,square4,j,0.0009,3,V,1.0
V1,65.0,68.0,49.0,46.0,66.0,66,4242.0,square4,j,0.3044,3,V,1.0
V1,66.0,77.0,52.0,41.0,64.0,64,4306.0,square4,j,0.2045,3,V,1.0
V1,67.0,74.0,56.0,42.0,69.0,69,4375.0,square4,j,1.1122,3,V,1.0
V1,68.0,77.0,50.0,46.0,68.0,68,4443.0,square4,j,0.055,3,V,1.0
V1,69.0,76.0,48.0,45.0,63.0,63,4506.0,square4,j,0.0008,3,V,1.0
V1,70.0,71.0,53.0,50.0,65.0,65,4571.0,square4,j,1.045,3,V,1.0
V1,71.0,70.0,56.0,44.0,59.0,59,4630.0,square4,j,0.7631,3,V,1.0
V1,72.0,74.0,54.0,55.0,61.0,55,4685.0,square3,f,0.3559,2,V,1.0
V1,73.0,73.0,53.0,47.0,61.0,73,4758.0,square1,i,0.2216,0,V,1.0
V1,74.0,71.0,53.0,51.0,65.0,71,4829.0,square1,i,0.539,0,V,1.0
V1,75.0,72.0,51.0,48.0,64.0,72,4901.0,square1,i,0.2095,0,V,1.0
V1,76.0,72.0,53.0,49.0,62.0,72,4973.0,square1,i,0.3702,0,V,1.0
V1,77.0,62.0,76.0,64.0,86.0,62,5035.0,square1,i,0.439,0,V,1.0
V1,78.0,61.0,74.0,63.0,87.0,61,5096.0,square1,i,0.5228,0,V,1.0
V1,79.0,56.0,78.0,67.0,89.0,56,5152.0,square1,i,0.4073,0,V,1.0
V1,80.0,59.0,75.0,63.0,84.0,84,5236.0,square4,j,0.1897,3,V,1.0
V1,81.0,63.0,74.0,68.0,82.0,82,5318.0,square4,j,0.2869,3,V,1.0
V1,82.0,59.0,75.0,67.0,80.0,80,5398.0,square4,j,0.26,3,V,1.0
V1,83.0,58.0,77.0,63.0,82.0,82,5480.0,square4,j,0.259,3,V,1.0
V1,84.0,57.0,76.0,64.0,87.0,87,5567.0,square4,j,0.1559,3,V,1.0
V1,85.0,61.0,73.0,66.0,83.0,83,5650.0,square4,j,0.2941,3,V,1.0
V1,86.0,60.0,71.0,66.0,85.0,85,5735.0,square4,j,0.2289,3,V,1.0
V1,87.0,61.0,80.0,73.0,84.0,84,5819.0,square4,j,0.2842,3,V,1.0
V1,88.0,67.0,77.0,67.0,85.0,85,5904.0,square4,j,0.0735,3,V,1.0
V1,89.0,60.0,79.0,63.0,86.0,86,5990.0,square4,j,0.1493,3,V,1.0
V1,90.0,60.0,74.0,66.0,88.0,88,6078.0,square4,j,0.1047,3,V,1.0
V1,91.0,57.0,81.0,61.0,79.0,79,6157.0,square4,j,0.1057,3,V,1.0
V1,92.0,61.0,78.0,61.0,84.0,84,6241.0,square4,j,0.4823,3,V,1.0
V1,93.0,64.0,72.0,69.0,83.0,83,6324.0,square4,j,0.2431,3,V,1.0
V1,94.0,64.0,73.0,68.0,83.0,83,6407.0,square4,j,0.272,3,V,1.0
V1,95.0,61.0,69.0,68.0,87.0,87,6494.0,square4,j,0.1282,3,V,1.0
V1,96.0,55.0,77.0,65.0,88.0,88,6582.0,square4,j,0.0545,3,V,1.0
V1,97.0,61.0,75.0,63.0,82.0,82,6664.0,square4,j,0.0941,3,V,1.0
V1,98.0,59.0,71.0,66.0,82.0,82,6746.0,square4,j,0.1102,3,V,1.0
V1,99.0,61.0,69.0,67.0,84.0,84,6830.0,square4,j,0.0467,3,V,1.0
V12,0.0,47.0,30.0,38.0,55.0,38,38.0,square3,i,0.0476,2,V,12.0
V12,1.0,46.0,33.0,39.0,57.0,33,71.0,square2,j,0.0122,1,V,12.0
V12,2.0,51.0,29.0,42.0,52.0,52,123.0,square4,f,0.4955,3,V,12.0
V12,3.0,52.0,30.0,38.0,62.0,52,175.0,square1,r,0.2915,0,V,12.0
V12,4.0,48.0,30.0,39.0,62.0,62,237.0,square4,f,0.0752,3,V,12.0
V12,5.0,55.0,34.0,43.0,61.0,61,298.0,square4,f,0.1103,3,V,12.0
V12,6.0,45.0,35.0,42.0,56.0,56,354.0,square4,f,0.1722,3,V,12.0
V12,7.0,48.0,29.0,35.0,57.0,57,411.0,square4,f,0.4942,3,V,12.0
V12,8.0,46.0,33.0,38.0,59.0,59,470.0,square4,f,0.1949,3,V,12.0
V12,9.0,44.0,31.0,42.0,56.0,56,526.0,square4,f,1.4847,3,V,12.0
V12,10.0,48.0,34.0,45.0,55.0,55,581.0,square4,f,0.6237,3,V,12.0
V12,11.0,45.0,32.0,41.0,55.0,32,613.0,square2,j,0.1227,1,V,12.0
V12,12.0,52.0,26.0,42.0,57.0,42,655.0,square3,i,0.3105,2,V,12.0
V12,13.0,56.0,31.0,41.0,54.0,56,711.0,square1,r,0.1141,0,V,12.0
V12,14.0,44.0,34.0,40.0,64.0,64,775.0,square4,f,0.2404,3,V,12.0
V12,15.0,48.0,32.0,39.0,61.0,61,836.0,square4,f,0.1966,3,V,12.0
V12,16.0,49.0,33.0,37.0,58.0,58,894.0,square4,f,0.0272,3,V,12.0
V12,17.0,45.0,33.0,43.0,57.0,57,951.0,square4,f,0.1066,3,V,12.0
V12,18.0,45.0,28.0,40.0,58.0,58,1009.0,square4,f,0.2391,3,V,12.0
V12,19.0,42.0,33.0,43.0,59.0,59,1068.0,square4,f,0.1417,3,V,12.0
V12,20.0,46.0,30.0,38.0,62.0,62,1130.0,square4,f,0.0026,3,V,12.0
V12,21.0,46.0,35.0,40.0,55.0,55,1185.0,square4,f,0.1583,3,V,12.0
V12,22.0,46.0,34.0,36.0,63.0,63,1248.0,square4,f,0.4895,3,V,12.0
V12,23.0,54.0,34.0,42.0,56.0,56,1304.0,square4,f,0.9302,3,V,12.0
V12,24.0,44.0,30.0,41.0,59.0,59,1363.0,square4,f,0.072,3,V,12.0
V12,25.0,49.0,33.0,37.0,64.0,64,1427.0,square4,f,0.2247,3,V,12.0
V12,26.0,52.0,34.0,39.0,57.0,57,1484.0,square4,f,0.8596,3,V,12.0
V12,27.0,50.0,26.0,37.0,55.0,55,1539.0,square4,f,0.6317,3,V,12.0
V12,28.0,41.0,29.0,46.0,21.0,21,1560.0,square4,f,0.2268,3,V,12.0
V12,29.0,41.0,28.0,51.0,20.0,41,1601.0,square1,r,0.4201,0,V,12.0
V12,30.0,32.0,31.0,46.0,22.0,46,1647.0,square3,i,0.0614,2,V,12.0
V12,31.0,38.0,28.0,45.0,22.0,28,1675.0,square2,j,0.1559,1,V,12.0
V12,32.0,35.0,27.0,44.0,16.0,35,1710.0,square1,r,0.3968,0,V,12.0
V12,33.0,39.0,29.0,49.0,21.0,49,1759.0,square3,i,0.1138,2,V,12.0
V12,34.0,39.0,28.0,49.0,15.0,15,1774.0,square4,f,0.3301,3,V,12.0
V12,35.0,36.0,29.0,50.0,17.0,50,1824.0,square3,i,0.2267,2,V,12.0
V12,36.0,41.0,28.0,48.0,12.0,48,1872.0,square3,i,0.1148,2,V,12.0
V12,37.0,34.0,29.0,46.0,25.0,46,1918.0,square3,i,0.0725,2,V,12.0
V12,38.0,38.0,28.0,51.0,19.0,51,1969.0,square3,i,0.0009,2,V,12.0
V12,39.0,39.0,31.0,45.0,13.0,45,2014.0,square3,i,0.4594,2,V,12.0
V12,40.0,35.0,28.0,46.0,26.0,28,2042.0,square2,j,0.4423,1,V,12.0
V12,41.0,38.0,27.0,46.0,20.0,46,2088.0,square3,i,0.0009,2,V,12.0
V12,42.0,40.0,26.0,50.0,23.0,23,2111.0,square4,f,0.1794,3,V,12.0
V12,43.0,33.0,30.0,45.0,18.0,33,2144.0,square1,r,0.0606,0,V,12.0
V12,44.0,39.0,31.0,46.0,22.0,46,2190.0,square3,i,0.2375,2,V,12.0
V12,45.0,32.0,26.0,42.0,20.0,42,2232.0,square3,i,0.3733,2,V,12.0
V12,46.0,36.0,29.0,43.0,24.0,43,2275.0,square3,i,0.0005,2,V,12.0
V12,47.0,37.0,30.0,46.0,21.0,46,2321.0,square3,i,0.0186,2,V,12.0
V12,48.0,37.0,27.0,44.0,19.0,44,2365.0,square3,i,0.2785,2,V,12.0
V12,49.0,36.0,33.0,55.0,16.0,55,2420.0,square3,i,0.0832,2,V,12.0
V12,50.0,45.0,28.0,44.0,18.0,44,2464.0,square3,i,0.2106,2,V,12.0
V12,51.0,35.0,32.0,49.0,19.0,49,2513.0,square3,i,0.422,2,V,12.0
V12,52.0,36.0,56.0,31.0,52.0,31,2544.0,square3,i,0.373,2,V,12.0
V12,53.0,36.0,57.0,29.0,45.0,29,2573.0,square3,i,0.4257,2,V,12.0
V12,54.0,38.0,61.0,28.0,51.0,61,2634.0,square2,j,0.3461,1,V,12.0
V12,55.0,35.0,60.0,29.0,47.0,60,2694.0,square2,j,0.4131,1,V,12.0
V12,56.0,34.0,62.0,29.0,46.0,62,2756.0,square2,j,0.3364,1,V,12.0
V12,57.0,43.0,57.0,32.0,46.0,57,2813.0,square2,j,0.1284,1,V,12.0
V12,58.0,40.0,59.0,32.0,50.0,59,2872.0,square2,j,0.0341,1,V,12.0
V12,59.0,41.0,62.0,33.0,48.0,62,2934.0,square2,j,0.3433,1,V,12.0
V12,60.0,36.0,61.0,32.0,49.0,61,2995.0,square2,j,0.3934,1,V,12.0
V12,61.0,39.0,56.0,32.0,44.0,56,3051.0,square2,j,0.5045,1,V,12.0
V12,62.0,39.0,57.0,30.0,46.0,57,3108.0,square2,j,0.4449,1,V,12.0
V12,63.0,42.0,53.0,29.0,46.0,53,3161.0,square2,j,0.1748,1,V,12.0
V12,64.0,35.0,57.0,32.0,50.0,57,3218.0,square2,j,0.0557,1,V,12.0
V12,65.0,44.0,58.0,32.0,49.0,58,3276.0,square2,j,0.1616,1,V,12.0
V12,66.0,44.0,56.0,29.0,52.0,56,3332.0,square2,j,0.4962,1,V,12.0
V12,67.0,41.0,60.0,30.0,49.0,60,3392.0,square2,j,0.2769,1,V,12.0
V12,68.0,42.0,58.0,32.0,45.0,58,3450.0,square2,j,0.0213,1,V,12.0
V12,69.0,36.0,60.0,33.0,50.0,60,3510.0,square2,j,0.2859,1,V,12.0
V12,70.0,36.0,57.0,27.0,46.0,57,3567.0,square2,j,0.3046,1,V,12.0
V12,71.0,41.0,59.0,32.0,48.0,59,3626.0,square2,j,0.4428,1,V,12.0
V12,72.0,34.0,59.0,31.0,49.0,59,3685.0,square2,j,0.3294,1,V,12.0
V12,73.0,71.0,53.0,65.0,49.0,53,3738.0,square2,j,0.5055,1,V,12.0
V12,74.0,69.0,49.0,63.0,45.0,49,3787.0,square2,j,0.41,1,V,12.0
V12,75.0,72.0,51.0,56.0,46.0,72,3859.0,square1,r,0.5227,0,V,12.0
V12,76.0,72.0,48.0,58.0,43.0,72,3931.0,square1,r,0.5389,0,V,12.0
V12,77.0,74.0,57.0,59.0,44.0,74,4005.0,square1,r,0.3723,0,V,12.0
V12,78.0,69.0,55.0,63.0,50.0,69,4074.0,square1,r,0.3879,0,V,12.0
V12,79.0,73.0,53.0,58.0,43.0,73,4147.0,square1,r,0.2618,0,V,12.0
V12,80.0,71.0,47.0,65.0,40.0,71,4218.0,square1,r,0.4024,0,V,12.0
V12,81.0,66.0,49.0,57.0,40.0,66,4284.0,square1,r,0.3218,0,V,12.0
V12,82.0,71.0,53.0,57.0,48.0,71,4355.0,square1,r,0.093,0,V,12.0
V12,83.0,70.0,50.0,56.0,49.0,70,4425.0,square1,r,0.4399,0,V,12.0
V12,84.0,69.0,45.0,64.0,43.0,69,4494.0,square1,r,0.3611,0,V,12.0
V12,85.0,64.0,48.0,54.0,42.0,64,4558.0,square1,r,0.6399,0,V,12.0
V12,86.0,71.0,49.0,63.0,44.0,71,4629.0,square1,r,0.1093,0,V,12.0
V12,87.0,72.0,52.0,55.0,42.0,72,4701.0,square1,r,0.3519,0,V,12.0
V12,88.0,64.0,48.0,59.0,44.0,64,4765.0,square1,r,0.2046,0,V,12.0
V12,89.0,69.0,48.0,62.0,45.0,69,4834.0,square1,r,0.3698,0,V,12.0
V12,90.0,68.0,56.0,60.0,42.0,68,4902.0,square1,r,0.39,0,V,12.0
V12,91.0,69.0,52.0,62.0,45.0,69,4971.0,square1,r,0.4586,0,V,12.0
V12,92.0,65.0,50.0,64.0,47.0,65,5036.0,square1,r,0.5423,0,V,12.0
V12,93.0,68.0,51.0,62.0,43.0,68,5104.0,square1,r,0.1395,0,V,12.0
V12,94.0,68.0,52.0,60.0,38.0,68,5172.0,square1,r,0.272,0,V,12.0
V12,95.0,71.0,52.0,58.0,47.0,71,5243.0,square1,r,0.0009,0,V,12.0
V12,96.0,66.0,49.0,59.0,44.0,66,5309.0,square1,r,0.1211,0,V,12.0
V12,97.0,74.0,47.0,54.0,47.0,74,5383.0,square1,r,0.2591,0,V,12.0
V12,98.0,68.0,43.0,64.0,41.0,68,5451.0,square1,r,0.1275,0,V,12.0
V12,99.0,71.0,53.0,62.0,44.0,71,5522.0,square1,r,0.5663,0,V,12.0
