block,Trial,square1,square2,square3,square4,currPoints,totalPoints,square,choiceKey.keys,choiceKey.rt,armNum,blockType,blockNum
prac,0.0,100.0,0.0,0.0,0.0,99999,0.0,invalid,,,-1,p,0.0
prac,1.0,100.0,0.0,0.0,0.0,0,0.0,square2,,,1,p,0.0
prac,2.0,100.0,0.0,0.0,0.0,100,100.0,square1,,,0,p,0.0
prac,3.0,100.0,0.0,0.0,0.0,0,100.0,square4,,,3,p,0.0
prac,4.0,100.0,0.0,0.0,0.0,0,100.0,square3,,,2,p,0.0
prac,5.0,100.0,0.0,0.0,0.0,100,200.0,square1,,,0,p,0.0
prac,6.0,100.0,0.0,0.0,0.0,100,300.0,square1,,,0,p,0.0
prac,7.0,100.0,0.0,0.0,0.0,100,400.0,square1,,,0,p,0.0
prac,8.0,100.0,0.0,0.0,0.0,100,500.0,square1,,,0,p,0.0
prac,9.0,100.0,0.0,0.0,0.0,100,600.0,square1,,,0,p,0.0
V1,0.0,46.0,61.0,52.0,71.0,71,71.0,square4,r,0.8795,3,V,1.0
V1,1.0,45.0,63.0,54.0,78.0,78,149.0,square4,r,0.3987,3,V,1.0
V1,2.0,51.0,58.0,59.0,77.0,77,226.0,square4,r,0.4921,3,V,1.0
V1,3.0,53.0,65.0,56.0,75.0,75,301.0,square4,r,0.384,3,V,1.0
V1,4.0,49.0,68.0,53.0,72.0,53,354.0,square3,i,0.48,2,V,1.0
V1,5.0,47.0,70.0,59.0,76.0,76,430.0,square4,r,0.2691,3,V,1.0
V1,6.0,55.0,63.0,54.0,76.0,55,485.0,square1,f,0.8042,0,V,1.0
V1,7.0,47.0,67.0,55.0,74.0,67,552.0,square2,j,0.2243,1,V,1.0
V1,8.0,47.0,65.0,46.0,76.0,76,628.0,square4,r,0.0505,3,V,1.0
V1,9.0,46.0,68.0,59.0,78.0,78,706.0,square4,r,0.5776,3,V,1.0
V1,10.0,58.0,67.0,58.0,79.0,79,785.0,square4,r,0.8095,3,V,1.0
V1,11.0,44.0,61.0,54.0,72.0,72,857.0,square4,r,0.4285,3,V,1.0
V1,12.0,44.0,65.0,56.0,75.0,75,932.0,square4,r,0.3022,3,V,1.0
V1,13.0,47.0,63.0,53.0,73.0,53,985.0,square3,i,0.1839,2,V,1.0
V1,14.0,49.0,66.0,56.0,75.0,66,1051.0,square2,j,0.2182,1,V,1.0
V1,15.0,49.0,66.0,52.0,79.0,49,1100.0,square1,f,0.2832,0,V,1.0
V1,16.0,51.0,61.0,48.0,72.0,51,1151.0,square1,f,0.1163,0,V,1.0
V1,17.0,46.0,61.0,59.0,71.0,71,1222.0,square4,r,0.1208,3,V,1.0
V1,18.0,45.0,61.0,53.0,72.0,72,1294.0,square4,r,0.0714,3,V,1.0
V1,19.0,49.0,63.0,54.0,76.0,76,1370.0,square4,r,0.2548,3,V,1.0
V1,20.0,46.0,66.0,52.0,72.0,72,1442.0,square4,r,0.2437,3,V,1.0
V1,21.0,50.0,65.0,51.0,73.0,73,1515.0,square4,r,0.1835,3,V,1.0
V1,22.0,56.0,62.0,56.0,77.0,77,1592.0,square4,r,0.263,3,V,1.0
V1,23.0,45.0,67.0,54.0,83.0,83,1675.0,square4,r,0.2607,3,V,1.0
V1,24.0,46.0,69.0,57.0,71.0,71,1746.0,square4,r,0.0765,3,V,1.0
V1,25.0,41.0,65.0,55.0,76.0,76,1822.0,square4,r,0.0507,3,V,1.0
V1,26.0,51.0,60.0,55.0,74.0,74,1896.0,square4,r,0.1845,3,V,1.0
V1,27.0,52.0,63.0,56.0,73.0,73,1969.0,square4,r,0.0046,3,V,1.0
V1,28.0,50.0,68.0,50.0,76.0,76,2045.0,square4,r,0.0692,3,V,1.0
V1,29.0,51.0,60.0,54.0,74.0,60,2105.0,square2,j,0.0211,1,V,1.0
V1,30.0,35.0,67.0,57.0,40.0,57,2162.0,square3,i,1.3872,2,V,1.0
V1,31.0,38.0,60.0,52.0,35.0,35,2197.0,square4,r,0.0243,3,V,1.0
V1,32.0,37.0,67.0,52.0,41.0,37,2234.0,square1,f,0.251,0,V,1.0
V1,33.0,37.0,62.0,53.0,42.0,62,2296.0,square2,j,0.2946,1,V,1.0
V1,34.0,35.0,58.0,54.0,43.0,58,2354.0,square2,j,0.1996,1,V,1.0
V1,35.0,40.0,60.0,50.0,44.0,50,2404.0,square3,i,0.1003,2,V,1.0
V1,36.0,39.0,66.0,50.0,39.0,66,2470.0,square2,j,0.2589,1,V,1.0
V1,37.0,32.0,59.0,54.0,38.0,59,2529.0,square2,j,0.0952,1,V,1.0
V1,38.0,32.0,64.0,50.0,39.0,64,2593.0,square2,j,0.076,1,V,1.0
V1,39.0,37.0,60.0,45.0,40.0,60,2653.0,square2,j,0.1456,1,V,1.0
V1,40.0,35.0,61.0,54.0,43.0,61,2714.0,square2,j,0.1893,1,V,1.0
V1,41.0,33.0,62.0,49.0,42.0,62,2776.0,square2,j,0.0006,1,V,1.0
V1,42.0,31.0,70.0,52.0,42.0,70,2846.0,square2,j,0.0008,1,V,1.0
V1,43.0,37.0,59.0,48.0,41.0,59,2905.0,square2,j,0.0034,1,V,1.0
V1,44.0,39.0,63.0,53.0,44.0,63,2968.0,square2,j,0.0757,1,V,1.0
V1,45.0,37.0,62.0,48.0,41.0,62,3030.0,square2,j,0.0089,1,V,1.0
V1,46.0,34.0,65.0,52.0,39.0,52,3082.0,square3,i,0.0689,2,V,1.0
V1,47.0,42.0,59.0,52.0,43.0,42,3124.0,square1,f,0.0856,0,V,1.0
V1,48.0,39.0,62.0,50.0,38.0,62,3186.0,square2,j,0.0861,1,V,1.0
V1,49.0,33.0,63.0,49.0,40.0,63,3249.0,square2,j,0.1537,1,V,1.0
V1,50.0,38.0,66.0,54.0,37.0,37,3286.0,square4,r,0.3953,3,V,1.0
V1,51.0,33.0,66.0,50.0,37.0,66,3352.0,square2,j,0.0087,1,V,1.0
V1,52.0,41.0,65.0,55.0,44.0,65,3417.0,square2,j,0.0537,1,V,1.0
V1,53.0,75.0,50.0,46.0,60.0,50,3467.0,square2,j,0.1102,1,V,1.0
V1,54.0,74.0,53.0,45.0,61.0,53,3520.0,square2,j,0.0584,1,V,1.0
V1,55.0,74.0,54.0,43.0,65.0,43,3563.0,square3,i,0.0361,2,V,1.0
V1,56.0,73.0,54.0,44.0,56.0,73,3636.0,square1,f,0.3882,0,V,1.0
V1,57.0,67.0,58.0,52.0,63.0,63,3699.0,square4,r,0.3864,3,V,1.0
V1,58.0,72.0,51.0,43.0,62.0,72,3771.0,square1,f,0.1026,0,V,1.0
V1,59.0,68.0,47.0,49.0,56.0,68,3839.0,square1,f,0.0177,0,V,1.0
V1,60.0,72.0,55.0,46.0,65.0,72,3911.0,square1,f,0.1192,0,V,1.0
V1,61.0,76.0,50.0,46.0,62.0,76,3987.0,square1,f,0.1168,0,V,1.0
V1,62.0,77.0,58.0,46.0,66.0,77,4064.0,square1,f,0.1255,0,V,1.0
V1,63.0,72.0,53.0,48.0,66.0,72,4136.0,square1,f,0.1106,0,V,1.0
V1,64.0,70.0,49.0,49.0,60.0,70,4206.0,square1,f,0.1036,0,V,1.0
V1,65.0,68.0,49.0,46.0,66.0,68,4274.0,square1,f,0.1081,0,V,1.0
V1,66.0,77.0,52.0,41.0,64.0,77,4351.0,square1,f,0.1524,0,V,1.0
V1,67.0,74.0,56.0,42.0,69.0,74,4425.0,square1,f,0.1329,0,V,1.0
V1,68.0,77.0,50.0,46.0,68.0,77,4502.0,square1,f,0.1207,0,V,1.0
V1,69.0,76.0,48.0,45.0,63.0,76,4578.0,square1,f,0.1085,0,V,1.0
V1,70.0,71.0,53.0,50.0,65.0,71,4649.0,square1,f,0.1236,0,V,1.0
V1,71.0,70.0,56.0,44.0,59.0,70,4719.0,square1,f,0.1405,0,V,1.0
V1,72.0,74.0,54.0,55.0,61.0,74,4793.0,square1,f,0.1765,0,V,1.0
V1,73.0,73.0,53.0,47.0,61.0,73,4866.0,square1,f,0.0009,0,V,1.0
V1,74.0,71.0,53.0,51.0,65.0,71,4937.0,square1,f,0.1918,0,V,1.0
V1,75.0,72.0,51.0,48.0,64.0,72,5009.0,square1,f,0.1441,0,V,1.0
V1,76.0,72.0,53.0,49.0,62.0,72,5081.0,square1,f,0.1848,0,V,1.0
V1,77.0,62.0,76.0,64.0,86.0,62,5143.0,square1,f,0.1668,0,V,1.0
V1,78.0,61.0,74.0,63.0,87.0,61,5204.0,square1,f,0.4497,0,V,1.0
V1,79.0,56.0,78.0,67.0,89.0,56,5260.0,square1,f,0.3706,0,V,1.0
V1,80.0,59.0,75.0,63.0,84.0,75,5335.0,square2,j,0.1579,1,V,1.0
V1,81.0,63.0,74.0,68.0,82.0,74,5409.0,square2,j,0.0423,1,V,1.0
V1,82.0,59.0,75.0,67.0,80.0,75,5484.0,square2,j,0.0272,1,V,1.0
V1,83.0,58.0,77.0,63.0,82.0,77,5561.0,square2,j,0.0596,1,V,1.0
V1,84.0,57.0,76.0,64.0,87.0,76,5637.0,square2,j,0.1043,1,V,1.0
V1,85.0,61.0,73.0,66.0,83.0,73,5710.0,square2,j,0.0829,1,V,1.0
V1,86.0,60.0,71.0,66.0,85.0,71,5781.0,square2,j,0.0465,1,V,1.0
V1,87.0,61.0,80.0,73.0,84.0,80,5861.0,square2,j,0.0598,1,V,1.0
V1,88.0,67.0,77.0,67.0,85.0,77,5938.0,square2,j,0.0863,1,V,1.0
V1,89.0,60.0,79.0,63.0,86.0,79,6017.0,square2,j,0.1653,1,V,1.0
V1,90.0,60.0,74.0,66.0,88.0,74,6091.0,square2,j,0.0938,1,V,1.0
V1,91.0,57.0,81.0,61.0,79.0,81,6172.0,square2,j,0.1422,1,V,1.0
V1,92.0,61.0,78.0,61.0,84.0,78,6250.0,square2,j,0.0691,1,V,1.0
V1,93.0,64.0,72.0,69.0,83.0,72,6322.0,square2,j,0.1272,1,V,1.0
V1,94.0,64.0,73.0,68.0,83.0,73,6395.0,square2,j,0.134,1,V,1.0
V1,95.0,61.0,69.0,68.0,87.0,69,6464.0,square2,j,0.0918,1,V,1.0
V1,96.0,55.0,77.0,65.0,88.0,77,6541.0,square2,j,0.0772,1,V,1.0
V1,97.0,61.0,75.0,63.0,82.0,75,6616.0,square2,j,0.0438,1,V,1.0
V1,98.0,59.0,71.0,66.0,82.0,71,6687.0,square2,j,0.1378,1,V,1.0
V1,99.0,61.0,69.0,67.0,84.0,84,6771.0,square4,r,0.0359,3,V,1.0
V5,0.0,46.0,21.0,37.0,28.0,21,21.0,square2,r,0.9116,1,V,5.0
V5,1.0,43.0,27.0,36.0,31.0,36,57.0,square3,j,0.6999,2,V,5.0
V5,2.0,50.0,18.0,43.0,32.0,50,107.0,square1,i,0.2914,0,V,5.0
V5,3.0,53.0,23.0,36.0,34.0,34,141.0,square4,f,0.2757,3,V,5.0
V5,4.0,52.0,19.0,38.0,34.0,52,193.0,square1,i,0.2713,0,V,5.0
V5,5.0,50.0,22.0,41.0,29.0,50,243.0,square1,i,0.3192,0,V,5.0
V5,6.0,52.0,19.0,40.0,33.0,52,295.0,square1,i,0.3754,0,V,5.0
V5,7.0,48.0,24.0,36.0,27.0,24,319.0,square2,r,0.3783,1,V,5.0
V5,8.0,50.0,24.0,35.0,33.0,33,352.0,square4,f,0.1768,3,V,5.0
V5,9.0,48.0,25.0,39.0,34.0,39,391.0,square3,j,0.8347,2,V,5.0
V5,10.0,52.0,19.0,32.0,34.0,52,443.0,square1,i,0.1295,0,V,5.0
V5,11.0,48.0,22.0,32.0,32.0,48,491.0,square1,i,0.1186,0,V,5.0
V5,12.0,47.0,17.0,43.0,29.0,47,538.0,square1,i,0.2169,0,V,5.0
V5,13.0,46.0,21.0,42.0,29.0,46,584.0,square1,i,0.4421,0,V,5.0
V5,14.0,47.0,28.0,42.0,28.0,47,631.0,square1,i,0.0839,0,V,5.0
V5,15.0,50.0,29.0,38.0,36.0,50,681.0,square1,i,0.144,0,V,5.0
V5,16.0,49.0,24.0,36.0,34.0,49,730.0,square1,i,0.0873,0,V,5.0
V5,17.0,50.0,20.0,38.0,35.0,50,780.0,square1,i,0.1823,0,V,5.0
V5,18.0,49.0,22.0,46.0,29.0,49,829.0,square1,i,0.193,0,V,5.0
V5,19.0,46.0,23.0,40.0,31.0,46,875.0,square1,i,0.0268,0,V,5.0
V5,20.0,51.0,22.0,41.0,28.0,51,926.0,square1,i,0.0083,0,V,5.0
V5,21.0,51.0,26.0,36.0,31.0,26,952.0,square2,r,0.3826,1,V,5.0
V5,22.0,47.0,18.0,41.0,28.0,28,980.0,square4,f,0.178,3,V,5.0
V5,23.0,52.0,20.0,36.0,29.0,36,1016.0,square3,j,0.0045,2,V,5.0
V5,24.0,51.0,21.0,41.0,34.0,51,1067.0,square1,i,0.0853,0,V,5.0
V5,25.0,50.0,20.0,41.0,27.0,50,1117.0,square1,i,0.4829,0,V,5.0
V5,26.0,49.0,29.0,37.0,28.0,49,1166.0,square1,i,0.3,0,V,5.0
V5,27.0,10.0,13.0,42.0,32.0,10,1176.0,square1,i,0.3004,0,V,5.0
V5,28.0,9.0,19.0,40.0,27.0,19,1195.0,square2,r,0.5363,1,V,5.0
V5,29.0,17.0,17.0,38.0,29.0,29,1224.0,square4,f,0.1093,3,V,5.0
V5,30.0,8.0,18.0,36.0,29.0,36,1260.0,square3,j,0.0777,2,V,5.0
V5,31.0,16.0,24.0,34.0,29.0,34,1294.0,square3,j,0.4189,2,V,5.0
V5,32.0,9.0,17.0,35.0,31.0,35,1329.0,square3,j,0.3333,2,V,5.0
V5,33.0,11.0,19.0,36.0,28.0,36,1365.0,square3,j,0.3872,2,V,5.0
V5,34.0,10.0,19.0,38.0,28.0,38,1403.0,square3,j,0.3688,2,V,5.0
V5,35.0,5.0,23.0,40.0,34.0,40,1443.0,square3,j,0.5189,2,V,5.0
V5,36.0,17.0,20.0,36.0,31.0,36,1479.0,square3,j,0.3428,2,V,5.0
V5,37.0,12.0,13.0,36.0,30.0,36,1515.0,square3,j,0.3956,2,V,5.0
V5,38.0,14.0,24.0,35.0,27.0,24,1539.0,square2,r,0.6376,1,V,5.0
V5,39.0,13.0,20.0,39.0,32.0,32,1571.0,square4,f,0.3249,3,V,5.0
V5,40.0,9.0,15.0,37.0,24.0,9,1580.0,square1,i,0.4842,0,V,5.0
V5,41.0,9.0,14.0,38.0,31.0,38,1618.0,square3,j,0.2918,2,V,5.0
V5,42.0,14.0,17.0,43.0,31.0,43,1661.0,square3,j,0.3762,2,V,5.0
V5,43.0,10.0,18.0,39.0,23.0,39,1700.0,square3,j,0.4775,2,V,5.0
V5,44.0,10.0,20.0,33.0,32.0,33,1733.0,square3,j,0.3594,2,V,5.0
V5,45.0,16.0,17.0,37.0,29.0,37,1770.0,square3,j,0.4914,2,V,5.0
V5,46.0,9.0,22.0,37.0,25.0,25,1795.0,square4,f,0.251,3,V,5.0
V5,47.0,10.0,22.0,35.0,26.0,26,1821.0,square4,f,0.3513,3,V,5.0
V5,48.0,11.0,16.0,39.0,23.0,39,1860.0,square3,j,0.0668,2,V,5.0
V5,49.0,13.0,16.0,33.0,27.0,33,1893.0,square3,j,0.2836,2,V,5.0
V5,50.0,12.0,16.0,39.0,24.0,39,1932.0,square3,j,0.1689,2,V,5.0
V5,51.0,10.0,21.0,43.0,28.0,43,1975.0,square3,j,0.3172,2,V,5.0
V5,52.0,8.0,15.0,36.0,28.0,36,2011.0,square3,j,0.2995,2,V,5.0
V5,53.0,38.0,20.0,31.0,54.0,31,2042.0,square3,j,0.0773,2,V,5.0
V5,54.0,39.0,20.0,35.0,51.0,20,2062.0,square2,r,0.5432,1,V,5.0
V5,55.0,41.0,21.0,27.0,50.0,41,2103.0,square1,i,0.2539,0,V,5.0
V5,56.0,39.0,23.0,28.0,49.0,39,2142.0,square1,i,0.4095,0,V,5.0
V5,57.0,36.0,28.0,29.0,59.0,36,2178.0,square1,i,0.3278,0,V,5.0
V5,58.0,38.0,22.0,28.0,49.0,28,2206.0,square3,j,0.242,2,V,5.0
V5,59.0,44.0,23.0,30.0,51.0,44,2250.0,square1,i,0.5197,0,V,5.0
V5,60.0,43.0,21.0,31.0,48.0,43,2293.0,square1,i,0.3294,0,V,5.0
V5,61.0,39.0,24.0,35.0,50.0,39,2332.0,square1,i,0.319,0,V,5.0
V5,62.0,38.0,25.0,31.0,52.0,38,2370.0,square1,i,0.2271,0,V,5.0
V5,63.0,41.0,14.0,31.0,52.0,41,2411.0,square1,i,0.3587,0,V,5.0
V5,64.0,43.0,23.0,30.0,51.0,51,2462.0,square4,f,0.0384,3,V,5.0
V5,65.0,41.0,23.0,35.0,52.0,52,2514.0,square4,f,0.3334,3,V,5.0
V5,66.0,41.0,17.0,33.0,47.0,47,2561.0,square4,f,0.1842,3,V,5.0
V5,67.0,44.0,23.0,32.0,49.0,49,2610.0,square4,f,0.4176,3,V,5.0
V5,68.0,44.0,24.0,31.0,44.0,44,2654.0,square4,f,0.2051,3,V,5.0
V5,69.0,43.0,28.0,27.0,48.0,48,2702.0,square4,f,0.3354,3,V,5.0
V5,70.0,38.0,22.0,26.0,50.0,50,2752.0,square4,f,0.2037,3,V,5.0
V5,71.0,41.0,29.0,26.0,53.0,53,2805.0,square4,f,0.269,3,V,5.0
V5,72.0,40.0,20.0,28.0,51.0,51,2856.0,square4,f,0.2716,3,V,5.0
V5,73.0,59.0,44.0,51.0,35.0,35,2891.0,square4,f,0.2157,3,V,5.0
V5,74.0,60.0,38.0,55.0,43.0,38,2929.0,square2,r,1.1006,1,V,5.0
V5,75.0,63.0,45.0,50.0,37.0,37,2966.0,square4,f,0.2264,3,V,5.0
V5,76.0,62.0,42.0,50.0,37.0,62,3028.0,square1,i,0.1588,0,V,5.0
V5,77.0,57.0,37.0,52.0,35.0,57,3085.0,square1,i,0.3007,0,V,5.0
V5,78.0,66.0,45.0,54.0,37.0,66,3151.0,square1,i,0.2769,0,V,5.0
V5,79.0,64.0,37.0,48.0,35.0,64,3215.0,square1,i,0.6129,0,V,5.0
V5,80.0,63.0,40.0,56.0,38.0,63,3278.0,square1,i,0.2925,0,V,5.0
V5,81.0,62.0,41.0,54.0,32.0,62,3340.0,square1,i,0.3685,0,V,5.0
V5,82.0,58.0,41.0,59.0,39.0,58,3398.0,square1,i,0.209,0,V,5.0
V5,83.0,66.0,46.0,54.0,35.0,66,3464.0,square1,i,0.4683,0,V,5.0
V5,84.0,67.0,44.0,52.0,33.0,67,3531.0,square1,i,0.3271,0,V,5.0
V5,85.0,67.0,45.0,46.0,36.0,67,3598.0,square1,i,0.3293,0,V,5.0
V5,86.0,65.0,44.0,51.0,38.0,65,3663.0,square1,i,0.3199,0,V,5.0
V5,87.0,64.0,49.0,48.0,35.0,48,3711.0,square3,j,0.2762,2,V,5.0
V5,88.0,68.0,47.0,56.0,36.0,68,3779.0,square1,i,0.2672,0,V,5.0
V5,89.0,60.0,42.0,57.0,32.0,42,3821.0,square2,r,0.3159,1,V,5.0
V5,90.0,59.0,43.0,53.0,34.0,59,3880.0,square1,i,0.181,0,V,5.0
V5,91.0,64.0,43.0,51.0,34.0,34,3914.0,square4,f,0.1541,3,V,5.0
V5,92.0,65.0,41.0,57.0,38.0,65,3979.0,square1,i,0.2929,0,V,5.0
V5,93.0,59.0,48.0,54.0,40.0,59,4038.0,square1,i,0.3193,0,V,5.0
V5,94.0,66.0,44.0,53.0,43.0,66,4104.0,square1,i,0.3111,0,V,5.0
V5,95.0,63.0,43.0,50.0,40.0,63,4167.0,square1,i,0.3695,0,V,5.0
V5,96.0,62.0,44.0,50.0,33.0,62,4229.0,square1,i,0.2694,0,V,5.0
V5,97.0,64.0,49.0,55.0,37.0,64,4293.0,square1,i,0.2445,0,V,5.0
V5,98.0,65.0,44.0,53.0,36.0,65,4358.0,square1,i,0.2268,0,V,5.0
V5,99.0,65.0,42.0,55.0,35.0,65,4423.0,square1,i,0.0537,0,V,5.0
V11,0.0,42.0,67.0,57.0,49.0,57,57.0,square3,r,1.4489,2,V,11.0
V11,1.0,42.0,71.0,60.0,53.0,60,117.0,square3,r,0.309,2,V,11.0
V11,2.0,45.0,76.0,58.0,51.0,76,193.0,square2,i,0.0175,1,V,11.0
V11,3.0,44.0,65.0,60.0,49.0,49,242.0,square4,j,0.2935,3,V,11.0
V11,4.0,46.0,73.0,64.0,51.0,46,288.0,square1,f,0.8257,0,V,11.0
V11,5.0,47.0,67.0,58.0,54.0,67,355.0,square2,i,0.0619,1,V,11.0
V11,6.0,43.0,68.0,58.0,50.0,68,423.0,square2,i,0.0006,1,V,11.0
V11,7.0,42.0,67.0,60.0,58.0,60,483.0,square3,r,0.1509,2,V,11.0
V11,8.0,44.0,67.0,60.0,53.0,67,550.0,square2,i,0.0589,1,V,11.0
V11,9.0,44.0,67.0,59.0,54.0,54,604.0,square4,j,0.0839,3,V,11.0
V11,10.0,49.0,76.0,57.0,52.0,76,680.0,square2,i,0.1584,1,V,11.0
V11,11.0,45.0,71.0,58.0,51.0,71,751.0,square2,i,0.1435,1,V,11.0
V11,12.0,45.0,72.0,58.0,56.0,72,823.0,square2,i,0.2188,1,V,11.0
V11,13.0,49.0,67.0,63.0,54.0,67,890.0,square2,i,0.1417,1,V,11.0
V11,14.0,50.0,75.0,57.0,48.0,75,965.0,square2,i,0.1472,1,V,11.0
V11,15.0,40.0,71.0,61.0,51.0,71,1036.0,square2,i,0.1382,1,V,11.0
V11,16.0,47.0,72.0,56.0,54.0,72,1108.0,square2,i,0.3029,1,V,11.0
V11,17.0,40.0,71.0,61.0,46.0,71,1179.0,square2,i,0.1023,1,V,11.0
V11,18.0,44.0,69.0,59.0,51.0,69,1248.0,square2,i,0.1182,1,V,11.0
V11,19.0,44.0,73.0,59.0,47.0,73,1321.0,square2,i,0.1764,1,V,11.0
V11,20.0,47.0,69.0,64.0,54.0,69,1390.0,square2,i,0.0007,1,V,11.0
V11,21.0,78.0,49.0,70.0,65.0,49,1439.0,square2,i,0.0007,1,V,11.0
V11,22.0,78.0,56.0,73.0,62.0,56,1495.0,square2,i,0.017,1,V,11.0
V11,23.0,84.0,54.0,71.0,65.0,71,1566.0,square3,r,0.0924,2,V,11.0
V11,24.0,80.0,55.0,72.0,67.0,72,1638.0,square3,r,0.1586,2,V,11.0
V11,25.0,80.0,55.0,75.0,63.0,80,1718.0,square1,f,0.362,0,V,11.0
V11,26.0,80.0,56.0,67.0,62.0,62,1780.0,square4,j,0.3106,3,V,11.0
V11,27.0,80.0,51.0,68.0,62.0,80,1860.0,square1,f,0.1257,0,V,11.0
V11,28.0,79.0,57.0,67.0,57.0,79,1939.0,square1,f,0.1017,0,V,11.0
V11,29.0,79.0,50.0,67.0,62.0,79,2018.0,square1,f,0.0082,0,V,11.0
V11,30.0,88.0,54.0,74.0,61.0,88,2106.0,square1,f,0.0776,0,V,11.0
V11,31.0,81.0,51.0,75.0,63.0,81,2187.0,square1,f,0.1689,0,V,11.0
V11,32.0,76.0,51.0,69.0,65.0,76,2263.0,square1,f,0.1528,0,V,11.0
V11,33.0,78.0,54.0,72.0,64.0,78,2341.0,square1,f,0.0165,0,V,11.0
V11,34.0,77.0,53.0,71.0,62.0,77,2418.0,square1,f,0.1505,0,V,11.0
V11,35.0,74.0,59.0,75.0,62.0,74,2492.0,square1,f,0.12,0,V,11.0
V11,36.0,79.0,50.0,72.0,62.0,79,2571.0,square1,f,0.2252,0,V,11.0
V11,37.0,74.0,54.0,68.0,62.0,74,2645.0,square1,f,0.3335,0,V,11.0
V11,38.0,80.0,57.0,65.0,58.0,80,2725.0,square1,f,0.3333,0,V,11.0
V11,39.0,73.0,52.0,75.0,66.0,73,2798.0,square1,f,0.3923,0,V,11.0
V11,40.0,82.0,57.0,71.0,57.0,57,2855.0,square4,j,0.3166,3,V,11.0
V11,41.0,78.0,53.0,73.0,64.0,53,2908.0,square2,i,0.2008,1,V,11.0
V11,42.0,72.0,56.0,67.0,59.0,67,2975.0,square3,r,0.0006,2,V,11.0
V11,43.0,81.0,54.0,73.0,63.0,81,3056.0,square1,f,0.4843,0,V,11.0
V11,44.0,76.0,54.0,75.0,59.0,76,3132.0,square1,f,0.2619,0,V,11.0
V11,45.0,79.0,59.0,71.0,64.0,79,3211.0,square1,f,0.2499,0,V,11.0
V11,46.0,80.0,55.0,67.0,57.0,80,3291.0,square1,f,0.2217,0,V,11.0
V11,47.0,84.0,53.0,75.0,56.0,84,3375.0,square1,f,0.2356,0,V,11.0
V11,48.0,83.0,57.0,71.0,60.0,83,3458.0,square1,f,0.1005,0,V,11.0
V11,49.0,79.0,52.0,71.0,60.0,79,3537.0,square1,f,0.1034,0,V,11.0
V11,50.0,76.0,50.0,69.0,60.0,76,3613.0,square1,f,0.1502,0,V,11.0
V11,51.0,79.0,54.0,72.0,57.0,79,3692.0,square1,f,0.0756,0,V,11.0
V11,52.0,80.0,54.0,72.0,64.0,80,3772.0,square1,f,0.0679,0,V,11.0
V11,53.0,35.0,50.0,55.0,69.0,35,3807.0,square1,f,0.0685,0,V,11.0
V11,54.0,45.0,48.0,55.0,73.0,73,3880.0,square4,j,0.2924,3,V,11.0
V11,55.0,43.0,53.0,58.0,70.0,53,3933.0,square2,i,0.1519,1,V,11.0
V11,56.0,40.0,46.0,60.0,62.0,60,3993.0,square3,r,0.0717,2,V,11.0
V11,57.0,44.0,46.0,53.0,71.0,71,4064.0,square4,j,0.2096,3,V,11.0
V11,58.0,44.0,52.0,55.0,68.0,68,4132.0,square4,j,0.2162,3,V,11.0
V11,59.0,44.0,44.0,57.0,66.0,66,4198.0,square4,j,0.2944,3,V,11.0
V11,60.0,40.0,46.0,57.0,62.0,62,4260.0,square4,j,0.0587,3,V,11.0
V11,61.0,42.0,52.0,58.0,62.0,42,4302.0,square1,f,0.3359,0,V,11.0
V11,62.0,40.0,49.0,56.0,71.0,71,4373.0,square4,j,0.2921,3,V,11.0
V11,63.0,40.0,54.0,60.0,66.0,66,4439.0,square4,j,0.359,3,V,11.0
V11,64.0,41.0,43.0,51.0,66.0,66,4505.0,square4,j,0.2258,3,V,11.0
V11,65.0,39.0,48.0,59.0,66.0,66,4571.0,square4,j,0.0659,3,V,11.0
V11,66.0,40.0,48.0,59.0,69.0,69,4640.0,square4,j,0.1199,3,V,11.0
V11,67.0,46.0,45.0,58.0,69.0,69,4709.0,square4,j,0.1545,3,V,11.0
V11,68.0,41.0,50.0,56.0,69.0,69,4778.0,square4,j,0.154,3,V,11.0
V11,69.0,48.0,49.0,57.0,71.0,71,4849.0,square4,j,0.1182,3,V,11.0
V11,70.0,41.0,47.0,58.0,65.0,65,4914.0,square4,j,0.2026,3,V,11.0
V11,71.0,37.0,46.0,58.0,60.0,60,4974.0,square4,j,0.2858,3,V,11.0
V11,72.0,41.0,47.0,54.0,65.0,47,5021.0,square2,i,0.1592,1,V,11.0
V11,73.0,42.0,47.0,60.0,67.0,60,5081.0,square3,r,0.2095,2,V,11.0
V11,74.0,43.0,49.0,57.0,64.0,43,5124.0,square1,f,0.1712,0,V,11.0
V11,75.0,38.0,46.0,57.0,66.0,66,5190.0,square4,j,0.1535,3,V,11.0
V11,76.0,42.0,50.0,58.0,68.0,68,5258.0,square4,j,0.2665,3,V,11.0
V11,77.0,36.0,49.0,58.0,64.0,64,5322.0,square4,j,0.2672,3,V,11.0
V11,78.0,40.0,50.0,56.0,67.0,67,5389.0,square4,j,0.1701,3,V,11.0
V11,79.0,39.0,48.0,56.0,67.0,67,5456.0,square4,j,0.2833,3,V,11.0
V11,80.0,51.0,33.0,30.0,45.0,45,5501.0,square4,j,0.2859,3,V,11.0
V11,81.0,49.0,31.0,23.0,48.0,31,5532.0,square2,i,1.3212,1,V,11.0
V11,82.0,55.0,30.0,25.0,42.0,55,5587.0,square1,f,0.3381,0,V,11.0
V11,83.0,50.0,33.0,27.0,48.0,27,5614.0,square3,r,0.1688,2,V,11.0
V11,84.0,52.0,34.0,25.0,43.0,52,5666.0,square1,f,0.1047,0,V,11.0
V11,85.0,49.0,28.0,28.0,44.0,28,5694.0,square2,i,0.0593,1,V,11.0
V11,86.0,57.0,29.0,27.0,48.0,48,5742.0,square4,j,0.3441,3,V,11.0
V11,87.0,49.0,29.0,21.0,38.0,49,5791.0,square1,f,0.426,0,V,11.0
V11,88.0,55.0,32.0,29.0,46.0,55,5846.0,square1,f,0.2583,0,V,11.0
V11,89.0,50.0,28.0,23.0,43.0,50,5896.0,square1,f,0.1031,0,V,11.0
V11,90.0,54.0,34.0,32.0,41.0,54,5950.0,square1,f,0.2691,0,V,11.0
V11,91.0,50.0,34.0,26.0,44.0,44,5994.0,square4,j,0.017,3,V,11.0
V11,92.0,51.0,31.0,27.0,50.0,31,6025.0,square2,i,0.007,1,V,11.0
V11,93.0,49.0,38.0,28.0,42.0,28,6053.0,square3,r,0.3445,2,V,11.0
V11,94.0,50.0,29.0,25.0,46.0,50,6103.0,square1,f,0.1718,0,V,11.0
V11,95.0,51.0,36.0,22.0,40.0,51,6154.0,square1,f,0.2739,0,V,11.0
V11,96.0,52.0,34.0,32.0,45.0,52,6206.0,square1,f,0.2114,0,V,11.0
V11,97.0,53.0,27.0,32.0,44.0,53,6259.0,square1,f,0.1,0,V,11.0
V11,98.0,60.0,31.0,25.0,48.0,60,6319.0,square1,f,0.1547,0,V,11.0
V11,99.0,53.0,33.0,23.0,42.0,53,6372.0,square1,f,0.2887,0,V,11.0
NS7,0.0,26.0,62.0,36.0,41.0,99999,0.0,invalid,,,-1,N,7.0
NS7,1.0,31.0,61.0,40.0,42.0,61,61.0,square2,r,0.6352,1,N,7.0
NS7,2.0,30.0,60.0,46.0,41.0,41,102.0,square4,i,0.1084,3,N,7.0
NS7,3.0,27.0,57.0,46.0,39.0,27,129.0,square1,j,0.1529,0,N,7.0
NS7,4.0,20.0,58.0,45.0,39.0,45,174.0,square3,f,0.2999,2,N,7.0
NS7,5.0,29.0,57.0,46.0,42.0,57,231.0,square2,r,0.4594,1,N,7.0
NS7,6.0,28.0,61.0,44.0,40.0,61,292.0,square2,r,0.2794,1,N,7.0
NS7,7.0,24.0,56.0,46.0,40.0,56,348.0,square2,r,0.2532,1,N,7.0
NS7,8.0,25.0,66.0,45.0,36.0,66,414.0,square2,r,0.2924,1,N,7.0
NS7,9.0,27.0,65.0,46.0,40.0,65,479.0,square2,r,0.2795,1,N,7.0
NS7,10.0,27.0,65.0,41.0,46.0,65,544.0,square2,r,0.2017,1,N,7.0
NS7,11.0,26.0,58.0,40.0,51.0,51,595.0,square4,i,0.3754,3,N,7.0
NS7,12.0,19.0,64.0,43.0,57.0,19,614.0,square1,j,0.3026,0,N,7.0
NS7,13.0,21.0,64.0,43.0,54.0,43,657.0,square3,f,0.294,2,N,7.0
NS7,14.0,26.0,67.0,44.0,55.0,67,724.0,square2,r,0.1203,1,N,7.0
NS7,15.0,20.0,64.0,40.0,61.0,64,788.0,square2,r,0.2093,1,N,7.0
NS7,16.0,20.0,61.0,38.0,66.0,61,849.0,square2,r,0.2279,1,N,7.0
NS7,17.0,20.0,56.0,39.0,64.0,56,905.0,square2,r,0.277,1,N,7.0
NS7,18.0,21.0,56.0,33.0,65.0,65,970.0,square4,i,0.344,3,N,7.0
NS7,19.0,21.0,56.0,36.0,68.0,21,991.0,square1,j,0.3185,0,N,7.0
NS7,20.0,26.0,58.0,37.0,64.0,37,1028.0,square3,f,0.1751,2,N,7.0
NS7,21.0,29.0,62.0,36.0,61.0,61,1089.0,square4,i,0.001,3,N,7.0
NS7,22.0,24.0,63.0,37.0,55.0,55,1144.0,square4,i,0.0525,3,N,7.0
NS7,23.0,26.0,64.0,38.0,54.0,54,1198.0,square4,i,0.0338,3,N,7.0
NS7,24.0,18.0,65.0,39.0,53.0,53,1251.0,square4,i,0.1079,3,N,7.0
NS7,25.0,20.0,62.0,36.0,53.0,62,1313.0,square2,r,0.1942,1,N,7.0
NS7,26.0,24.0,56.0,39.0,52.0,56,1369.0,square2,r,0.0356,1,N,7.0
NS7,27.0,31.0,58.0,36.0,51.0,31,1400.0,square1,j,0.1516,0,N,7.0
NS7,28.0,28.0,59.0,42.0,53.0,42,1442.0,square3,f,0.0181,2,N,7.0
NS7,29.0,30.0,57.0,36.0,51.0,51,1493.0,square4,i,0.2819,3,N,7.0
NS7,30.0,29.0,57.0,35.0,53.0,57,1550.0,square2,r,0.2583,1,N,7.0
NS7,31.0,27.0,59.0,37.0,48.0,59,1609.0,square2,r,0.1271,1,N,7.0
NS7,32.0,29.0,59.0,38.0,45.0,59,1668.0,square2,r,0.0691,1,N,7.0
NS7,33.0,35.0,58.0,37.0,52.0,58,1726.0,square2,r,0.0857,1,N,7.0
NS7,34.0,33.0,59.0,43.0,52.0,59,1785.0,square2,r,0.0007,1,N,7.0
NS7,35.0,37.0,61.0,43.0,49.0,61,1846.0,square2,r,0.062,1,N,7.0
NS7,36.0,36.0,62.0,48.0,54.0,62,1908.0,square2,r,0.0374,1,N,7.0
NS7,37.0,35.0,62.0,46.0,57.0,62,1970.0,square2,r,0.009,1,N,7.0
NS7,38.0,37.0,59.0,52.0,53.0,59,2029.0,square2,r,0.0304,1,N,7.0
NS7,39.0,32.0,57.0,50.0,59.0,57,2086.0,square2,r,0.067,1,N,7.0
NS7,40.0,30.0,56.0,54.0,59.0,56,2142.0,square2,r,0.2419,1,N,7.0
NS7,41.0,36.0,54.0,52.0,56.0,56,2198.0,square4,i,0.2606,3,N,7.0
NS7,42.0,30.0,55.0,57.0,55.0,30,2228.0,square1,j,0.2554,0,N,7.0
NS7,43.0,35.0,52.0,54.0,58.0,54,2282.0,square3,f,0.1863,2,N,7.0
NS7,44.0,30.0,56.0,55.0,57.0,56,2338.0,square2,r,0.135,1,N,7.0
NS7,45.0,28.0,63.0,57.0,58.0,58,2396.0,square4,i,0.1717,3,N,7.0
NS7,46.0,29.0,60.0,58.0,57.0,57,2453.0,square4,i,0.2876,3,N,7.0
NS7,47.0,31.0,58.0,54.0,53.0,58,2511.0,square2,r,0.2817,1,N,7.0
NS7,48.0,27.0,58.0,59.0,48.0,58,2569.0,square2,r,0.386,1,N,7.0
NS7,49.0,28.0,48.0,60.0,54.0,48,2617.0,square2,r,0.0672,1,N,7.0
NS7,50.0,27.0,49.0,62.0,53.0,53,2670.0,square4,i,0.0325,3,N,7.0
NS7,51.0,41.0,49.0,63.0,56.0,63,2733.0,square3,f,0.2754,2,N,7.0
NS7,52.0,36.0,43.0,66.0,56.0,36,2769.0,square1,j,0.2119,0,N,7.0
NS7,53.0,41.0,51.0,69.0,54.0,69,2838.0,square3,f,0.1431,2,N,7.0
NS7,54.0,37.0,52.0,63.0,53.0,63,2901.0,square3,f,0.2088,2,N,7.0
NS7,55.0,40.0,51.0,60.0,54.0,60,2961.0,square3,f,0.2526,2,N,7.0
NS7,56.0,45.0,57.0,63.0,59.0,63,3024.0,square3,f,0.0994,2,N,7.0
NS7,57.0,42.0,49.0,64.0,53.0,53,3077.0,square4,i,0.2992,3,N,7.0
NS7,58.0,39.0,49.0,62.0,52.0,49,3126.0,square2,r,0.0917,1,N,7.0
NS7,59.0,47.0,49.0,67.0,54.0,67,3193.0,square3,f,0.0458,2,N,7.0
NS7,60.0,43.0,53.0,70.0,55.0,70,3263.0,square3,f,0.0516,2,N,7.0
NS7,61.0,41.0,48.0,69.0,52.0,69,3332.0,square3,f,0.2085,2,N,7.0
NS7,62.0,39.0,48.0,65.0,54.0,65,3397.0,square3,f,0.2772,2,N,7.0
NS7,63.0,38.0,48.0,64.0,56.0,64,3461.0,square3,f,0.1334,2,N,7.0
NS7,64.0,34.0,46.0,65.0,51.0,65,3526.0,square3,f,0.4664,2,N,7.0
NS7,65.0,43.0,51.0,63.0,53.0,63,3589.0,square3,f,0.1859,2,N,7.0
NS7,66.0,41.0,51.0,64.0,50.0,51,3640.0,square2,r,0.2832,1,N,7.0
NS7,67.0,44.0,51.0,63.0,54.0,63,3703.0,square3,f,0.0684,2,N,7.0
NS7,68.0,42.0,49.0,62.0,48.0,62,3765.0,square3,f,0.3517,2,N,7.0
NS7,69.0,41.0,50.0,63.0,52.0,63,3828.0,square3,f,0.0261,2,N,7.0
NS7,70.0,45.0,45.0,59.0,53.0,59,3887.0,square3,f,0.1429,2,N,7.0
NS7,71.0,44.0,40.0,52.0,52.0,52,3939.0,square3,f,0.26,2,N,7.0
NS7,72.0,51.0,38.0,55.0,47.0,47,3986.0,square4,i,0.2463,3,N,7.0
NS7,73.0,42.0,36.0,49.0,47.0,42,4028.0,square1,j,0.1771,0,N,7.0
NS7,74.0,44.0,40.0,46.0,48.0,40,4068.0,square2,r,0.2453,1,N,7.0
NS7,75.0,46.0,38.0,45.0,53.0,45,4113.0,square3,f,0.2371,2,N,7.0
NS7,76.0,48.0,44.0,40.0,53.0,53,4166.0,square4,i,0.2725,3,N,7.0
NS7,77.0,45.0,42.0,40.0,55.0,55,4221.0,square4,i,0.1191,3,N,7.0
NS7,78.0,41.0,39.0,40.0,56.0,56,4277.0,square4,i,0.042,3,N,7.0
NS7,79.0,44.0,38.0,41.0,55.0,55,4332.0,square4,i,0.2513,3,N,7.0
NS7,80.0,48.0,49.0,48.0,62.0,62,4394.0,square4,i,0.3101,3,N,7.0
NS7,81.0,44.0,47.0,43.0,61.0,61,4455.0,square4,i,0.2864,3,N,7.0
NS7,82.0,45.0,46.0,38.0,54.0,54,4509.0,square4,i,0.199,3,N,7.0
NS7,83.0,44.0,40.0,41.0,57.0,41,4550.0,square3,f,0.318,2,N,7.0
NS7,84.0,47.0,46.0,41.0,53.0,46,4596.0,square2,r,0.0829,1,N,7.0
NS7,85.0,50.0,45.0,45.0,54.0,50,4646.0,square1,j,0.3192,0,N,7.0
NS7,86.0,45.0,43.0,44.0,54.0,54,4700.0,square4,i,0.0852,3,N,7.0
NS7,87.0,43.0,47.0,49.0,55.0,55,4755.0,square4,i,0.2921,3,N,7.0
NS7,88.0,40.0,48.0,44.0,58.0,58,4813.0,square4,i,0.2777,3,N,7.0
NS7,89.0,40.0,44.0,47.0,54.0,54,4867.0,square4,i,0.2591,3,N,7.0
NS7,90.0,38.0,43.0,48.0,55.0,55,4922.0,square4,i,0.3289,3,N,7.0
NS7,91.0,36.0,45.0,43.0,55.0,55,4977.0,square4,i,0.0254,3,N,7.0
NS7,92.0,29.0,44.0,45.0,53.0,53,5030.0,square4,i,0.1787,3,N,7.0
NS7,93.0,33.0,46.0,44.0,57.0,57,5087.0,square4,i,0.0849,3,N,7.0
NS7,94.0,32.0,43.0,52.0,47.0,47,5134.0,square4,i,0.0686,3,N,7.0
NS7,95.0,41.0,46.0,50.0,51.0,46,5180.0,square2,r,0.2714,1,N,7.0
NS7,96.0,38.0,41.0,46.0,52.0,46,5226.0,square3,f,0.3269,2,N,7.0
NS7,97.0,41.0,44.0,40.0,52.0,41,5267.0,square1,j,0.1333,0,N,7.0
NS7,98.0,45.0,41.0,41.0,55.0,55,5322.0,square4,i,0.1604,3,N,7.0
NS7,99.0,39.0,41.0,39.0,53.0,53,5375.0,square4,i,0.0078,3,N,7.0
NS5,0.0,26.0,19.0,54.0,39.0,54,54.0,square3,r,1.08,2,N,5.0
NS5,1.0,21.0,17.0,51.0,42.0,21,75.0,square1,i,0.2925,0,N,5.0
NS5,2.0,19.0,17.0,52.0,42.0,17,92.0,square2,j,0.1599,1,N,5.0
NS5,3.0,21.0,16.0,55.0,38.0,38,130.0,square4,f,0.2188,3,N,5.0
NS5,4.0,14.0,26.0,52.0,44.0,52,182.0,square3,r,0.1187,2,N,5.0
NS5,5.0,18.0,25.0,47.0,42.0,47,229.0,square3,r,0.3759,2,N,5.0
NS5,6.0,23.0,21.0,54.0,38.0,54,283.0,square3,r,0.3003,2,N,5.0
NS5,7.0,18.0,27.0,56.0,39.0,56,339.0,square3,r,0.4295,2,N,5.0
NS5,8.0,18.0,28.0,57.0,40.0,57,396.0,square3,r,0.1907,2,N,5.0
NS5,9.0,15.0,29.0,53.0,38.0,53,449.0,square3,r,0.0763,2,N,5.0
NS5,10.0,13.0,26.0,56.0,41.0,56,505.0,square3,r,0.0522,2,N,5.0
NS5,11.0,11.0,25.0,58.0,41.0,58,563.0,square3,r,0.2674,2,N,5.0
NS5,12.0,9.0,22.0,53.0,40.0,53,616.0,square3,r,0.0054,2,N,5.0
NS5,13.0,11.0,21.0,55.0,39.0,55,671.0,square3,r,0.0354,2,N,5.0
NS5,14.0,12.0,17.0,49.0,38.0,49,720.0,square3,r,0.0163,2,N,5.0
NS5,15.0,18.0,19.0,52.0,37.0,18,738.0,square1,i,0.3007,0,N,5.0
NS5,16.0,18.0,20.0,49.0,40.0,40,778.0,square4,f,0.186,3,N,5.0
NS5,17.0,16.0,16.0,50.0,41.0,16,794.0,square2,j,0.0842,1,N,5.0
NS5,18.0,16.0,18.0,51.0,43.0,51,845.0,square3,r,0.0007,2,N,5.0
NS5,19.0,14.0,20.0,44.0,45.0,44,889.0,square3,r,0.4517,2,N,5.0
NS5,20.0,19.0,21.0,42.0,48.0,48,937.0,square4,f,0.2948,3,N,5.0
NS5,21.0,19.0,22.0,43.0,47.0,19,956.0,square1,i,0.2364,0,N,5.0
NS5,22.0,17.0,15.0,43.0,47.0,47,1003.0,square4,f,0.0685,3,N,5.0
NS5,23.0,16.0,28.0,37.0,47.0,47,1050.0,square4,f,0.2185,3,N,5.0
NS5,24.0,20.0,21.0,38.0,49.0,49,1099.0,square4,f,0.2354,3,N,5.0
NS5,25.0,22.0,17.0,34.0,46.0,46,1145.0,square4,f,0.0398,3,N,5.0
NS5,26.0,30.0,16.0,32.0,50.0,50,1195.0,square4,f,0.0474,3,N,5.0
NS5,27.0,21.0,20.0,35.0,42.0,42,1237.0,square4,f,0.0529,3,N,5.0
NS5,28.0,20.0,23.0,39.0,42.0,23,1260.0,square2,j,0.2357,1,N,5.0
NS5,29.0,21.0,18.0,39.0,41.0,39,1299.0,square3,r,0.4174,2,N,5.0
NS5,30.0,20.0,11.0,41.0,44.0,20,1319.0,square1,i,0.2916,0,N,5.0
NS5,31.0,20.0,9.0,36.0,43.0,43,1362.0,square4,f,0.1446,3,N,5.0
NS5,32.0,21.0,13.0,35.0,46.0,46,1408.0,square4,f,0.2234,3,N,5.0
NS5,33.0,16.0,22.0,32.0,44.0,44,1452.0,square4,f,0.045,3,N,5.0
NS5,34.0,20.0,20.0,33.0,37.0,37,1489.0,square4,f,0.0007,3,N,5.0
NS5,35.0,19.0,27.0,34.0,40.0,27,1516.0,square2,j,0.2259,1,N,5.0
NS5,36.0,20.0,23.0,31.0,37.0,20,1536.0,square1,i,0.1689,0,N,5.0
NS5,37.0,15.0,28.0,41.0,40.0,41,1577.0,square3,r,0.2334,2,N,5.0
NS5,38.0,18.0,21.0,45.0,37.0,37,1614.0,square4,f,0.1696,3,N,5.0
NS5,39.0,23.0,22.0,40.0,34.0,40,1654.0,square3,r,0.0164,2,N,5.0
NS5,40.0,22.0,25.0,44.0,26.0,44,1698.0,square3,r,0.1845,2,N,5.0
NS5,41.0,28.0,25.0,39.0,29.0,39,1737.0,square3,r,0.0694,2,N,5.0
NS5,42.0,27.0,27.0,42.0,35.0,27,1764.0,square1,i,0.1924,0,N,5.0
NS5,43.0,25.0,25.0,49.0,38.0,25,1789.0,square2,j,0.1183,1,N,5.0
NS5,44.0,24.0,26.0,42.0,30.0,30,1819.0,square4,f,0.3107,3,N,5.0
NS5,45.0,33.0,22.0,43.0,37.0,43,1862.0,square3,r,0.1669,2,N,5.0
NS5,46.0,32.0,24.0,50.0,38.0,50,1912.0,square3,r,0.2097,2,N,5.0
NS5,47.0,39.0,25.0,52.0,29.0,52,1964.0,square3,r,0.0671,2,N,5.0
NS5,48.0,42.0,22.0,46.0,33.0,46,2010.0,square3,r,0.2116,2,N,5.0
NS5,49.0,40.0,26.0,40.0,33.0,40,2050.0,square3,r,0.0833,2,N,5.0
NS5,50.0,34.0,19.0,47.0,33.0,47,2097.0,square3,r,0.2031,2,N,5.0
NS5,51.0,29.0,25.0,45.0,29.0,45,2142.0,square3,r,0.2841,2,N,5.0
NS5,52.0,29.0,24.0,48.0,35.0,48,2190.0,square3,r,0.1923,2,N,5.0
NS5,53.0,24.0,25.0,45.0,40.0,45,2235.0,square3,r,0.1253,2,N,5.0
NS5,54.0,26.0,25.0,51.0,36.0,51,2286.0,square3,r,0.0005,2,N,5.0
NS5,55.0,25.0,28.0,56.0,34.0,56,2342.0,square3,r,0.0263,2,N,5.0
NS5,56.0,23.0,27.0,54.0,36.0,54,2396.0,square3,r,0.0683,2,N,5.0
NS5,57.0,19.0,25.0,51.0,31.0,51,2447.0,square3,r,0.2256,2,N,5.0
NS5,58.0,20.0,30.0,53.0,29.0,53,2500.0,square3,r,0.2164,2,N,5.0
NS5,59.0,17.0,30.0,52.0,28.0,52,2552.0,square3,r,0.2346,2,N,5.0
NS5,60.0,15.0,30.0,55.0,30.0,55,2607.0,square3,r,0.0007,2,N,5.0
NS5,61.0,22.0,29.0,54.0,30.0,54,2661.0,square3,r,0.0259,2,N,5.0
NS5,62.0,18.0,31.0,55.0,32.0,55,2716.0,square3,r,0.0821,2,N,5.0
NS5,63.0,19.0,31.0,51.0,37.0,51,2767.0,square3,r,0.0586,2,N,5.0
NS5,64.0,20.0,30.0,45.0,35.0,45,2812.0,square3,r,0.078,2,N,5.0
NS5,65.0,24.0,21.0,55.0,38.0,38,2850.0,square4,f,0.6196,3,N,5.0
NS5,66.0,22.0,29.0,58.0,36.0,22,2872.0,square1,i,0.0504,0,N,5.0
NS5,67.0,22.0,26.0,51.0,36.0,26,2898.0,square2,j,0.0526,1,N,5.0
NS5,68.0,20.0,28.0,52.0,36.0,52,2950.0,square3,r,0.0673,2,N,5.0
NS5,69.0,18.0,27.0,52.0,40.0,52,3002.0,square3,r,0.1197,2,N,5.0
NS5,70.0,22.0,34.0,55.0,39.0,55,3057.0,square3,r,0.205,2,N,5.0
NS5,71.0,27.0,37.0,59.0,41.0,59,3116.0,square3,r,0.0168,2,N,5.0
NS5,72.0,27.0,37.0,57.0,40.0,57,3173.0,square3,r,0.0007,2,N,5.0
NS5,73.0,35.0,36.0,55.0,38.0,55,3228.0,square3,r,0.0104,2,N,5.0
NS5,74.0,27.0,36.0,52.0,36.0,52,3280.0,square3,r,0.0522,2,N,5.0
NS5,75.0,31.0,40.0,53.0,38.0,53,3333.0,square3,r,0.0331,2,N,5.0
NS5,76.0,33.0,41.0,59.0,35.0,59,3392.0,square3,r,0.0869,2,N,5.0
NS5,77.0,33.0,42.0,56.0,38.0,56,3448.0,square3,r,0.0756,2,N,5.0
NS5,78.0,30.0,42.0,53.0,37.0,53,3501.0,square3,r,0.0172,2,N,5.0
NS5,79.0,27.0,49.0,51.0,44.0,44,3545.0,square4,f,0.0778,3,N,5.0
NS5,80.0,31.0,49.0,45.0,44.0,45,3590.0,square3,r,0.1,2,N,5.0
NS5,81.0,33.0,51.0,48.0,43.0,33,3623.0,square1,i,0.1441,0,N,5.0
NS5,82.0,31.0,54.0,41.0,43.0,41,3664.0,square3,r,0.1431,2,N,5.0
NS5,83.0,25.0,57.0,42.0,40.0,42,3706.0,square3,r,0.0499,2,N,5.0
NS5,84.0,36.0,57.0,45.0,38.0,38,3744.0,square4,f,0.1859,3,N,5.0
NS5,85.0,36.0,62.0,44.0,42.0,44,3788.0,square3,r,0.1669,2,N,5.0
NS5,86.0,33.0,55.0,48.0,43.0,48,3836.0,square3,r,0.1886,2,N,5.0
NS5,87.0,37.0,53.0,44.0,46.0,44,3880.0,square3,r,0.0351,2,N,5.0
NS5,88.0,36.0,54.0,41.0,48.0,41,3921.0,square3,r,0.2023,2,N,5.0
NS5,89.0,39.0,62.0,47.0,47.0,47,3968.0,square4,f,0.2861,3,N,5.0
NS5,90.0,37.0,62.0,51.0,48.0,48,4016.0,square4,f,0.3545,3,N,5.0
NS5,91.0,40.0,64.0,48.0,53.0,40,4056.0,square1,i,0.2661,0,N,5.0
NS5,92.0,42.0,64.0,51.0,55.0,64,4120.0,square2,j,0.1194,1,N,5.0
NS5,93.0,39.0,63.0,51.0,53.0,63,4183.0,square2,j,0.1258,1,N,5.0
NS5,94.0,41.0,60.0,50.0,58.0,60,4243.0,square2,j,0.2433,1,N,5.0
NS5,95.0,36.0,55.0,53.0,52.0,55,4298.0,square2,j,0.1016,1,N,5.0
NS5,96.0,36.0,56.0,55.0,56.0,56,4354.0,square2,j,0.1532,1,N,5.0
NS5,97.0,28.0,52.0,57.0,53.0,52,4406.0,square2,j,0.2083,1,N,5.0
NS5,98.0,29.0,53.0,53.0,43.0,53,4459.0,square3,r,0.2848,2,N,5.0
NS5,99.0,25.0,55.0,53.0,46.0,55,4514.0,square2,j,0.2391,1,N,5.0
NS12,0.0,80.0,24.0,40.0,79.0,24,24.0,square2,r,1.091,1,N,12.0
NS12,1.0,78.0,28.0,44.0,78.0,78,102.0,square4,i,0.2362,3,N,12.0
NS12,2.0,77.0,28.0,37.0,82.0,77,179.0,square1,j,0.2687,0,N,12.0
NS12,3.0,76.0,33.0,39.0,82.0,39,218.0,square3,f,0.8361,2,N,12.0
NS12,4.0,79.0,37.0,34.0,78.0,78,296.0,square4,i,0.151,3,N,12.0
NS12,5.0,83.0,33.0,28.0,81.0,81,377.0,square4,i,0.0165,3,N,12.0
NS12,6.0,77.0,39.0,33.0,80.0,80,457.0,square4,i,0.1415,3,N,12.0
NS12,7.0,77.0,40.0,25.0,85.0,85,542.0,square4,i,0.0651,3,N,12.0
NS12,8.0,77.0,40.0,29.0,87.0,87,629.0,square4,i,0.2162,3,N,12.0
NS12,9.0,70.0,42.0,29.0,88.0,88,717.0,square4,i,0.2179,3,N,12.0
NS12,10.0,65.0,47.0,31.0,86.0,86,803.0,square4,i,0.1508,3,N,12.0
NS12,11.0,67.0,46.0,26.0,84.0,67,870.0,square1,j,0.3277,0,N,12.0
NS12,12.0,67.0,36.0,26.0,84.0,36,906.0,square2,r,0.1689,1,N,12.0
NS12,13.0,69.0,33.0,23.0,82.0,23,929.0,square3,f,0.3711,2,N,12.0
NS12,14.0,66.0,35.0,20.0,81.0,81,1010.0,square4,i,0.0303,3,N,12.0
NS12,15.0,66.0,30.0,23.0,78.0,78,1088.0,square4,i,0.1029,3,N,12.0
NS12,16.0,69.0,28.0,17.0,74.0,74,1162.0,square4,i,0.1188,3,N,12.0
NS12,17.0,66.0,32.0,20.0,78.0,78,1240.0,square4,i,0.1501,3,N,12.0
NS12,18.0,60.0,33.0,26.0,76.0,76,1316.0,square4,i,0.1424,3,N,12.0
NS12,19.0,63.0,37.0,23.0,76.0,76,1392.0,square4,i,0.1342,3,N,12.0
NS12,20.0,59.0,36.0,24.0,78.0,78,1470.0,square4,i,0.1581,3,N,12.0
NS12,21.0,59.0,35.0,25.0,79.0,79,1549.0,square4,i,0.1756,3,N,12.0
NS12,22.0,61.0,37.0,26.0,88.0,88,1637.0,square4,i,0.1919,3,N,12.0
NS12,23.0,61.0,37.0,25.0,83.0,83,1720.0,square4,i,0.1876,3,N,12.0
NS12,24.0,61.0,39.0,26.0,85.0,85,1805.0,square4,i,0.2183,3,N,12.0
NS12,25.0,63.0,30.0,29.0,77.0,77,1882.0,square4,i,0.1714,3,N,12.0
NS12,26.0,58.0,39.0,29.0,83.0,58,1940.0,square1,j,0.3359,0,N,12.0
NS12,27.0,60.0,34.0,32.0,85.0,34,1974.0,square2,r,0.3245,1,N,12.0
NS12,28.0,63.0,32.0,35.0,77.0,35,2009.0,square3,f,0.1768,2,N,12.0
NS12,29.0,61.0,35.0,23.0,79.0,79,2088.0,square4,i,0.1499,3,N,12.0
NS12,30.0,57.0,27.0,30.0,69.0,69,2157.0,square4,i,0.0747,3,N,12.0
NS12,31.0,64.0,29.0,26.0,69.0,69,2226.0,square4,i,0.2251,3,N,12.0
NS12,32.0,65.0,29.0,33.0,69.0,69,2295.0,square4,i,0.1924,3,N,12.0
NS12,33.0,68.0,29.0,33.0,73.0,73,2368.0,square4,i,0.2085,3,N,12.0
NS12,34.0,69.0,29.0,29.0,67.0,67,2435.0,square4,i,0.2258,3,N,12.0
NS12,35.0,66.0,32.0,30.0,61.0,61,2496.0,square4,i,0.2029,3,N,12.0
NS12,36.0,64.0,27.0,26.0,58.0,64,2560.0,square1,j,0.3419,0,N,12.0
NS12,37.0,65.0,32.0,27.0,67.0,32,2592.0,square2,r,0.4132,1,N,12.0
NS12,38.0,63.0,32.0,30.0,64.0,30,2622.0,square3,f,0.2996,2,N,12.0
NS12,39.0,65.0,30.0,30.0,70.0,70,2692.0,square4,i,0.0076,3,N,12.0
NS12,40.0,71.0,37.0,32.0,69.0,69,2761.0,square4,i,0.0609,3,N,12.0
NS12,41.0,66.0,45.0,37.0,69.0,69,2830.0,square4,i,0.1925,3,N,12.0
NS12,42.0,75.0,42.0,35.0,65.0,65,2895.0,square4,i,0.194,3,N,12.0
NS12,43.0,82.0,39.0,35.0,57.0,82,2977.0,square1,j,0.4499,0,N,12.0
NS12,44.0,81.0,34.0,34.0,61.0,81,3058.0,square1,j,0.0503,0,N,12.0
NS12,45.0,74.0,33.0,36.0,59.0,59,3117.0,square4,i,0.0007,3,N,12.0
NS12,46.0,77.0,32.0,40.0,57.0,77,3194.0,square1,j,0.192,0,N,12.0
NS12,47.0,79.0,32.0,39.0,60.0,79,3273.0,square1,j,0.1505,0,N,12.0
NS12,48.0,80.0,28.0,34.0,62.0,80,3353.0,square1,j,0.0365,0,N,12.0
NS12,49.0,76.0,23.0,37.0,64.0,76,3429.0,square1,j,0.1997,0,N,12.0
NS12,50.0,75.0,25.0,37.0,65.0,75,3504.0,square1,j,0.1094,0,N,12.0
NS12,51.0,74.0,25.0,39.0,70.0,39,3543.0,square3,f,0.068,2,N,12.0
NS12,52.0,79.0,26.0,40.0,73.0,26,3569.0,square2,r,0.3439,1,N,12.0
NS12,53.0,75.0,25.0,33.0,69.0,69,3638.0,square4,i,0.1996,3,N,12.0
NS12,54.0,79.0,25.0,38.0,68.0,79,3717.0,square1,j,0.2693,0,N,12.0
NS12,55.0,81.0,22.0,34.0,68.0,81,3798.0,square1,j,0.0007,0,N,12.0
NS12,56.0,72.0,29.0,39.0,69.0,72,3870.0,square1,j,0.0771,0,N,12.0
NS12,57.0,72.0,28.0,38.0,73.0,72,3942.0,square1,j,0.0377,0,N,12.0
NS12,58.0,69.0,25.0,32.0,71.0,69,4011.0,square1,j,0.0361,0,N,12.0
NS12,59.0,75.0,30.0,33.0,69.0,75,4086.0,square1,j,0.0422,0,N,12.0
NS12,60.0,68.0,28.0,39.0,68.0,68,4154.0,square1,j,0.1769,0,N,12.0
NS12,61.0,69.0,32.0,37.0,60.0,69,4223.0,square1,j,0.2076,0,N,12.0
NS12,62.0,63.0,37.0,39.0,55.0,63,4286.0,square1,j,0.0834,0,N,12.0
NS12,63.0,63.0,38.0,43.0,54.0,63,4349.0,square1,j,0.1019,0,N,12.0
NS12,64.0,60.0,30.0,35.0,55.0,60,4409.0,square1,j,0.0952,0,N,12.0
NS12,65.0,60.0,37.0,34.0,55.0,34,4443.0,square3,f,0.004,2,N,12.0
NS12,66.0,61.0,40.0,35.0,51.0,51,4494.0,square4,i,0.242,3,N,12.0
NS12,67.0,65.0,37.0,35.0,53.0,37,4531.0,square2,r,0.0007,1,N,12.0
NS12,68.0,62.0,33.0,38.0,50.0,62,4593.0,square1,j,0.1086,0,N,12.0
NS12,69.0,56.0,41.0,29.0,54.0,56,4649.0,square1,j,0.225,0,N,12.0
NS12,70.0,56.0,39.0,30.0,57.0,30,4679.0,square3,f,0.336,2,N,12.0
NS12,71.0,61.0,40.0,33.0,64.0,64,4743.0,square4,i,0.1849,3,N,12.0
NS12,72.0,51.0,42.0,35.0,67.0,42,4785.0,square2,r,0.4498,1,N,12.0
NS12,73.0,56.0,39.0,39.0,67.0,56,4841.0,square1,j,0.1838,0,N,12.0
NS12,74.0,50.0,38.0,40.0,63.0,63,4904.0,square4,i,0.1354,3,N,12.0
NS12,75.0,52.0,37.0,41.0,67.0,67,4971.0,square4,i,0.1667,3,N,12.0
NS12,76.0,47.0,40.0,46.0,67.0,67,5038.0,square4,i,0.2167,3,N,12.0
NS12,77.0,45.0,35.0,47.0,67.0,67,5105.0,square4,i,0.1159,3,N,12.0
NS12,78.0,44.0,38.0,52.0,66.0,66,5171.0,square4,i,0.2356,3,N,12.0
NS12,79.0,41.0,38.0,52.0,64.0,64,5235.0,square4,i,0.1575,3,N,12.0
NS12,80.0,36.0,41.0,57.0,58.0,57,5292.0,square3,f,0.3839,2,N,12.0
NS12,81.0,36.0,42.0,66.0,63.0,42,5334.0,square2,r,0.2341,1,N,12.0
NS12,82.0,35.0,44.0,65.0,62.0,35,5369.0,square1,j,0.38,0,N,12.0
NS12,83.0,37.0,42.0,70.0,65.0,65,5434.0,square4,i,0.3173,3,N,12.0
NS12,84.0,35.0,39.0,72.0,58.0,58,5492.0,square4,i,0.0663,3,N,12.0
NS12,85.0,30.0,40.0,62.0,55.0,30,5522.0,square1,j,0.2908,0,N,12.0
NS12,86.0,36.0,40.0,65.0,59.0,65,5587.0,square3,f,0.261,2,N,12.0
NS12,87.0,31.0,41.0,67.0,57.0,41,5628.0,square2,r,0.3262,1,N,12.0
NS12,88.0,30.0,50.0,67.0,52.0,52,5680.0,square4,i,0.1279,3,N,12.0
NS12,89.0,28.0,41.0,69.0,54.0,69,5749.0,square3,f,0.0009,2,N,12.0
NS12,90.0,29.0,41.0,61.0,57.0,61,5810.0,square3,f,0.2582,2,N,12.0
NS12,91.0,30.0,36.0,59.0,54.0,59,5869.0,square3,f,0.0504,2,N,12.0
NS12,92.0,28.0,29.0,60.0,54.0,60,5929.0,square3,f,0.2164,2,N,12.0
NS12,93.0,30.0,35.0,62.0,52.0,62,5991.0,square3,f,0.0175,2,N,12.0
NS12,94.0,30.0,36.0,60.0,56.0,60,6051.0,square3,f,0.0856,2,N,12.0
NS12,95.0,29.0,33.0,63.0,60.0,60,6111.0,square4,i,0.1251,3,N,12.0
NS12,96.0,29.0,30.0,59.0,59.0,29,6140.0,square1,j,0.2085,0,N,12.0
NS12,97.0,31.0,35.0,61.0,61.0,35,6175.0,square2,r,0.316,1,N,12.0
NS12,98.0,31.0,40.0,67.0,58.0,58,6233.0,square4,i,0.1378,3,N,12.0
NS12,99.0,33.0,37.0,65.0,67.0,65,6298.0,square3,f,0.2084,2,N,12.0
