block,Trial,square1,square2,square3,square4,currPoints,totalPoints,square,choiceKey.keys,choiceKey.rt,armNum,blockType,blockNum
prac,0.0,100.0,0.0,0.0,0.0,0,0.0,square2,,,1,p,0.0
prac,1.0,100.0,0.0,0.0,0.0,0,0.0,square3,,,2,p,0.0
prac,2.0,100.0,0.0,0.0,0.0,0,0.0,square4,,,3,p,0.0
prac,3.0,100.0,0.0,0.0,0.0,100,100.0,square1,,,0,p,0.0
prac,4.0,100.0,0.0,0.0,0.0,100,200.0,square1,,,0,p,0.0
prac,5.0,100.0,0.0,0.0,0.0,100,300.0,square1,,,0,p,0.0
prac,6.0,100.0,0.0,0.0,0.0,100,400.0,square1,,,0,p,0.0
prac,7.0,100.0,0.0,0.0,0.0,100,500.0,square1,,,0,p,0.0
prac,8.0,100.0,0.0,0.0,0.0,100,600.0,square1,,,0,p,0.0
prac,9.0,100.0,0.0,0.0,0.0,100,700.0,square1,,,0,p,0.0
NS12,0.0,80.0,24.0,40.0,79.0,40,40.0,square3,r,0.656,2,N,12.0
NS12,1.0,78.0,28.0,44.0,78.0,78,118.0,square1,j,0.308,0,N,12.0
NS12,2.0,77.0,28.0,37.0,82.0,82,200.0,square4,i,0.36,3,N,12.0
NS12,3.0,76.0,33.0,39.0,82.0,33,233.0,square2,f,0.362,1,N,12.0
NS12,4.0,79.0,37.0,34.0,78.0,78,311.0,square4,i,0.314,3,N,12.0
NS12,5.0,83.0,33.0,28.0,81.0,83,394.0,square1,j,0.46,0,N,12.0
NS12,6.0,77.0,39.0,33.0,80.0,33,427.0,square3,r,0.329,2,N,12.0
NS12,7.0,77.0,40.0,25.0,85.0,40,467.0,square2,f,0.607,1,N,12.0
NS12,8.0,77.0,40.0,29.0,87.0,87,554.0,square4,i,0.325,3,N,12.0
NS12,9.0,70.0,42.0,29.0,88.0,70,624.0,square1,j,0.278,0,N,12.0
NS12,10.0,65.0,47.0,31.0,86.0,86,710.0,square4,i,0.336,3,N,12.0
NS12,11.0,67.0,46.0,26.0,84.0,84,794.0,square4,i,0.407,3,N,12.0
NS12,12.0,67.0,36.0,26.0,84.0,67,861.0,square1,j,0.343,0,N,12.0
NS12,13.0,69.0,33.0,23.0,82.0,82,943.0,square4,i,0.325,3,N,12.0
NS12,14.0,66.0,35.0,20.0,81.0,81,1024.0,square4,i,0.294,3,N,12.0
NS12,15.0,66.0,30.0,23.0,78.0,78,1102.0,square4,i,0.327,3,N,12.0
NS12,16.0,69.0,28.0,17.0,74.0,74,1176.0,square4,i,0.409,3,N,12.0
NS12,17.0,66.0,32.0,20.0,78.0,78,1254.0,square4,i,0.311,3,N,12.0
NS12,18.0,60.0,33.0,26.0,76.0,76,1330.0,square4,i,0.242,3,N,12.0
NS12,19.0,63.0,37.0,23.0,76.0,37,1367.0,square2,f,0.325,1,N,12.0
NS12,20.0,59.0,36.0,24.0,78.0,24,1391.0,square3,r,0.327,2,N,12.0
NS12,21.0,59.0,35.0,25.0,79.0,59,1450.0,square1,j,0.278,0,N,12.0
NS12,22.0,61.0,37.0,26.0,88.0,88,1538.0,square4,i,0.361,3,N,12.0
NS12,23.0,61.0,37.0,25.0,83.0,83,1621.0,square4,i,0.312,3,N,12.0
NS12,24.0,61.0,39.0,26.0,85.0,85,1706.0,square4,i,0.427,3,N,12.0
NS12,25.0,63.0,30.0,29.0,77.0,77,1783.0,square4,i,0.248,3,N,12.0
NS12,26.0,58.0,39.0,29.0,83.0,83,1866.0,square4,i,0.265,3,N,12.0
NS12,27.0,60.0,34.0,32.0,85.0,85,1951.0,square4,i,0.278,3,N,12.0
NS12,28.0,63.0,32.0,35.0,77.0,77,2028.0,square4,i,0.262,3,N,12.0
NS12,29.0,61.0,35.0,23.0,79.0,79,2107.0,square4,i,0.29,3,N,12.0
NS12,30.0,57.0,27.0,30.0,69.0,69,2176.0,square4,i,0.446,3,N,12.0
NS12,31.0,64.0,29.0,26.0,69.0,69,2245.0,square4,i,0.261,3,N,12.0
NS12,32.0,65.0,29.0,33.0,69.0,69,2314.0,square4,i,0.463,3,N,12.0
NS12,33.0,68.0,29.0,33.0,73.0,68,2382.0,square1,j,0.344,0,N,12.0
NS12,34.0,69.0,29.0,29.0,67.0,29,2411.0,square2,f,0.393,1,N,12.0
NS12,35.0,66.0,32.0,30.0,61.0,30,2441.0,square3,r,0.279,2,N,12.0
NS12,36.0,64.0,27.0,26.0,58.0,58,2499.0,square4,i,0.434,3,N,12.0
NS12,37.0,65.0,32.0,27.0,67.0,67,2566.0,square4,i,0.344,3,N,12.0
NS12,38.0,63.0,32.0,30.0,64.0,63,2629.0,square1,j,0.296,0,N,12.0
NS12,39.0,65.0,30.0,30.0,70.0,70,2699.0,square4,i,0.308,3,N,12.0
NS12,40.0,71.0,37.0,32.0,69.0,69,2768.0,square4,i,0.257,3,N,12.0
NS12,41.0,66.0,45.0,37.0,69.0,66,2834.0,square1,j,0.293,0,N,12.0
NS12,42.0,75.0,42.0,35.0,65.0,65,2899.0,square4,i,0.326,3,N,12.0
NS12,43.0,82.0,39.0,35.0,57.0,57,2956.0,square4,i,0.529,3,N,12.0
NS12,44.0,81.0,34.0,34.0,61.0,81,3037.0,square1,j,0.777,0,N,12.0
NS12,45.0,74.0,33.0,36.0,59.0,74,3111.0,square1,j,0.325,0,N,12.0
NS12,46.0,77.0,32.0,40.0,57.0,77,3188.0,square1,j,0.263,0,N,12.0
NS12,47.0,79.0,32.0,39.0,60.0,79,3267.0,square1,j,0.278,0,N,12.0
NS12,48.0,80.0,28.0,34.0,62.0,80,3347.0,square1,j,0.329,0,N,12.0
NS12,49.0,76.0,23.0,37.0,64.0,76,3423.0,square1,j,0.34,0,N,12.0
NS12,50.0,75.0,25.0,37.0,65.0,65,3488.0,square4,i,0.345,3,N,12.0
NS12,51.0,74.0,25.0,39.0,70.0,74,3562.0,square1,j,0.228,0,N,12.0
NS12,52.0,79.0,26.0,40.0,73.0,79,3641.0,square1,j,0.278,0,N,12.0
NS12,53.0,75.0,25.0,33.0,69.0,75,3716.0,square1,j,0.31,0,N,12.0
NS12,54.0,79.0,25.0,38.0,68.0,79,3795.0,square1,j,0.277,0,N,12.0
NS12,55.0,81.0,22.0,34.0,68.0,81,3876.0,square1,j,0.294,0,N,12.0
NS12,56.0,72.0,29.0,39.0,69.0,72,3948.0,square1,j,0.29,0,N,12.0
NS12,57.0,72.0,28.0,38.0,73.0,72,4020.0,square1,j,0.312,0,N,12.0
NS12,58.0,69.0,25.0,32.0,71.0,69,4089.0,square1,j,0.175,0,N,12.0
NS12,59.0,75.0,30.0,33.0,69.0,75,4164.0,square1,j,0.278,0,N,12.0
NS12,60.0,68.0,28.0,39.0,68.0,68,4232.0,square1,j,0.307,0,N,12.0
NS12,61.0,69.0,32.0,37.0,60.0,69,4301.0,square1,j,0.245,0,N,12.0
NS12,62.0,63.0,37.0,39.0,55.0,63,4364.0,square1,j,0.244,0,N,12.0
NS12,63.0,63.0,38.0,43.0,54.0,63,4427.0,square1,j,0.277,0,N,12.0
NS12,64.0,60.0,30.0,35.0,55.0,60,4487.0,square1,j,0.293,0,N,12.0
NS12,65.0,60.0,37.0,34.0,55.0,60,4547.0,square1,j,0.247,0,N,12.0
NS12,66.0,61.0,40.0,35.0,51.0,51,4598.0,square4,i,0.279,3,N,12.0
NS12,67.0,65.0,37.0,35.0,53.0,65,4663.0,square1,j,0.312,0,N,12.0
NS12,68.0,62.0,33.0,38.0,50.0,33,4696.0,square2,f,0.561,1,N,12.0
NS12,69.0,56.0,41.0,29.0,54.0,29,4725.0,square3,r,0.283,2,N,12.0
NS12,70.0,56.0,39.0,30.0,57.0,56,4781.0,square1,j,0.276,0,N,12.0
NS12,71.0,61.0,40.0,33.0,64.0,61,4842.0,square1,j,0.346,0,N,12.0
NS12,72.0,51.0,42.0,35.0,67.0,51,4893.0,square1,j,0.195,0,N,12.0
NS12,73.0,56.0,39.0,39.0,67.0,56,4949.0,square1,j,0.212,0,N,12.0
NS12,74.0,50.0,38.0,40.0,63.0,63,5012.0,square4,i,0.343,3,N,12.0
NS12,75.0,52.0,37.0,41.0,67.0,67,5079.0,square4,i,0.262,3,N,12.0
NS12,76.0,47.0,40.0,46.0,67.0,67,5146.0,square4,i,0.415,3,N,12.0
NS12,77.0,45.0,35.0,47.0,67.0,67,5213.0,square4,i,0.309,3,N,12.0
NS12,78.0,44.0,38.0,52.0,66.0,66,5279.0,square4,i,0.309,3,N,12.0
NS12,79.0,41.0,38.0,52.0,64.0,64,5343.0,square4,i,0.249,3,N,12.0
NS12,80.0,36.0,41.0,57.0,58.0,58,5401.0,square4,i,0.256,3,N,12.0
NS12,81.0,36.0,42.0,66.0,63.0,36,5437.0,square1,j,0.297,0,N,12.0
NS12,82.0,35.0,44.0,65.0,62.0,44,5481.0,square2,f,0.437,1,N,12.0
NS12,83.0,37.0,42.0,70.0,65.0,70,5551.0,square3,r,0.163,2,N,12.0
NS12,84.0,35.0,39.0,72.0,58.0,72,5623.0,square3,r,0.273,2,N,12.0
NS12,85.0,30.0,40.0,62.0,55.0,62,5685.0,square3,r,0.294,2,N,12.0
NS12,86.0,36.0,40.0,65.0,59.0,65,5750.0,square3,r,0.328,2,N,12.0
NS12,87.0,31.0,41.0,67.0,57.0,67,5817.0,square3,r,0.392,2,N,12.0
NS12,88.0,30.0,50.0,67.0,52.0,67,5884.0,square3,r,0.326,2,N,12.0
NS12,89.0,28.0,41.0,69.0,54.0,69,5953.0,square3,r,0.291,2,N,12.0
NS12,90.0,29.0,41.0,61.0,57.0,61,6014.0,square3,r,0.35,2,N,12.0
NS12,91.0,30.0,36.0,59.0,54.0,59,6073.0,square3,r,0.277,2,N,12.0
NS12,92.0,28.0,29.0,60.0,54.0,29,6102.0,square2,f,0.326,1,N,12.0
NS12,93.0,30.0,35.0,62.0,52.0,52,6154.0,square4,i,0.36,3,N,12.0
NS12,94.0,30.0,36.0,60.0,56.0,30,6184.0,square1,j,0.265,0,N,12.0
NS12,95.0,29.0,33.0,63.0,60.0,63,6247.0,square3,r,0.4,2,N,12.0
NS12,96.0,29.0,30.0,59.0,59.0,59,6306.0,square3,r,0.295,2,N,12.0
NS12,97.0,31.0,35.0,61.0,61.0,61,6367.0,square3,r,0.265,2,N,12.0
NS12,98.0,31.0,40.0,67.0,58.0,67,6434.0,square3,r,0.293,2,N,12.0
NS12,99.0,33.0,37.0,65.0,67.0,65,6499.0,square3,r,0.626,2,N,12.0
NS5,0.0,26.0,19.0,54.0,39.0,99999,0.0,invalid,,,-1,N,5.0
NS5,1.0,21.0,17.0,51.0,42.0,17,17.0,square2,j,0.933,1,N,5.0
NS5,2.0,19.0,17.0,52.0,42.0,52,69.0,square3,i,0.163,2,N,5.0
NS5,3.0,21.0,16.0,55.0,38.0,38,107.0,square4,f,0.276,3,N,5.0
NS5,4.0,14.0,26.0,52.0,44.0,14,121.0,square1,r,0.276,0,N,5.0
NS5,5.0,18.0,25.0,47.0,42.0,47,168.0,square3,i,0.274,2,N,5.0
NS5,6.0,23.0,21.0,54.0,38.0,21,189.0,square2,j,0.281,1,N,5.0
NS5,7.0,18.0,27.0,56.0,39.0,39,228.0,square4,f,0.275,3,N,5.0
NS5,8.0,18.0,28.0,57.0,40.0,18,246.0,square1,r,0.407,0,N,5.0
NS5,9.0,15.0,29.0,53.0,38.0,53,299.0,square3,i,0.292,2,N,5.0
NS5,10.0,13.0,26.0,56.0,41.0,56,355.0,square3,i,0.179,2,N,5.0
NS5,11.0,11.0,25.0,58.0,41.0,58,413.0,square3,i,0.093,2,N,5.0
NS5,12.0,9.0,22.0,53.0,40.0,53,466.0,square3,i,0.263,2,N,5.0
NS5,13.0,11.0,21.0,55.0,39.0,55,521.0,square3,i,0.129,2,N,5.0
NS5,14.0,12.0,17.0,49.0,38.0,49,570.0,square3,i,0.262,2,N,5.0
NS5,15.0,18.0,19.0,52.0,37.0,52,622.0,square3,i,0.126,2,N,5.0
NS5,16.0,18.0,20.0,49.0,40.0,40,662.0,square4,f,0.313,3,N,5.0
NS5,17.0,16.0,16.0,50.0,41.0,50,712.0,square3,i,0.269,2,N,5.0
NS5,18.0,16.0,18.0,51.0,43.0,18,730.0,square2,j,0.292,1,N,5.0
NS5,19.0,14.0,20.0,44.0,45.0,14,744.0,square1,r,0.278,0,N,5.0
NS5,20.0,19.0,21.0,42.0,48.0,42,786.0,square3,i,0.312,2,N,5.0
NS5,21.0,19.0,22.0,43.0,47.0,43,829.0,square3,i,0.429,2,N,5.0
NS5,22.0,17.0,15.0,43.0,47.0,43,872.0,square3,i,0.226,2,N,5.0
NS5,23.0,16.0,28.0,37.0,47.0,47,919.0,square4,f,0.313,3,N,5.0
NS5,24.0,20.0,21.0,38.0,49.0,38,957.0,square3,i,0.262,2,N,5.0
NS5,25.0,22.0,17.0,34.0,46.0,46,1003.0,square4,f,0.279,3,N,5.0
NS5,26.0,30.0,16.0,32.0,50.0,50,1053.0,square4,f,0.26,3,N,5.0
NS5,27.0,21.0,20.0,35.0,42.0,42,1095.0,square4,f,0.245,3,N,5.0
NS5,28.0,20.0,23.0,39.0,42.0,42,1137.0,square4,f,0.228,3,N,5.0
NS5,29.0,21.0,18.0,39.0,41.0,41,1178.0,square4,f,0.26,3,N,5.0
NS5,30.0,20.0,11.0,41.0,44.0,44,1222.0,square4,f,0.159,3,N,5.0
NS5,31.0,20.0,9.0,36.0,43.0,43,1265.0,square4,f,0.16,3,N,5.0
NS5,32.0,21.0,13.0,35.0,46.0,46,1311.0,square4,f,0.067,3,N,5.0
NS5,33.0,16.0,22.0,32.0,44.0,44,1355.0,square4,f,0.064,3,N,5.0
NS5,34.0,20.0,20.0,33.0,37.0,37,1392.0,square4,f,0.001,3,N,5.0
NS5,35.0,19.0,27.0,34.0,40.0,40,1432.0,square4,f,0.001,3,N,5.0
NS5,36.0,20.0,23.0,31.0,37.0,31,1463.0,square3,i,0.108,2,N,5.0
NS5,37.0,15.0,28.0,41.0,40.0,15,1478.0,square1,r,0.225,0,N,5.0
NS5,38.0,18.0,21.0,45.0,37.0,21,1499.0,square2,j,0.062,1,N,5.0
NS5,39.0,23.0,22.0,40.0,34.0,34,1533.0,square4,f,0.185,3,N,5.0
NS5,40.0,22.0,25.0,44.0,26.0,26,1559.0,square4,f,0.133,3,N,5.0
NS5,41.0,28.0,25.0,39.0,29.0,29,1588.0,square4,f,0.214,3,N,5.0
NS5,42.0,27.0,27.0,42.0,35.0,42,1630.0,square3,i,0.161,2,N,5.0
NS5,43.0,25.0,25.0,49.0,38.0,49,1679.0,square3,i,0.13,2,N,5.0
NS5,44.0,24.0,26.0,42.0,30.0,42,1721.0,square3,i,0.275,2,N,5.0
NS5,45.0,33.0,22.0,43.0,37.0,43,1764.0,square3,i,0.091,2,N,5.0
NS5,46.0,32.0,24.0,50.0,38.0,50,1814.0,square3,i,0.182,2,N,5.0
NS5,47.0,39.0,25.0,52.0,29.0,52,1866.0,square3,i,0.229,2,N,5.0
NS5,48.0,42.0,22.0,46.0,33.0,46,1912.0,square3,i,0.128,2,N,5.0
NS5,49.0,40.0,26.0,40.0,33.0,40,1952.0,square3,i,0.001,2,N,5.0
NS5,50.0,34.0,19.0,47.0,33.0,47,1999.0,square3,i,0.078,2,N,5.0
NS5,51.0,29.0,25.0,45.0,29.0,45,2044.0,square3,i,0.408,2,N,5.0
NS5,52.0,29.0,24.0,48.0,35.0,48,2092.0,square3,i,0.001,2,N,5.0
NS5,53.0,24.0,25.0,45.0,40.0,45,2137.0,square3,i,0.251,2,N,5.0
NS5,54.0,26.0,25.0,51.0,36.0,51,2188.0,square3,i,0.215,2,N,5.0
NS5,55.0,25.0,28.0,56.0,34.0,56,2244.0,square3,i,0.193,2,N,5.0
NS5,56.0,23.0,27.0,54.0,36.0,54,2298.0,square3,i,0.195,2,N,5.0
NS5,57.0,19.0,25.0,51.0,31.0,51,2349.0,square3,i,0.312,2,N,5.0
NS5,58.0,20.0,30.0,53.0,29.0,53,2402.0,square3,i,0.249,2,N,5.0
NS5,59.0,17.0,30.0,52.0,28.0,52,2454.0,square3,i,0.063,2,N,5.0
NS5,60.0,15.0,30.0,55.0,30.0,30,2484.0,square4,f,0.147,3,N,5.0
NS5,61.0,22.0,29.0,54.0,30.0,54,2538.0,square3,i,0.001,2,N,5.0
NS5,62.0,18.0,31.0,55.0,32.0,55,2593.0,square3,i,0.302,2,N,5.0
NS5,63.0,19.0,31.0,51.0,37.0,51,2644.0,square3,i,0.142,2,N,5.0
NS5,64.0,20.0,30.0,45.0,35.0,45,2689.0,square3,i,0.128,2,N,5.0
NS5,65.0,24.0,21.0,55.0,38.0,24,2713.0,square1,r,0.277,0,N,5.0
NS5,66.0,22.0,29.0,58.0,36.0,29,2742.0,square2,j,0.006,1,N,5.0
NS5,67.0,22.0,26.0,51.0,36.0,51,2793.0,square3,i,0.144,2,N,5.0
NS5,68.0,20.0,28.0,52.0,36.0,52,2845.0,square3,i,0.082,2,N,5.0
NS5,69.0,18.0,27.0,52.0,40.0,52,2897.0,square3,i,0.211,2,N,5.0
NS5,70.0,22.0,34.0,55.0,39.0,55,2952.0,square3,i,0.127,2,N,5.0
NS5,71.0,27.0,37.0,59.0,41.0,59,3011.0,square3,i,0.123,2,N,5.0
NS5,72.0,27.0,37.0,57.0,40.0,57,3068.0,square3,i,0.212,2,N,5.0
NS5,73.0,35.0,36.0,55.0,38.0,55,3123.0,square3,i,0.114,2,N,5.0
NS5,74.0,27.0,36.0,52.0,36.0,52,3175.0,square3,i,0.177,2,N,5.0
NS5,75.0,31.0,40.0,53.0,38.0,53,3228.0,square3,i,0.191,2,N,5.0
NS5,76.0,33.0,41.0,59.0,35.0,59,3287.0,square3,i,0.162,2,N,5.0
NS5,77.0,33.0,42.0,56.0,38.0,56,3343.0,square3,i,0.093,2,N,5.0
NS5,78.0,30.0,42.0,53.0,37.0,53,3396.0,square3,i,0.001,2,N,5.0
NS5,79.0,27.0,49.0,51.0,44.0,51,3447.0,square3,i,0.213,2,N,5.0
NS5,80.0,31.0,49.0,45.0,44.0,45,3492.0,square3,i,0.061,2,N,5.0
NS5,81.0,33.0,51.0,48.0,43.0,43,3535.0,square4,f,0.211,3,N,5.0
NS5,82.0,31.0,54.0,41.0,43.0,41,3576.0,square3,i,0.142,2,N,5.0
NS5,83.0,25.0,57.0,42.0,40.0,40,3616.0,square4,f,0.051,3,N,5.0
NS5,84.0,36.0,57.0,45.0,38.0,45,3661.0,square3,i,0.059,2,N,5.0
NS5,85.0,36.0,62.0,44.0,42.0,42,3703.0,square4,f,0.027,3,N,5.0
NS5,86.0,33.0,55.0,48.0,43.0,48,3751.0,square3,i,0.226,2,N,5.0
NS5,87.0,37.0,53.0,44.0,46.0,46,3797.0,square4,f,0.226,3,N,5.0
NS5,88.0,36.0,54.0,41.0,48.0,41,3838.0,square3,i,0.079,2,N,5.0
NS5,89.0,39.0,62.0,47.0,47.0,47,3885.0,square4,f,0.094,3,N,5.0
NS5,90.0,37.0,62.0,51.0,48.0,48,3933.0,square4,f,0.208,3,N,5.0
NS5,91.0,40.0,64.0,48.0,53.0,53,3986.0,square4,f,0.143,3,N,5.0
NS5,92.0,42.0,64.0,51.0,55.0,55,4041.0,square4,f,0.232,3,N,5.0
NS5,93.0,39.0,63.0,51.0,53.0,53,4094.0,square4,f,0.196,3,N,5.0
NS5,94.0,41.0,60.0,50.0,58.0,58,4152.0,square4,f,0.066,3,N,5.0
NS5,95.0,36.0,55.0,53.0,52.0,52,4204.0,square4,f,0.144,3,N,5.0
NS5,96.0,36.0,56.0,55.0,56.0,56,4260.0,square4,f,0.111,3,N,5.0
NS5,97.0,28.0,52.0,57.0,53.0,53,4313.0,square4,f,0.161,3,N,5.0
NS5,98.0,29.0,53.0,53.0,43.0,43,4356.0,square4,f,0.112,3,N,5.0
NS5,99.0,25.0,55.0,53.0,46.0,46,4402.0,square4,f,0.261,3,N,5.0
NS1,0.0,60.0,65.0,21.0,53.0,53,53.0,square4,r,0.863,3,N,1.0
NS1,1.0,56.0,62.0,31.0,51.0,56,109.0,square1,i,0.282,0,N,1.0
NS1,2.0,58.0,62.0,24.0,57.0,62,171.0,square2,f,0.245,1,N,1.0
NS1,3.0,56.0,58.0,33.0,58.0,33,204.0,square3,j,0.23,2,N,1.0
NS1,4.0,60.0,58.0,32.0,58.0,58,262.0,square2,f,0.259,1,N,1.0
NS1,5.0,56.0,59.0,31.0,54.0,56,318.0,square1,i,0.177,0,N,1.0
NS1,6.0,58.0,57.0,37.0,56.0,57,375.0,square2,f,0.1,1,N,1.0
NS1,7.0,57.0,53.0,37.0,57.0,57,432.0,square1,i,0.111,0,N,1.0
NS1,8.0,58.0,57.0,37.0,54.0,57,489.0,square2,f,0.042,1,N,1.0
NS1,9.0,53.0,50.0,36.0,55.0,55,544.0,square4,r,0.147,3,N,1.0
NS1,10.0,58.0,47.0,32.0,53.0,47,591.0,square2,f,0.231,1,N,1.0
NS1,11.0,55.0,44.0,34.0,53.0,53,644.0,square4,r,0.21,3,N,1.0
NS1,12.0,56.0,44.0,30.0,45.0,56,700.0,square1,i,0.066,0,N,1.0
NS1,13.0,60.0,47.0,34.0,48.0,48,748.0,square4,r,0.075,3,N,1.0
NS1,14.0,54.0,48.0,37.0,54.0,48,796.0,square2,f,0.09,1,N,1.0
NS1,15.0,53.0,44.0,35.0,51.0,51,847.0,square4,r,0.059,3,N,1.0
NS1,16.0,50.0,50.0,35.0,43.0,50,897.0,square1,i,0.323,0,N,1.0
NS1,17.0,53.0,46.0,35.0,44.0,44,941.0,square4,r,0.101,3,N,1.0
NS1,18.0,54.0,51.0,42.0,48.0,51,992.0,square2,f,0.042,1,N,1.0
NS1,19.0,62.0,51.0,44.0,53.0,53,1045.0,square4,r,0.077,3,N,1.0
NS1,20.0,63.0,47.0,42.0,47.0,63,1108.0,square1,i,0.001,0,N,1.0
NS1,21.0,67.0,51.0,41.0,46.0,46,1154.0,square4,r,0.094,3,N,1.0
NS1,22.0,75.0,44.0,45.0,43.0,44,1198.0,square2,f,0.161,1,N,1.0
NS1,23.0,64.0,42.0,41.0,47.0,47,1245.0,square4,r,0.001,3,N,1.0
NS1,24.0,68.0,41.0,39.0,49.0,68,1313.0,square1,i,0.077,0,N,1.0
NS1,25.0,71.0,43.0,33.0,42.0,71,1384.0,square1,i,0.06,0,N,1.0
NS1,26.0,70.0,41.0,26.0,45.0,70,1454.0,square1,i,0.062,0,N,1.0
NS1,27.0,72.0,42.0,34.0,48.0,72,1526.0,square1,i,0.042,0,N,1.0
NS1,28.0,71.0,41.0,33.0,45.0,71,1597.0,square1,i,0.106,0,N,1.0
NS1,29.0,77.0,42.0,31.0,48.0,77,1674.0,square1,i,0.195,0,N,1.0
NS1,30.0,73.0,41.0,33.0,51.0,73,1747.0,square1,i,0.209,0,N,1.0
NS1,31.0,71.0,44.0,35.0,48.0,71,1818.0,square1,i,0.042,0,N,1.0
NS1,32.0,81.0,47.0,33.0,50.0,81,1899.0,square1,i,0.209,0,N,1.0
NS1,33.0,75.0,50.0,27.0,42.0,75,1974.0,square1,i,0.148,0,N,1.0
NS1,34.0,71.0,49.0,27.0,44.0,71,2045.0,square1,i,0.065,0,N,1.0
NS1,35.0,69.0,47.0,23.0,47.0,69,2114.0,square1,i,0.061,0,N,1.0
NS1,36.0,71.0,50.0,32.0,45.0,71,2185.0,square1,i,0.131,0,N,1.0
NS1,37.0,66.0,48.0,33.0,52.0,66,2251.0,square1,i,0.13,0,N,1.0
NS1,38.0,64.0,50.0,34.0,51.0,64,2315.0,square1,i,0.062,0,N,1.0
NS1,39.0,65.0,49.0,25.0,47.0,65,2380.0,square1,i,0.191,0,N,1.0
NS1,40.0,66.0,46.0,23.0,50.0,50,2430.0,square4,r,0.195,3,N,1.0
NS1,41.0,68.0,45.0,22.0,50.0,45,2475.0,square2,f,0.066,1,N,1.0
NS1,42.0,74.0,41.0,28.0,50.0,74,2549.0,square1,i,0.194,0,N,1.0
NS1,43.0,69.0,42.0,27.0,52.0,69,2618.0,square1,i,0.094,0,N,1.0
NS1,44.0,71.0,38.0,32.0,49.0,71,2689.0,square1,i,0.005,0,N,1.0
NS1,45.0,68.0,38.0,30.0,55.0,68,2757.0,square1,i,0.179,0,N,1.0
NS1,46.0,66.0,39.0,30.0,56.0,66,2823.0,square1,i,0.18,0,N,1.0
NS1,47.0,62.0,35.0,31.0,50.0,62,2885.0,square1,i,0.142,0,N,1.0
NS1,48.0,68.0,31.0,32.0,49.0,68,2953.0,square1,i,0.017,0,N,1.0
NS1,49.0,66.0,33.0,35.0,46.0,66,3019.0,square1,i,0.043,0,N,1.0
NS1,50.0,64.0,30.0,32.0,46.0,64,3083.0,square1,i,0.002,0,N,1.0
NS1,51.0,66.0,35.0,39.0,43.0,66,3149.0,square1,i,0.24,0,N,1.0
NS1,52.0,67.0,33.0,37.0,49.0,67,3216.0,square1,i,0.001,0,N,1.0
NS1,53.0,70.0,32.0,35.0,47.0,70,3286.0,square1,i,0.025,0,N,1.0
NS1,54.0,62.0,40.0,28.0,43.0,62,3348.0,square1,i,0.001,0,N,1.0
NS1,55.0,66.0,39.0,26.0,43.0,66,3414.0,square1,i,0.059,0,N,1.0
NS1,56.0,64.0,38.0,26.0,44.0,64,3478.0,square1,i,0.041,0,N,1.0
NS1,57.0,63.0,41.0,24.0,48.0,63,3541.0,square1,i,0.019,0,N,1.0
NS1,58.0,67.0,49.0,24.0,48.0,67,3608.0,square1,i,0.127,0,N,1.0
NS1,59.0,57.0,51.0,27.0,43.0,57,3665.0,square1,i,0.042,0,N,1.0
NS1,60.0,56.0,51.0,31.0,42.0,56,3721.0,square1,i,0.026,0,N,1.0
NS1,61.0,55.0,50.0,25.0,49.0,55,3776.0,square1,i,0.093,0,N,1.0
NS1,62.0,55.0,51.0,27.0,50.0,55,3831.0,square1,i,0.077,0,N,1.0
NS1,63.0,53.0,51.0,27.0,50.0,53,3884.0,square1,i,0.001,0,N,1.0
NS1,64.0,53.0,56.0,27.0,50.0,53,3937.0,square1,i,0.095,0,N,1.0
NS1,65.0,49.0,56.0,26.0,49.0,49,3986.0,square1,i,0.181,0,N,1.0
NS1,66.0,47.0,61.0,29.0,50.0,50,4036.0,square4,r,0.125,3,N,1.0
NS1,67.0,47.0,56.0,27.0,50.0,56,4092.0,square2,f,0.043,1,N,1.0
NS1,68.0,47.0,64.0,29.0,48.0,48,4140.0,square4,r,0.103,3,N,1.0
NS1,69.0,54.0,67.0,24.0,53.0,54,4194.0,square1,i,0.145,0,N,1.0
NS1,70.0,44.0,70.0,21.0,48.0,70,4264.0,square2,f,0.047,1,N,1.0
NS1,71.0,45.0,67.0,26.0,52.0,67,4331.0,square2,f,0.015,1,N,1.0
NS1,72.0,44.0,64.0,22.0,49.0,64,4395.0,square2,f,0.06,1,N,1.0
NS1,73.0,43.0,60.0,23.0,51.0,60,4455.0,square2,f,0.178,1,N,1.0
NS1,74.0,47.0,59.0,26.0,57.0,59,4514.0,square2,f,0.157,1,N,1.0
NS1,75.0,44.0,56.0,27.0,51.0,51,4565.0,square4,r,0.658,3,N,1.0
NS1,76.0,34.0,55.0,21.0,52.0,34,4599.0,square1,i,0.276,0,N,1.0
NS1,77.0,39.0,64.0,17.0,55.0,17,4616.0,square3,j,0.024,2,N,1.0
NS1,78.0,38.0,64.0,25.0,52.0,64,4680.0,square2,f,0.266,1,N,1.0
NS1,79.0,40.0,65.0,24.0,54.0,54,4734.0,square4,r,0.04,3,N,1.0
NS1,80.0,44.0,66.0,21.0,53.0,44,4778.0,square1,i,0.001,0,N,1.0
NS1,81.0,50.0,60.0,27.0,54.0,60,4838.0,square2,f,0.211,1,N,1.0
NS1,82.0,43.0,62.0,20.0,57.0,62,4900.0,square2,f,0.108,1,N,1.0
NS1,83.0,44.0,55.0,24.0,59.0,55,4955.0,square2,f,0.159,1,N,1.0
NS1,84.0,41.0,51.0,28.0,61.0,61,5016.0,square4,r,0.111,3,N,1.0
NS1,85.0,49.0,49.0,29.0,70.0,49,5065.0,square1,i,0.093,0,N,1.0
NS1,86.0,47.0,44.0,26.0,66.0,66,5131.0,square4,r,0.208,3,N,1.0
NS1,87.0,48.0,48.0,23.0,68.0,68,5199.0,square4,r,0.095,3,N,1.0
NS1,88.0,46.0,51.0,20.0,70.0,70,5269.0,square4,r,0.018,3,N,1.0
NS1,89.0,45.0,50.0,17.0,75.0,75,5344.0,square4,r,0.074,3,N,1.0
NS1,90.0,50.0,48.0,18.0,74.0,74,5418.0,square4,r,0.066,3,N,1.0
NS1,91.0,46.0,53.0,17.0,67.0,67,5485.0,square4,r,0.115,3,N,1.0
NS1,92.0,38.0,56.0,22.0,65.0,65,5550.0,square4,r,0.061,3,N,1.0
NS1,93.0,38.0,53.0,22.0,66.0,66,5616.0,square4,r,0.195,3,N,1.0
NS1,94.0,42.0,49.0,24.0,72.0,72,5688.0,square4,r,0.044,3,N,1.0
NS1,95.0,44.0,48.0,25.0,70.0,70,5758.0,square4,r,0.224,3,N,1.0
NS1,96.0,35.0,50.0,21.0,67.0,67,5825.0,square4,r,0.094,3,N,1.0
NS1,97.0,43.0,55.0,16.0,72.0,72,5897.0,square4,r,0.079,3,N,1.0
NS1,98.0,46.0,50.0,21.0,73.0,73,5970.0,square4,r,0.001,3,N,1.0
NS1,99.0,43.0,46.0,27.0,71.0,71,6041.0,square4,r,0.015,3,N,1.0
V10,0.0,28.0,21.0,37.0,46.0,99999,0.0,invalid,,,-1,V,10.0
V10,1.0,26.0,19.0,41.0,49.0,26,26.0,square1,f,0.233,0,V,10.0
V10,2.0,29.0,20.0,43.0,48.0,43,69.0,square3,i,0.143,2,V,10.0
V10,3.0,27.0,27.0,37.0,44.0,27,96.0,square2,r,0.113,1,V,10.0
V10,4.0,28.0,16.0,36.0,47.0,47,143.0,square4,j,0.012,3,V,10.0
V10,5.0,33.0,25.0,42.0,54.0,42,185.0,square3,i,0.001,2,V,10.0
V10,6.0,28.0,19.0,35.0,45.0,45,230.0,square4,j,0.194,3,V,10.0
V10,7.0,30.0,24.0,35.0,49.0,35,265.0,square3,i,0.011,2,V,10.0
V10,8.0,37.0,29.0,41.0,47.0,37,302.0,square1,f,0.152,0,V,10.0
V10,9.0,28.0,21.0,41.0,48.0,21,323.0,square2,r,0.096,1,V,10.0
V10,10.0,27.0,22.0,39.0,42.0,39,362.0,square3,i,0.002,2,V,10.0
V10,11.0,32.0,16.0,41.0,48.0,48,410.0,square4,j,0.125,3,V,10.0
V10,12.0,34.0,15.0,33.0,49.0,33,443.0,square3,i,0.027,2,V,10.0
V10,13.0,36.0,19.0,41.0,45.0,45,488.0,square4,j,0.127,3,V,10.0
V10,14.0,28.0,23.0,35.0,53.0,53,541.0,square4,j,0.028,3,V,10.0
V10,15.0,26.0,28.0,40.0,50.0,50,591.0,square4,j,0.098,3,V,10.0
V10,16.0,30.0,25.0,42.0,47.0,47,638.0,square4,j,0.0,3,V,10.0
V10,17.0,31.0,19.0,38.0,50.0,50,688.0,square4,j,0.316,3,V,10.0
V10,18.0,34.0,21.0,35.0,48.0,48,736.0,square4,j,0.04,3,V,10.0
V10,19.0,31.0,24.0,39.0,46.0,46,782.0,square4,j,0.095,3,V,10.0
V10,20.0,28.0,22.0,42.0,47.0,47,829.0,square4,j,0.075,3,V,10.0
V10,21.0,24.0,20.0,41.0,47.0,24,853.0,square1,f,0.152,0,V,10.0
V10,22.0,32.0,22.0,34.0,44.0,34,887.0,square3,i,0.309,2,V,10.0
V10,23.0,29.0,23.0,37.0,47.0,47,934.0,square4,j,0.182,3,V,10.0
V10,24.0,25.0,25.0,38.0,46.0,46,980.0,square4,j,0.078,3,V,10.0
V10,25.0,30.0,24.0,41.0,45.0,45,1025.0,square4,j,0.095,3,V,10.0
V10,26.0,32.0,17.0,38.0,49.0,49,1074.0,square4,j,0.094,3,V,10.0
V10,27.0,34.0,21.0,38.0,47.0,47,1121.0,square4,j,0.041,3,V,10.0
V10,28.0,29.0,21.0,37.0,45.0,45,1166.0,square4,j,0.024,3,V,10.0
V10,29.0,30.0,20.0,31.0,47.0,47,1213.0,square4,j,0.112,3,V,10.0
V10,30.0,28.0,21.0,35.0,44.0,44,1257.0,square4,j,0.194,3,V,10.0
V10,31.0,36.0,25.0,14.0,8.0,8,1265.0,square4,j,0.226,3,V,10.0
V10,32.0,38.0,27.0,19.0,11.0,38,1303.0,square1,f,0.129,0,V,10.0
V10,33.0,39.0,21.0,20.0,13.0,20,1323.0,square3,i,0.025,2,V,10.0
V10,34.0,34.0,24.0,20.0,10.0,24,1347.0,square2,r,0.126,1,V,10.0
V10,35.0,44.0,29.0,17.0,11.0,44,1391.0,square1,f,0.0,0,V,10.0
V10,36.0,33.0,30.0,17.0,9.0,17,1408.0,square3,i,0.193,2,V,10.0
V10,37.0,31.0,27.0,12.0,6.0,31,1439.0,square1,f,0.142,0,V,10.0
V10,38.0,34.0,29.0,15.0,10.0,29,1468.0,square2,r,0.005,1,V,10.0
V10,39.0,35.0,21.0,19.0,5.0,35,1503.0,square1,f,0.094,0,V,10.0
V10,40.0,32.0,26.0,18.0,6.0,32,1535.0,square1,f,0.428,0,V,10.0
V10,41.0,34.0,32.0,13.0,9.0,9,1544.0,square4,j,0.001,3,V,10.0
V10,42.0,35.0,30.0,16.0,8.0,35,1579.0,square1,f,0.076,0,V,10.0
V10,43.0,38.0,32.0,16.0,8.0,38,1617.0,square1,f,0.125,0,V,10.0
V10,44.0,34.0,20.0,18.0,3.0,34,1651.0,square1,f,0.109,0,V,10.0
V10,45.0,38.0,22.0,23.0,9.0,38,1689.0,square1,f,0.069,0,V,10.0
V10,46.0,36.0,28.0,16.0,10.0,36,1725.0,square1,f,0.077,0,V,10.0
V10,47.0,36.0,27.0,13.0,8.0,36,1761.0,square1,f,0.084,0,V,10.0
V10,48.0,35.0,27.0,14.0,12.0,35,1796.0,square1,f,0.201,0,V,10.0
V10,49.0,33.0,28.0,16.0,10.0,33,1829.0,square1,f,0.014,0,V,10.0
V10,50.0,31.0,29.0,19.0,8.0,31,1860.0,square1,f,0.111,0,V,10.0
V10,51.0,32.0,21.0,20.0,12.0,32,1892.0,square1,f,0.093,0,V,10.0
V10,52.0,29.0,25.0,21.0,10.0,29,1921.0,square1,f,0.092,0,V,10.0
V10,53.0,39.0,29.0,23.0,2.0,29,1950.0,square2,r,0.299,1,V,10.0
V10,54.0,33.0,28.0,19.0,7.0,33,1983.0,square1,f,0.128,0,V,10.0
V10,55.0,34.0,24.0,15.0,8.0,15,1998.0,square3,i,0.026,2,V,10.0
V10,56.0,35.0,20.0,21.0,9.0,35,2033.0,square1,f,0.069,0,V,10.0
V10,57.0,33.0,27.0,19.0,7.0,7,2040.0,square4,j,0.001,3,V,10.0
V10,58.0,38.0,24.0,16.0,7.0,38,2078.0,square1,f,0.077,0,V,10.0
V10,59.0,34.0,29.0,15.0,5.0,34,2112.0,square1,f,0.091,0,V,10.0
V10,60.0,34.0,22.0,19.0,9.0,34,2146.0,square1,f,0.128,0,V,10.0
V10,61.0,39.0,31.0,20.0,10.0,39,2185.0,square1,f,0.007,0,V,10.0
V10,62.0,35.0,24.0,18.0,6.0,35,2220.0,square1,f,0.095,0,V,10.0
V10,63.0,35.0,26.0,18.0,9.0,35,2255.0,square1,f,0.245,0,V,10.0
V10,64.0,31.0,55.0,23.0,23.0,31,2286.0,square1,f,0.025,0,V,10.0
V10,65.0,35.0,50.0,22.0,27.0,35,2321.0,square1,f,0.202,0,V,10.0
V10,66.0,35.0,53.0,25.0,29.0,35,2356.0,square1,f,0.261,0,V,10.0
V10,67.0,38.0,44.0,17.0,29.0,38,2394.0,square1,f,0.161,0,V,10.0
V10,68.0,36.0,48.0,22.0,27.0,36,2430.0,square1,f,0.228,0,V,10.0
V10,69.0,41.0,53.0,17.0,28.0,53,2483.0,square2,r,0.0,1,V,10.0
V10,70.0,40.0,48.0,23.0,28.0,48,2531.0,square2,r,0.253,1,V,10.0
V10,71.0,39.0,43.0,24.0,20.0,43,2574.0,square2,r,0.178,1,V,10.0
V10,72.0,36.0,49.0,19.0,25.0,49,2623.0,square2,r,0.278,1,V,10.0
V10,73.0,39.0,49.0,23.0,32.0,49,2672.0,square2,r,0.168,1,V,10.0
V10,74.0,36.0,44.0,17.0,29.0,44,2716.0,square2,r,0.227,1,V,10.0
V10,75.0,37.0,46.0,20.0,30.0,46,2762.0,square2,r,0.073,1,V,10.0
V10,76.0,38.0,47.0,23.0,30.0,47,2809.0,square2,r,0.097,1,V,10.0
V10,77.0,36.0,49.0,22.0,32.0,49,2858.0,square2,r,0.109,1,V,10.0
V10,78.0,41.0,44.0,19.0,27.0,44,2902.0,square2,r,0.081,1,V,10.0
V10,79.0,41.0,48.0,22.0,27.0,48,2950.0,square2,r,0.195,1,V,10.0
V10,80.0,34.0,44.0,26.0,29.0,44,2994.0,square2,r,0.045,1,V,10.0
V10,81.0,38.0,47.0,18.0,29.0,47,3041.0,square2,r,0.234,1,V,10.0
V10,82.0,43.0,43.0,23.0,28.0,43,3084.0,square2,r,0.001,1,V,10.0
V10,83.0,34.0,51.0,23.0,26.0,51,3135.0,square2,r,0.041,1,V,10.0
V10,84.0,36.0,46.0,18.0,25.0,46,3181.0,square2,r,0.081,1,V,10.0
V10,85.0,39.0,46.0,25.0,26.0,46,3227.0,square2,r,0.211,1,V,10.0
V10,86.0,39.0,50.0,27.0,27.0,50,3277.0,square2,r,0.001,1,V,10.0
V10,87.0,38.0,46.0,20.0,30.0,46,3323.0,square2,r,0.142,1,V,10.0
V10,88.0,37.0,49.0,22.0,28.0,49,3372.0,square2,r,0.08,1,V,10.0
V10,89.0,34.0,51.0,25.0,26.0,51,3423.0,square2,r,0.099,1,V,10.0
V10,90.0,41.0,49.0,22.0,29.0,49,3472.0,square2,r,0.014,1,V,10.0
V10,91.0,37.0,45.0,26.0,32.0,45,3517.0,square2,r,0.127,1,V,10.0
V10,92.0,42.0,42.0,27.0,28.0,42,3559.0,square2,r,0.126,1,V,10.0
V10,93.0,41.0,48.0,19.0,36.0,19,3578.0,square3,i,0.177,2,V,10.0
V10,94.0,43.0,49.0,23.0,31.0,43,3621.0,square1,f,0.06,0,V,10.0
V10,95.0,39.0,46.0,18.0,27.0,46,3667.0,square2,r,0.112,1,V,10.0
V10,96.0,37.0,48.0,24.0,27.0,48,3715.0,square2,r,0.127,1,V,10.0
V10,97.0,42.0,50.0,23.0,31.0,50,3765.0,square2,r,0.143,1,V,10.0
V10,98.0,33.0,47.0,25.0,32.0,47,3812.0,square2,r,0.052,1,V,10.0
V10,99.0,39.0,48.0,23.0,32.0,48,3860.0,square2,r,0.168,1,V,10.0
V3,0.0,62.0,45.0,70.0,53.0,45,45.0,square2,j,1.666,1,V,3.0
V3,1.0,63.0,47.0,76.0,60.0,60,105.0,square4,f,0.211,3,V,3.0
V3,2.0,65.0,54.0,73.0,57.0,65,170.0,square1,i,0.158,0,V,3.0
V3,3.0,68.0,51.0,71.0,51.0,71,241.0,square3,r,0.124,2,V,3.0
V3,4.0,61.0,49.0,75.0,53.0,49,290.0,square2,j,0.394,1,V,3.0
V3,5.0,65.0,47.0,74.0,50.0,74,364.0,square3,r,0.196,2,V,3.0
V3,6.0,61.0,51.0,72.0,57.0,57,421.0,square4,f,0.142,3,V,3.0
V3,7.0,67.0,49.0,75.0,55.0,67,488.0,square1,i,0.109,0,V,3.0
V3,8.0,64.0,48.0,76.0,56.0,76,564.0,square3,r,0.26,2,V,3.0
V3,9.0,67.0,49.0,71.0,56.0,71,635.0,square3,r,0.093,2,V,3.0
V3,10.0,65.0,50.0,71.0,56.0,71,706.0,square3,r,0.034,2,V,3.0
V3,11.0,63.0,43.0,78.0,58.0,78,784.0,square3,r,0.078,2,V,3.0
V3,12.0,66.0,53.0,73.0,54.0,73,857.0,square3,r,0.093,2,V,3.0
V3,13.0,64.0,46.0,78.0,51.0,78,935.0,square3,r,0.015,2,V,3.0
V3,14.0,67.0,51.0,71.0,58.0,71,1006.0,square3,r,0.127,2,V,3.0
V3,15.0,61.0,50.0,73.0,54.0,73,1079.0,square3,r,0.111,2,V,3.0
V3,16.0,64.0,52.0,74.0,54.0,74,1153.0,square3,r,0.043,2,V,3.0
V3,17.0,61.0,48.0,74.0,55.0,74,1227.0,square3,r,0.062,2,V,3.0
V3,18.0,65.0,50.0,70.0,59.0,70,1297.0,square3,r,0.09,2,V,3.0
V3,19.0,64.0,52.0,76.0,56.0,76,1373.0,square3,r,0.078,2,V,3.0
V3,20.0,64.0,50.0,69.0,58.0,69,1442.0,square3,r,0.016,2,V,3.0
V3,21.0,66.0,50.0,72.0,56.0,72,1514.0,square3,r,0.444,2,V,3.0
V3,22.0,43.0,48.0,40.0,62.0,40,1554.0,square3,r,0.005,2,V,3.0
V3,23.0,41.0,51.0,35.0,59.0,59,1613.0,square4,f,0.192,3,V,3.0
V3,24.0,51.0,51.0,37.0,60.0,51,1664.0,square1,i,0.172,0,V,3.0
V3,25.0,45.0,53.0,36.0,57.0,57,1721.0,square4,f,0.228,3,V,3.0
V3,26.0,44.0,51.0,38.0,59.0,38,1759.0,square3,r,0.063,2,V,3.0
V3,27.0,43.0,51.0,34.0,66.0,51,1810.0,square2,j,0.191,1,V,3.0
V3,28.0,47.0,51.0,40.0,67.0,67,1877.0,square4,f,0.298,3,V,3.0
V3,29.0,42.0,55.0,35.0,65.0,65,1942.0,square4,f,0.144,3,V,3.0
V3,30.0,49.0,54.0,36.0,62.0,62,2004.0,square4,f,0.211,3,V,3.0
V3,31.0,50.0,53.0,42.0,66.0,66,2070.0,square4,f,0.346,3,V,3.0
V3,32.0,47.0,53.0,34.0,58.0,58,2128.0,square4,f,0.277,3,V,3.0
V3,33.0,45.0,56.0,34.0,62.0,62,2190.0,square4,f,0.385,3,V,3.0
V3,34.0,48.0,54.0,38.0,64.0,64,2254.0,square4,f,0.093,3,V,3.0
V3,35.0,39.0,55.0,42.0,65.0,65,2319.0,square4,f,0.061,3,V,3.0
V3,36.0,46.0,57.0,41.0,63.0,63,2382.0,square4,f,0.001,3,V,3.0
V3,37.0,43.0,54.0,41.0,65.0,65,2447.0,square4,f,0.003,3,V,3.0
V3,38.0,47.0,52.0,37.0,63.0,63,2510.0,square4,f,0.046,3,V,3.0
V3,39.0,47.0,53.0,38.0,55.0,55,2565.0,square4,f,0.016,3,V,3.0
V3,40.0,41.0,54.0,39.0,64.0,64,2629.0,square4,f,0.244,3,V,3.0
V3,41.0,48.0,52.0,38.0,64.0,64,2693.0,square4,f,0.194,3,V,3.0
V3,42.0,45.0,50.0,34.0,63.0,63,2756.0,square4,f,0.242,3,V,3.0
V3,43.0,44.0,50.0,34.0,62.0,62,2818.0,square4,f,0.029,3,V,3.0
V3,44.0,47.0,55.0,39.0,65.0,65,2883.0,square4,f,0.025,3,V,3.0
V3,45.0,45.0,55.0,31.0,63.0,63,2946.0,square4,f,0.182,3,V,3.0
V3,46.0,42.0,52.0,38.0,64.0,64,3010.0,square4,f,0.201,3,V,3.0
V3,47.0,44.0,53.0,37.0,55.0,55,3065.0,square4,f,0.275,3,V,3.0
V3,48.0,44.0,49.0,37.0,58.0,58,3123.0,square4,f,0.117,3,V,3.0
V3,49.0,48.0,58.0,35.0,54.0,35,3158.0,square3,r,0.135,2,V,3.0
V3,50.0,42.0,28.0,30.0,52.0,28,3186.0,square2,j,0.043,1,V,3.0
V3,51.0,46.0,29.0,32.0,51.0,46,3232.0,square1,i,0.125,0,V,3.0
V3,52.0,37.0,20.0,36.0,50.0,50,3282.0,square4,f,0.143,3,V,3.0
V3,53.0,44.0,22.0,34.0,55.0,55,3337.0,square4,f,0.012,3,V,3.0
V3,54.0,37.0,27.0,26.0,50.0,50,3387.0,square4,f,0.0,3,V,3.0
V3,55.0,41.0,21.0,39.0,53.0,53,3440.0,square4,f,0.211,3,V,3.0
V3,56.0,40.0,20.0,38.0,51.0,51,3491.0,square4,f,0.26,3,V,3.0
V3,57.0,44.0,28.0,31.0,57.0,57,3548.0,square4,f,0.391,3,V,3.0
V3,58.0,46.0,20.0,28.0,49.0,49,3597.0,square4,f,0.095,3,V,3.0
V3,59.0,44.0,24.0,30.0,55.0,30,3627.0,square3,r,0.146,2,V,3.0
V3,60.0,42.0,29.0,29.0,51.0,29,3656.0,square2,j,0.078,1,V,3.0
V3,61.0,41.0,21.0,30.0,46.0,41,3697.0,square1,i,0.172,0,V,3.0
V3,62.0,41.0,27.0,31.0,49.0,49,3746.0,square4,f,0.001,3,V,3.0
V3,63.0,42.0,27.0,34.0,51.0,51,3797.0,square4,f,0.215,3,V,3.0
V3,64.0,41.0,24.0,30.0,47.0,47,3844.0,square4,f,0.445,3,V,3.0
V3,65.0,36.0,18.0,34.0,48.0,48,3892.0,square4,f,0.359,3,V,3.0
V3,66.0,39.0,28.0,35.0,45.0,45,3937.0,square4,f,0.094,3,V,3.0
V3,67.0,42.0,21.0,32.0,46.0,46,3983.0,square4,f,0.651,3,V,3.0
V3,68.0,40.0,24.0,35.0,53.0,53,4036.0,square4,f,0.136,3,V,3.0
V3,69.0,48.0,23.0,34.0,50.0,50,4086.0,square4,f,0.413,3,V,3.0
V3,70.0,40.0,27.0,31.0,49.0,49,4135.0,square4,f,0.369,3,V,3.0
V3,71.0,41.0,23.0,28.0,51.0,28,4163.0,square3,r,0.142,2,V,3.0
V3,72.0,42.0,25.0,33.0,55.0,25,4188.0,square2,j,0.001,1,V,3.0
V3,73.0,41.0,24.0,35.0,55.0,41,4229.0,square1,i,0.182,0,V,3.0
V3,74.0,38.0,26.0,28.0,53.0,53,4282.0,square4,f,0.026,3,V,3.0
V3,75.0,54.0,39.0,69.0,50.0,50,4332.0,square4,f,0.034,3,V,3.0
V3,76.0,55.0,42.0,64.0,53.0,53,4385.0,square4,f,0.027,3,V,3.0
V3,77.0,59.0,37.0,66.0,44.0,44,4429.0,square4,f,0.126,3,V,3.0
V3,78.0,58.0,38.0,60.0,46.0,46,4475.0,square4,f,0.13,3,V,3.0
V3,79.0,54.0,35.0,66.0,49.0,49,4524.0,square4,f,0.128,3,V,3.0
V3,80.0,60.0,36.0,68.0,44.0,44,4568.0,square4,f,0.279,3,V,3.0
V3,81.0,55.0,38.0,66.0,51.0,51,4619.0,square4,f,0.006,3,V,3.0
V3,82.0,57.0,47.0,64.0,50.0,50,4669.0,square4,f,0.476,3,V,3.0
V3,83.0,57.0,37.0,63.0,45.0,45,4714.0,square4,f,0.325,3,V,3.0
V3,84.0,54.0,40.0,65.0,53.0,53,4767.0,square4,f,0.245,3,V,3.0
V3,85.0,58.0,41.0,63.0,48.0,48,4815.0,square4,f,0.043,3,V,3.0
V3,86.0,53.0,38.0,57.0,49.0,49,4864.0,square4,f,0.227,3,V,3.0
V3,87.0,49.0,42.0,60.0,43.0,43,4907.0,square4,f,0.157,3,V,3.0
V3,88.0,56.0,35.0,70.0,46.0,46,4953.0,square4,f,0.077,3,V,3.0
V3,89.0,58.0,39.0,63.0,52.0,52,5005.0,square4,f,0.127,3,V,3.0
V3,90.0,59.0,43.0,63.0,45.0,45,5050.0,square4,f,0.36,3,V,3.0
V3,91.0,54.0,37.0,69.0,49.0,49,5099.0,square4,f,0.141,3,V,3.0
V3,92.0,56.0,41.0,61.0,47.0,47,5146.0,square4,f,0.328,3,V,3.0
V3,93.0,58.0,35.0,68.0,47.0,47,5193.0,square4,f,0.0,3,V,3.0
V3,94.0,61.0,37.0,67.0,51.0,51,5244.0,square4,f,0.001,3,V,3.0
V3,95.0,57.0,32.0,64.0,47.0,47,5291.0,square4,f,0.244,3,V,3.0
V3,96.0,53.0,38.0,63.0,48.0,48,5339.0,square4,f,0.315,3,V,3.0
V3,97.0,57.0,44.0,71.0,50.0,50,5389.0,square4,f,0.313,3,V,3.0
V3,98.0,56.0,39.0,70.0,47.0,47,5436.0,square4,f,0.127,3,V,3.0
V3,99.0,62.0,40.0,67.0,49.0,49,5485.0,square4,f,0.045,3,V,3.0
V8,0.0,49.0,55.0,64.0,74.0,74,74.0,square4,r,1.914,3,V,8.0
V8,1.0,51.0,54.0,70.0,81.0,81,155.0,square4,r,0.061,3,V,8.0
V8,2.0,46.0,62.0,70.0,77.0,62,217.0,square2,i,0.029,1,V,8.0
V8,3.0,46.0,56.0,67.0,75.0,46,263.0,square1,f,0.114,0,V,8.0
V8,4.0,50.0,59.0,67.0,83.0,67,330.0,square3,j,0.152,2,V,8.0
V8,5.0,51.0,54.0,65.0,78.0,78,408.0,square4,r,0.136,3,V,8.0
V8,6.0,45.0,57.0,66.0,80.0,66,474.0,square3,j,0.214,2,V,8.0
V8,7.0,46.0,64.0,68.0,77.0,77,551.0,square4,r,0.017,3,V,8.0
V8,8.0,50.0,57.0,66.0,73.0,73,624.0,square4,r,0.178,3,V,8.0
V8,9.0,46.0,56.0,71.0,72.0,72,696.0,square4,r,0.126,3,V,8.0
V8,10.0,56.0,58.0,67.0,75.0,75,771.0,square4,r,0.024,3,V,8.0
V8,11.0,50.0,61.0,69.0,74.0,74,845.0,square4,r,0.108,3,V,8.0
V8,12.0,59.0,59.0,69.0,77.0,77,922.0,square4,r,0.127,3,V,8.0
V8,13.0,50.0,56.0,72.0,77.0,77,999.0,square4,r,0.177,3,V,8.0
V8,14.0,48.0,55.0,65.0,80.0,80,1079.0,square4,r,0.129,3,V,8.0
V8,15.0,48.0,58.0,65.0,76.0,76,1155.0,square4,r,0.11,3,V,8.0
V8,16.0,49.0,58.0,67.0,75.0,75,1230.0,square4,r,0.111,3,V,8.0
V8,17.0,51.0,56.0,68.0,76.0,76,1306.0,square4,r,0.128,3,V,8.0
V8,18.0,52.0,63.0,69.0,80.0,80,1386.0,square4,r,0.427,3,V,8.0
V8,19.0,54.0,54.0,71.0,79.0,79,1465.0,square4,r,0.195,3,V,8.0
V8,20.0,48.0,53.0,62.0,77.0,77,1542.0,square4,r,0.108,3,V,8.0
V8,21.0,44.0,61.0,66.0,77.0,77,1619.0,square4,r,0.143,3,V,8.0
V8,22.0,52.0,58.0,64.0,78.0,78,1697.0,square4,r,0.145,3,V,8.0
V8,23.0,50.0,49.0,67.0,79.0,79,1776.0,square4,r,0.127,3,V,8.0
V8,24.0,49.0,59.0,69.0,74.0,74,1850.0,square4,r,0.136,3,V,8.0
V8,25.0,46.0,61.0,65.0,81.0,81,1931.0,square4,r,0.212,3,V,8.0
V8,26.0,49.0,58.0,63.0,35.0,35,1966.0,square4,r,0.143,3,V,8.0
V8,27.0,48.0,51.0,66.0,41.0,41,2007.0,square4,r,0.112,3,V,8.0
V8,28.0,46.0,55.0,65.0,38.0,46,2053.0,square1,f,0.296,0,V,8.0
V8,29.0,47.0,58.0,69.0,40.0,69,2122.0,square3,j,0.193,2,V,8.0
V8,30.0,42.0,55.0,67.0,43.0,55,2177.0,square2,i,0.293,1,V,8.0
V8,31.0,49.0,56.0,64.0,36.0,64,2241.0,square3,j,0.061,2,V,8.0
V8,32.0,49.0,55.0,69.0,38.0,69,2310.0,square3,j,0.161,2,V,8.0
V8,33.0,44.0,52.0,65.0,48.0,65,2375.0,square3,j,0.059,2,V,8.0
V8,34.0,44.0,57.0,70.0,45.0,70,2445.0,square3,j,0.06,2,V,8.0
V8,35.0,44.0,54.0,68.0,38.0,68,2513.0,square3,j,0.127,2,V,8.0
V8,36.0,45.0,56.0,64.0,40.0,64,2577.0,square3,j,0.175,2,V,8.0
V8,37.0,47.0,57.0,66.0,37.0,66,2643.0,square3,j,0.181,2,V,8.0
V8,38.0,49.0,50.0,66.0,37.0,66,2709.0,square3,j,0.149,2,V,8.0
V8,39.0,51.0,56.0,61.0,39.0,61,2770.0,square3,j,0.143,2,V,8.0
V8,40.0,47.0,59.0,66.0,41.0,66,2836.0,square3,j,0.006,2,V,8.0
V8,41.0,42.0,56.0,69.0,42.0,69,2905.0,square3,j,0.228,2,V,8.0
V8,42.0,47.0,57.0,72.0,35.0,72,2977.0,square3,j,0.09,2,V,8.0
V8,43.0,47.0,57.0,63.0,44.0,63,3040.0,square3,j,0.109,2,V,8.0
V8,44.0,45.0,58.0,67.0,42.0,67,3107.0,square3,j,0.129,2,V,8.0
V8,45.0,44.0,56.0,66.0,43.0,66,3173.0,square3,j,0.194,2,V,8.0
V8,46.0,46.0,53.0,70.0,37.0,70,3243.0,square3,j,0.216,2,V,8.0
V8,47.0,54.0,53.0,71.0,41.0,71,3314.0,square3,j,0.001,2,V,8.0
V8,48.0,49.0,53.0,69.0,37.0,69,3383.0,square3,j,0.244,2,V,8.0
V8,49.0,39.0,57.0,65.0,47.0,65,3448.0,square3,j,0.161,2,V,8.0
V8,50.0,48.0,55.0,65.0,41.0,65,3513.0,square3,j,0.045,2,V,8.0
V8,51.0,45.0,61.0,68.0,43.0,68,3581.0,square3,j,0.102,2,V,8.0
V8,52.0,53.0,52.0,68.0,37.0,68,3649.0,square3,j,0.128,2,V,8.0
V8,53.0,47.0,55.0,66.0,46.0,66,3715.0,square3,j,0.0,2,V,8.0
V8,54.0,49.0,53.0,61.0,39.0,61,3776.0,square3,j,0.043,2,V,8.0
V8,55.0,53.0,70.0,55.0,72.0,55,3831.0,square3,j,0.156,2,V,8.0
V8,56.0,57.0,63.0,48.0,73.0,48,3879.0,square3,j,0.095,2,V,8.0
V8,57.0,53.0,71.0,45.0,80.0,45,3924.0,square3,j,0.241,2,V,8.0
V8,58.0,57.0,69.0,52.0,73.0,69,3993.0,square2,i,0.167,1,V,8.0
V8,59.0,58.0,67.0,54.0,73.0,58,4051.0,square1,f,0.227,0,V,8.0
V8,60.0,55.0,66.0,47.0,76.0,76,4127.0,square4,r,0.095,3,V,8.0
V8,61.0,56.0,65.0,54.0,72.0,72,4199.0,square4,r,0.374,3,V,8.0
V8,62.0,56.0,65.0,49.0,75.0,75,4274.0,square4,r,0.143,3,V,8.0
V8,63.0,61.0,65.0,44.0,78.0,78,4352.0,square4,r,0.094,3,V,8.0
V8,64.0,54.0,66.0,48.0,75.0,75,4427.0,square4,r,0.124,3,V,8.0
V8,65.0,59.0,65.0,46.0,79.0,79,4506.0,square4,r,0.044,3,V,8.0
V8,66.0,51.0,62.0,46.0,73.0,73,4579.0,square4,r,0.194,3,V,8.0
V8,67.0,60.0,70.0,45.0,76.0,76,4655.0,square4,r,0.001,3,V,8.0
V8,68.0,63.0,64.0,47.0,73.0,73,4728.0,square4,r,0.175,3,V,8.0
V8,69.0,58.0,66.0,43.0,77.0,77,4805.0,square4,r,0.064,3,V,8.0
V8,70.0,59.0,65.0,49.0,73.0,73,4878.0,square4,r,0.131,3,V,8.0
V8,71.0,60.0,64.0,49.0,79.0,79,4957.0,square4,r,0.097,3,V,8.0
V8,72.0,96.0,68.0,78.0,67.0,67,5024.0,square4,r,0.143,3,V,8.0
V8,73.0,96.0,68.0,79.0,64.0,64,5088.0,square4,r,0.06,3,V,8.0
V8,74.0,92.0,67.0,81.0,62.0,62,5150.0,square4,r,0.026,3,V,8.0
V8,75.0,96.0,72.0,83.0,62.0,83,5233.0,square3,j,0.076,2,V,8.0
V8,76.0,94.0,70.0,77.0,57.0,77,5310.0,square3,j,0.0,2,V,8.0
V8,77.0,91.0,68.0,81.0,59.0,81,5391.0,square3,j,0.107,2,V,8.0
V8,78.0,90.0,73.0,80.0,63.0,80,5471.0,square3,j,0.099,2,V,8.0
V8,79.0,90.0,73.0,83.0,61.0,83,5554.0,square3,j,0.144,2,V,8.0
V8,80.0,95.0,75.0,81.0,66.0,81,5635.0,square3,j,0.115,2,V,8.0
V8,81.0,92.0,72.0,81.0,57.0,81,5716.0,square3,j,0.127,2,V,8.0
V8,82.0,91.0,71.0,80.0,61.0,80,5796.0,square3,j,0.124,2,V,8.0
V8,83.0,90.0,66.0,83.0,62.0,83,5879.0,square3,j,0.0,2,V,8.0
V8,84.0,93.0,67.0,87.0,65.0,87,5966.0,square3,j,0.146,2,V,8.0
V8,85.0,85.0,70.0,80.0,62.0,80,6046.0,square3,j,0.107,2,V,8.0
V8,86.0,84.0,72.0,85.0,62.0,85,6131.0,square3,j,0.328,2,V,8.0
V8,87.0,91.0,68.0,82.0,65.0,82,6213.0,square3,j,0.139,2,V,8.0
V8,88.0,93.0,67.0,83.0,61.0,83,6296.0,square3,j,0.078,2,V,8.0
V8,89.0,95.0,68.0,78.0,66.0,78,6374.0,square3,j,0.112,2,V,8.0
V8,90.0,91.0,73.0,80.0,60.0,80,6454.0,square3,j,0.123,2,V,8.0
V8,91.0,93.0,68.0,81.0,64.0,81,6535.0,square3,j,0.04,2,V,8.0
V8,92.0,90.0,75.0,82.0,67.0,82,6617.0,square3,j,0.108,2,V,8.0
V8,93.0,92.0,70.0,82.0,66.0,82,6699.0,square3,j,0.075,2,V,8.0
V8,94.0,90.0,71.0,78.0,63.0,78,6777.0,square3,j,0.001,2,V,8.0
V8,95.0,88.0,65.0,78.0,63.0,78,6855.0,square3,j,0.076,2,V,8.0
V8,96.0,89.0,72.0,85.0,62.0,85,6940.0,square3,j,0.065,2,V,8.0
V8,97.0,92.0,72.0,77.0,67.0,77,7017.0,square3,j,0.162,2,V,8.0
V8,98.0,86.0,63.0,82.0,62.0,82,7099.0,square3,j,0.024,2,V,8.0
V8,99.0,90.0,66.0,75.0,61.0,75,7174.0,square3,j,0.145,2,V,8.0
