block,Trial,square1,square2,square3,square4,currPoints,totalPoints,square,choiceKey.keys,choiceKey.rt,armNum,blockType,blockNum
prac,0.0,100.0,0.0,0.0,0.0,0.0,0.0,square2,,,1,p,0.0
prac,1.0,100.0,0.0,0.0,0.0,0.0,0.0,square3,,,2,p,0.0
prac,2.0,100.0,0.0,0.0,0.0,100.0,100.0,square1,,,0,p,0.0
prac,3.0,100.0,0.0,0.0,0.0,0.0,100.0,square4,,,3,p,0.0
prac,4.0,100.0,0.0,0.0,0.0,100.0,200.0,square1,,,0,p,0.0
prac,5.0,100.0,0.0,0.0,0.0,100.0,300.0,square1,,,0,p,0.0
prac,6.0,100.0,0.0,0.0,0.0,100.0,400.0,square1,,,0,p,0.0
prac,7.0,100.0,0.0,0.0,0.0,100.0,500.0,square1,,,0,p,0.0
prac,8.0,100.0,0.0,0.0,0.0,100.0,600.0,square1,,,0,p,0.0
prac,9.0,100.0,0.0,0.0,0.0,100.0,700.0,square1,,,0,p,0.0
S8,0.0,58.0,60.0,52.0,45.0,45.0,45.0,square4,r,0.969,3,S,8.0
S8,1.0,55.0,57.0,56.0,52.0,52.0,97.0,square4,r,0.521,3,S,8.0
S8,2.0,54.0,58.0,58.0,49.0,49.0,146.0,square4,r,0.393,3,S,8.0
S8,3.0,55.0,62.0,52.0,53.0,53.0,199.0,square4,r,0.533,3,S,8.0
S8,4.0,55.0,60.0,49.0,51.0,51.0,250.0,square4,r,0.493,3,S,8.0
S8,5.0,48.0,63.0,61.0,49.0,49.0,299.0,square4,r,0.321,3,S,8.0
S8,6.0,58.0,63.0,59.0,55.0,55.0,354.0,square4,r,0.625,3,S,8.0
S8,7.0,56.0,53.0,49.0,51.0,51.0,405.0,square4,r,0.403,3,S,8.0
S8,8.0,61.0,63.0,66.0,49.0,61.0,466.0,square1,j,0.356,0,S,8.0
S8,9.0,60.0,59.0,53.0,47.0,53.0,519.0,square3,f,0.615,2,S,8.0
S8,10.0,55.0,63.0,52.0,55.0,63.0,582.0,square2,i,0.464,1,S,8.0
S8,11.0,62.0,60.0,54.0,50.0,60.0,642.0,square2,i,0.295,1,S,8.0
S8,12.0,58.0,64.0,51.0,52.0,64.0,706.0,square2,i,0.281,1,S,8.0
S8,13.0,62.0,59.0,53.0,53.0,59.0,765.0,square2,i,0.326,1,S,8.0
S8,14.0,51.0,62.0,61.0,54.0,51.0,816.0,square1,j,0.307,0,S,8.0
S8,15.0,56.0,68.0,56.0,50.0,68.0,884.0,square2,i,0.294,1,S,8.0
S8,16.0,58.0,64.0,56.0,50.0,64.0,948.0,square2,i,0.224,1,S,8.0
S8,17.0,64.0,63.0,60.0,42.0,63.0,1011.0,square2,i,0.0,1,S,8.0
S8,18.0,54.0,64.0,57.0,55.0,64.0,1075.0,square2,i,0.722,1,S,8.0
S8,19.0,56.0,53.0,57.0,53.0,53.0,1128.0,square2,i,0.334,1,S,8.0
S8,20.0,59.0,64.0,56.0,49.0,49.0,1177.0,square4,r,0.293,3,S,8.0
S8,21.0,54.0,59.0,55.0,48.0,55.0,1232.0,square3,f,0.113,2,S,8.0
S8,22.0,63.0,63.0,59.0,49.0,59.0,1291.0,square3,f,0.269,2,S,8.0
S8,23.0,59.0,60.0,48.0,52.0,48.0,1339.0,square3,f,0.156,2,S,8.0
S8,24.0,55.0,53.0,60.0,50.0,53.0,1392.0,square2,i,0.246,1,S,8.0
S8,25.0,57.0,60.0,55.0,54.0,60.0,1452.0,square2,i,0.258,1,S,8.0
S8,26.0,62.0,66.0,57.0,58.0,66.0,1518.0,square2,i,0.192,1,S,8.0
S8,27.0,58.0,55.0,52.0,48.0,55.0,1573.0,square2,i,0.194,1,S,8.0
S8,28.0,53.0,59.0,53.0,55.0,59.0,1632.0,square2,i,0.397,1,S,8.0
S8,29.0,60.0,58.0,57.0,53.0,58.0,1690.0,square2,i,0.165,1,S,8.0
S8,30.0,57.0,67.0,52.0,56.0,67.0,1757.0,square2,i,0.309,1,S,8.0
S8,31.0,60.0,58.0,52.0,50.0,58.0,1815.0,square2,i,0.155,1,S,8.0
S8,32.0,54.0,61.0,56.0,57.0,61.0,1876.0,square2,i,0.325,1,S,8.0
S8,33.0,66.0,64.0,63.0,52.0,64.0,1940.0,square2,i,0.241,1,S,8.0
S8,34.0,54.0,65.0,66.0,56.0,65.0,2005.0,square2,i,0.099,1,S,8.0
S8,35.0,54.0,62.0,61.0,48.0,62.0,2067.0,square2,i,0.224,1,S,8.0
S8,36.0,53.0,63.0,54.0,55.0,63.0,2130.0,square2,i,0.135,1,S,8.0
S8,37.0,64.0,58.0,57.0,51.0,58.0,2188.0,square2,i,0.195,1,S,8.0
S8,38.0,68.0,65.0,59.0,57.0,65.0,2253.0,square2,i,0.311,1,S,8.0
S8,39.0,64.0,65.0,51.0,55.0,65.0,2318.0,square2,i,0.116,1,S,8.0
S8,40.0,63.0,61.0,57.0,47.0,61.0,2379.0,square2,i,0.111,1,S,8.0
S8,41.0,65.0,58.0,55.0,49.0,58.0,2437.0,square2,i,0.06,1,S,8.0
S8,42.0,52.0,60.0,51.0,56.0,56.0,2493.0,square4,r,0.7,3,S,8.0
S8,43.0,63.0,57.0,48.0,50.0,50.0,2543.0,square4,r,0.254,3,S,8.0
S8,44.0,59.0,63.0,53.0,53.0,53.0,2596.0,square4,r,0.096,3,S,8.0
S8,45.0,62.0,62.0,60.0,53.0,53.0,2649.0,square4,r,0.192,3,S,8.0
S8,46.0,56.0,62.0,57.0,60.0,57.0,2706.0,square3,f,0.279,2,S,8.0
S8,47.0,60.0,63.0,58.0,56.0,60.0,2766.0,square1,j,0.361,0,S,8.0
S8,48.0,59.0,63.0,49.0,53.0,59.0,2825.0,square1,j,0.31,0,S,8.0
S8,49.0,67.0,67.0,59.0,55.0,67.0,2892.0,square2,i,0.309,1,S,8.0
S4,0.0,18.0,16.0,34.0,20.0,16.0,16.0,square2,r,1.571,1,S,4.0
S4,1.0,33.0,26.0,26.0,23.0,26.0,42.0,square3,i,0.577,2,S,4.0
S4,2.0,35.0,15.0,33.0,22.0,35.0,77.0,square1,f,0.168,0,S,4.0
S4,3.0,28.0,19.0,27.0,27.0,27.0,104.0,square4,j,0.244,3,S,4.0
S4,4.0,27.0,16.0,25.0,28.0,27.0,131.0,square1,f,0.248,0,S,4.0
S4,5.0,23.0,22.0,31.0,24.0,23.0,154.0,square1,f,0.257,0,S,4.0
S4,6.0,25.0,20.0,34.0,23.0,25.0,179.0,square1,f,0.327,0,S,4.0
S4,7.0,21.0,22.0,30.0,21.0,21.0,200.0,square1,f,0.021,0,S,4.0
S4,8.0,33.0,24.0,33.0,17.0,33.0,233.0,square3,i,0.226,2,S,4.0
S4,9.0,24.0,18.0,31.0,28.0,31.0,264.0,square3,i,0.224,2,S,4.0
S4,10.0,31.0,26.0,35.0,20.0,35.0,299.0,square3,i,0.165,2,S,4.0
S4,11.0,25.0,15.0,31.0,25.0,31.0,330.0,square3,i,0.243,2,S,4.0
S4,12.0,24.0,16.0,29.0,22.0,29.0,359.0,square3,i,0.224,2,S,4.0
S4,13.0,28.0,23.0,25.0,17.0,25.0,384.0,square3,i,0.298,2,S,4.0
S4,14.0,22.0,23.0,21.0,23.0,23.0,407.0,square2,r,0.444,1,S,4.0
S4,15.0,25.0,19.0,28.0,25.0,25.0,432.0,square4,j,0.09,3,S,4.0
S4,16.0,26.0,17.0,30.0,21.0,21.0,453.0,square4,j,0.145,3,S,4.0
S4,17.0,22.0,21.0,29.0,22.0,29.0,482.0,square3,i,0.709,2,S,4.0
S4,18.0,28.0,22.0,32.0,22.0,32.0,514.0,square3,i,0.094,2,S,4.0
S4,19.0,26.0,19.0,31.0,26.0,31.0,545.0,square3,i,0.245,2,S,4.0
S4,20.0,28.0,18.0,28.0,25.0,28.0,573.0,square3,i,0.0,2,S,4.0
S4,21.0,33.0,26.0,21.0,29.0,21.0,594.0,square3,i,0.446,2,S,4.0
S4,22.0,31.0,19.0,29.0,20.0,29.0,623.0,square3,i,0.257,2,S,4.0
S4,23.0,27.0,21.0,36.0,26.0,36.0,659.0,square3,i,0.184,2,S,4.0
S4,24.0,28.0,15.0,32.0,21.0,32.0,691.0,square3,i,0.547,2,S,4.0
S4,25.0,27.0,18.0,28.0,25.0,28.0,719.0,square3,i,0.275,2,S,4.0
S4,26.0,26.0,20.0,27.0,14.0,26.0,745.0,square1,f,0.145,0,S,4.0
S4,27.0,28.0,19.0,36.0,18.0,28.0,773.0,square1,f,0.161,0,S,4.0
S4,28.0,28.0,19.0,28.0,23.0,28.0,801.0,square1,f,0.124,0,S,4.0
S4,29.0,25.0,22.0,29.0,23.0,29.0,830.0,square3,i,0.495,2,S,4.0
S4,30.0,26.0,16.0,30.0,20.0,30.0,860.0,square3,i,0.044,2,S,4.0
S4,31.0,23.0,25.0,26.0,30.0,26.0,886.0,square3,i,0.145,2,S,4.0
S4,32.0,21.0,26.0,22.0,23.0,22.0,908.0,square3,i,0.126,2,S,4.0
S4,33.0,25.0,22.0,24.0,17.0,22.0,930.0,square2,r,0.517,1,S,4.0
S4,34.0,30.0,22.0,33.0,24.0,30.0,960.0,square1,f,0.7,0,S,4.0
S4,35.0,23.0,21.0,35.0,26.0,23.0,983.0,square1,f,0.445,0,S,4.0
S4,36.0,19.0,21.0,33.0,24.0,24.0,1007.0,square4,j,0.499,3,S,4.0
S4,37.0,20.0,17.0,26.0,26.0,26.0,1033.0,square4,j,0.002,3,S,4.0
S4,38.0,28.0,20.0,28.0,26.0,26.0,1059.0,square4,j,0.216,3,S,4.0
S4,39.0,28.0,23.0,40.0,27.0,40.0,1099.0,square3,i,0.723,2,S,4.0
S4,40.0,25.0,24.0,32.0,22.0,32.0,1131.0,square3,i,0.791,2,S,4.0
S4,41.0,23.0,23.0,26.0,17.0,26.0,1157.0,square3,i,0.232,2,S,4.0
S4,42.0,26.0,18.0,33.0,22.0,33.0,1190.0,square3,i,0.225,2,S,4.0
S4,43.0,22.0,21.0,36.0,25.0,36.0,1226.0,square3,i,0.201,2,S,4.0
S4,44.0,21.0,18.0,33.0,14.0,33.0,1259.0,square3,i,0.298,2,S,4.0
S4,45.0,29.0,19.0,30.0,29.0,30.0,1289.0,square3,i,0.094,2,S,4.0
S4,46.0,21.0,16.0,22.0,23.0,22.0,1311.0,square3,i,0.104,2,S,4.0
S4,47.0,22.0,18.0,28.0,22.0,22.0,1333.0,square1,f,0.263,0,S,4.0
S4,48.0,33.0,21.0,32.0,26.0,26.0,1359.0,square4,j,0.331,3,S,4.0
S4,49.0,23.0,17.0,20.0,21.0,20.0,1379.0,square3,i,0.299,2,S,4.0
S10,0.0,72.0,76.0,80.0,64.0,72.0,72.0,square1,i,0.926,0,S,10.0
S10,1.0,76.0,75.0,74.0,65.0,76.0,148.0,square1,i,0.274,0,S,10.0
S10,2.0,70.0,72.0,79.0,74.0,70.0,218.0,square1,i,0.242,0,S,10.0
S10,3.0,69.0,77.0,76.0,68.0,69.0,287.0,square1,i,0.082,0,S,10.0
S10,4.0,72.0,79.0,77.0,70.0,72.0,359.0,square1,i,0.214,0,S,10.0
S10,5.0,68.0,74.0,72.0,64.0,68.0,427.0,square1,i,0.25,0,S,10.0
S10,6.0,70.0,77.0,72.0,62.0,62.0,489.0,square4,r,0.027,3,S,10.0
S10,7.0,78.0,81.0,80.0,74.0,74.0,563.0,square4,r,0.234,3,S,10.0
S10,8.0,78.0,78.0,82.0,66.0,66.0,629.0,square4,r,0.068,3,S,10.0
S10,9.0,69.0,76.0,77.0,65.0,65.0,694.0,square4,r,0.609,3,S,10.0
S10,10.0,72.0,78.0,72.0,75.0,78.0,772.0,square2,f,0.236,1,S,10.0
S10,11.0,71.0,76.0,78.0,66.0,76.0,848.0,square2,f,0.24,1,S,10.0
S10,12.0,73.0,83.0,79.0,69.0,83.0,931.0,square2,f,0.49,1,S,10.0
S10,13.0,68.0,77.0,65.0,65.0,77.0,1008.0,square2,f,0.058,1,S,10.0
S10,14.0,69.0,84.0,79.0,65.0,84.0,1092.0,square2,f,0.583,1,S,10.0
S10,15.0,72.0,84.0,70.0,71.0,84.0,1176.0,square2,f,0.031,1,S,10.0
S10,16.0,79.0,80.0,82.0,67.0,80.0,1256.0,square2,f,0.463,1,S,10.0
S10,17.0,69.0,83.0,75.0,70.0,75.0,1331.0,square3,j,1.742,2,S,10.0
S10,18.0,69.0,75.0,69.0,68.0,69.0,1400.0,square3,j,0.129,2,S,10.0
S10,19.0,70.0,83.0,73.0,66.0,83.0,1483.0,square2,f,0.153,1,S,10.0
S10,20.0,69.0,83.0,75.0,66.0,83.0,1566.0,square2,f,0.064,1,S,10.0
S10,21.0,77.0,70.0,75.0,70.0,70.0,1636.0,square2,f,0.532,1,S,10.0
S10,22.0,73.0,77.0,81.0,69.0,77.0,1713.0,square2,f,0.149,1,S,10.0
S10,23.0,73.0,78.0,70.0,65.0,70.0,1783.0,square3,j,0.429,2,S,10.0
S10,24.0,70.0,80.0,75.0,66.0,66.0,1849.0,square4,r,0.078,3,S,10.0
S10,25.0,70.0,80.0,73.0,72.0,70.0,1919.0,square1,i,0.713,0,S,10.0
S10,26.0,73.0,75.0,73.0,75.0,73.0,1992.0,square1,i,0.066,0,S,10.0
S10,27.0,77.0,81.0,83.0,66.0,77.0,2069.0,square1,i,1.212,0,S,10.0
S10,28.0,73.0,79.0,79.0,73.0,79.0,2148.0,square2,f,0.049,1,S,10.0
S10,29.0,73.0,79.0,72.0,69.0,79.0,2227.0,square2,f,0.026,1,S,10.0
S10,30.0,71.0,85.0,79.0,69.0,85.0,2312.0,square2,f,0.564,1,S,10.0
S10,31.0,71.0,85.0,83.0,66.0,85.0,2397.0,square2,f,0.036,1,S,10.0
S10,32.0,78.0,79.0,77.0,65.0,79.0,2476.0,square2,f,0.397,1,S,10.0
S10,33.0,83.0,79.0,72.0,68.0,79.0,2555.0,square2,f,0.476,1,S,10.0
S10,34.0,68.0,74.0,79.0,72.0,74.0,2629.0,square2,f,0.504,1,S,10.0
S10,35.0,70.0,83.0,79.0,67.0,83.0,2712.0,square2,f,0.042,1,S,10.0
S10,36.0,67.0,76.0,75.0,72.0,76.0,2788.0,square2,f,0.001,1,S,10.0
S10,37.0,76.0,82.0,79.0,60.0,82.0,2870.0,square2,f,0.536,1,S,10.0
S10,38.0,72.0,75.0,69.0,68.0,75.0,2945.0,square2,f,0.377,1,S,10.0
S10,39.0,73.0,78.0,76.0,70.0,78.0,3023.0,square2,f,0.229,1,S,10.0
S10,40.0,76.0,77.0,66.0,60.0,77.0,3100.0,square2,f,0.075,1,S,10.0
S10,41.0,74.0,83.0,73.0,67.0,83.0,3183.0,square2,f,0.463,1,S,10.0
S10,42.0,72.0,69.0,80.0,63.0,69.0,3252.0,square2,f,0.104,1,S,10.0
S10,43.0,69.0,74.0,72.0,68.0,74.0,3326.0,square2,f,0.028,1,S,10.0
S10,44.0,67.0,76.0,70.0,65.0,70.0,3396.0,square3,j,0.078,2,S,10.0
S10,45.0,76.0,81.0,74.0,72.0,74.0,3470.0,square3,j,0.065,2,S,10.0
S10,46.0,76.0,79.0,76.0,66.0,76.0,3546.0,square3,j,0.124,2,S,10.0
S10,47.0,67.0,81.0,84.0,60.0,84.0,3630.0,square3,j,0.057,2,S,10.0
S10,48.0,73.0,83.0,75.0,66.0,75.0,3705.0,square3,j,0.079,2,S,10.0
S10,49.0,66.0,77.0,74.0,71.0,74.0,3779.0,square3,j,0.26,2,S,10.0
S3,0.0,38.0,48.0,42.0,57.0,48.0,48.0,square2,i,1.203,1,S,3.0
S3,1.0,29.0,43.0,51.0,57.0,51.0,99.0,square3,f,0.426,2,S,3.0
S3,2.0,41.0,49.0,46.0,49.0,49.0,148.0,square4,j,0.294,3,S,3.0
S3,3.0,44.0,50.0,45.0,52.0,44.0,192.0,square1,r,0.126,0,S,3.0
S3,4.0,37.0,51.0,45.0,58.0,45.0,237.0,square3,f,0.499,2,S,3.0
S3,5.0,47.0,43.0,42.0,49.0,42.0,279.0,square3,f,0.425,2,S,3.0
S3,6.0,44.0,53.0,51.0,58.0,53.0,332.0,square2,i,0.659,1,S,3.0
S3,7.0,39.0,47.0,46.0,54.0,47.0,379.0,square2,i,0.058,1,S,3.0
S3,8.0,43.0,53.0,41.0,52.0,53.0,432.0,square2,i,0.266,1,S,3.0
S3,9.0,42.0,46.0,41.0,53.0,46.0,478.0,square2,i,0.235,1,S,3.0
S3,10.0,37.0,49.0,49.0,55.0,49.0,527.0,square2,i,0.001,1,S,3.0
S3,11.0,40.0,47.0,36.0,59.0,47.0,574.0,square2,i,0.045,1,S,3.0
S3,12.0,46.0,51.0,39.0,56.0,56.0,630.0,square4,j,0.161,3,S,3.0
S3,13.0,39.0,48.0,45.0,57.0,57.0,687.0,square4,j,0.244,3,S,3.0
S3,14.0,39.0,55.0,43.0,47.0,47.0,734.0,square4,j,0.135,3,S,3.0
S3,15.0,46.0,46.0,47.0,52.0,52.0,786.0,square4,j,0.095,3,S,3.0
S3,16.0,42.0,49.0,50.0,55.0,55.0,841.0,square4,j,0.035,3,S,3.0
S3,17.0,45.0,45.0,56.0,47.0,47.0,888.0,square4,j,0.0,3,S,3.0
S3,18.0,46.0,43.0,45.0,50.0,50.0,938.0,square4,j,0.094,3,S,3.0
S3,19.0,41.0,47.0,50.0,55.0,55.0,993.0,square4,j,0.196,3,S,3.0
S3,20.0,45.0,52.0,49.0,52.0,52.0,1045.0,square4,j,0.067,3,S,3.0
S3,21.0,40.0,43.0,47.0,46.0,46.0,1091.0,square4,j,0.137,3,S,3.0
S3,22.0,45.0,46.0,44.0,47.0,45.0,1136.0,square1,r,0.062,0,S,3.0
S3,23.0,36.0,50.0,42.0,46.0,46.0,1182.0,square4,j,0.164,3,S,3.0
S3,24.0,42.0,54.0,49.0,55.0,55.0,1237.0,square4,j,0.011,3,S,3.0
S3,25.0,43.0,51.0,44.0,54.0,54.0,1291.0,square4,j,0.035,3,S,3.0
S3,26.0,49.0,50.0,52.0,52.0,52.0,1343.0,square4,j,0.19,3,S,3.0
S3,27.0,47.0,52.0,44.0,50.0,50.0,1393.0,square4,j,0.226,3,S,3.0
S3,28.0,37.0,48.0,40.0,47.0,47.0,1440.0,square4,j,0.124,3,S,3.0
S3,29.0,50.0,43.0,50.0,57.0,43.0,1483.0,square2,i,0.109,1,S,3.0
S3,30.0,50.0,50.0,46.0,47.0,46.0,1529.0,square3,f,0.11,2,S,3.0
S3,31.0,37.0,53.0,49.0,56.0,56.0,1585.0,square4,j,0.161,3,S,3.0
S3,32.0,42.0,50.0,43.0,58.0,58.0,1643.0,square4,j,0.076,3,S,3.0
S3,33.0,44.0,49.0,46.0,59.0,59.0,1702.0,square4,j,0.16,3,S,3.0
S3,34.0,42.0,50.0,50.0,58.0,58.0,1760.0,square4,j,0.09,3,S,3.0
S3,35.0,43.0,46.0,45.0,50.0,50.0,1810.0,square4,j,0.063,3,S,3.0
S3,36.0,46.0,52.0,50.0,48.0,48.0,1858.0,square4,j,0.076,3,S,3.0
S3,37.0,48.0,50.0,49.0,52.0,52.0,1910.0,square4,j,0.036,3,S,3.0
S3,38.0,39.0,43.0,50.0,55.0,50.0,1960.0,square3,f,0.174,2,S,3.0
S3,39.0,50.0,53.0,46.0,57.0,57.0,2017.0,square4,j,0.216,3,S,3.0
S3,40.0,41.0,46.0,48.0,55.0,48.0,2065.0,square3,f,0.061,2,S,3.0
S3,41.0,49.0,49.0,40.0,56.0,56.0,2121.0,square4,j,0.192,3,S,3.0
S3,42.0,47.0,49.0,43.0,48.0,48.0,2169.0,square4,j,0.033,3,S,3.0
S3,43.0,46.0,43.0,41.0,58.0,58.0,2227.0,square4,j,0.069,3,S,3.0
S3,44.0,46.0,52.0,51.0,55.0,55.0,2282.0,square4,j,0.093,3,S,3.0
S3,45.0,46.0,41.0,46.0,49.0,49.0,2331.0,square4,j,0.144,3,S,3.0
S3,46.0,32.0,56.0,40.0,50.0,50.0,2381.0,square4,j,0.045,3,S,3.0
S3,47.0,42.0,49.0,44.0,51.0,51.0,2432.0,square4,j,0.157,3,S,3.0
S3,48.0,36.0,45.0,38.0,50.0,50.0,2482.0,square4,j,0.134,3,S,3.0
S3,49.0,45.0,48.0,47.0,52.0,52.0,2534.0,square4,j,0.124,3,S,3.0
S1,0.0,72.0,58.0,70.0,66.0,70.0,70.0,square3,r,0.926,2,S,1.0
S1,1.0,75.0,64.0,66.0,69.0,64.0,134.0,square2,f,0.891,1,S,1.0
S1,2.0,75.0,62.0,62.0,79.0,75.0,209.0,square1,j,0.502,0,S,1.0
S1,3.0,68.0,62.0,63.0,69.0,69.0,278.0,square4,i,0.174,3,S,1.0
S1,4.0,82.0,63.0,64.0,73.0,82.0,360.0,square1,j,0.28,0,S,1.0
S1,5.0,66.0,70.0,65.0,73.0,66.0,426.0,square1,j,0.344,0,S,1.0
S1,6.0,73.0,65.0,62.0,65.0,62.0,488.0,square3,r,0.216,2,S,1.0
S1,7.0,70.0,61.0,65.0,66.0,70.0,558.0,square1,j,0.199,0,S,1.0
S1,8.0,78.0,63.0,67.0,68.0,78.0,636.0,square1,j,0.245,0,S,1.0
S1,9.0,74.0,67.0,66.0,68.0,74.0,710.0,square1,j,0.034,0,S,1.0
S1,10.0,73.0,59.0,68.0,68.0,73.0,783.0,square1,j,0.043,0,S,1.0
S1,11.0,76.0,65.0,62.0,81.0,76.0,859.0,square1,j,0.026,0,S,1.0
S1,12.0,77.0,66.0,69.0,63.0,77.0,936.0,square1,j,0.083,0,S,1.0
S1,13.0,75.0,63.0,68.0,73.0,75.0,1011.0,square1,j,0.094,0,S,1.0
S1,14.0,67.0,60.0,67.0,69.0,67.0,1078.0,square1,j,0.036,0,S,1.0
S1,15.0,70.0,63.0,69.0,73.0,70.0,1148.0,square1,j,0.028,0,S,1.0
S1,16.0,69.0,61.0,69.0,69.0,69.0,1217.0,square1,j,0.191,0,S,1.0
S1,17.0,73.0,68.0,67.0,73.0,73.0,1290.0,square4,i,0.013,3,S,1.0
S1,18.0,70.0,58.0,73.0,66.0,66.0,1356.0,square4,i,0.005,3,S,1.0
S1,19.0,75.0,58.0,62.0,68.0,68.0,1424.0,square4,i,0.213,3,S,1.0
S1,20.0,76.0,58.0,72.0,67.0,58.0,1482.0,square2,f,0.176,1,S,1.0
S1,21.0,69.0,66.0,66.0,67.0,69.0,1551.0,square1,j,0.175,0,S,1.0
S1,22.0,70.0,68.0,65.0,65.0,70.0,1621.0,square1,j,0.156,0,S,1.0
S1,23.0,71.0,60.0,64.0,64.0,71.0,1692.0,square1,j,0.161,0,S,1.0
S1,24.0,70.0,72.0,62.0,67.0,70.0,1762.0,square1,j,0.096,0,S,1.0
S1,25.0,68.0,60.0,70.0,65.0,68.0,1830.0,square1,j,0.092,0,S,1.0
S1,26.0,76.0,64.0,72.0,69.0,76.0,1906.0,square1,j,0.06,0,S,1.0
S1,27.0,71.0,56.0,70.0,65.0,70.0,1976.0,square3,r,0.124,2,S,1.0
S1,28.0,67.0,67.0,71.0,76.0,71.0,2047.0,square3,r,0.128,2,S,1.0
S1,29.0,78.0,64.0,64.0,74.0,78.0,2125.0,square1,j,0.157,0,S,1.0
S1,30.0,74.0,63.0,65.0,71.0,74.0,2199.0,square1,j,0.214,0,S,1.0
S1,31.0,78.0,58.0,69.0,69.0,78.0,2277.0,square1,j,0.113,0,S,1.0
S1,32.0,71.0,67.0,68.0,60.0,71.0,2348.0,square1,j,0.0,0,S,1.0
S1,33.0,68.0,63.0,65.0,73.0,68.0,2416.0,square1,j,0.186,0,S,1.0
S1,34.0,71.0,62.0,74.0,73.0,71.0,2487.0,square1,j,0.148,0,S,1.0
S1,35.0,75.0,59.0,67.0,77.0,75.0,2562.0,square1,j,0.182,0,S,1.0
S1,36.0,77.0,60.0,66.0,67.0,77.0,2639.0,square1,j,0.136,0,S,1.0
S1,37.0,69.0,60.0,69.0,75.0,69.0,2708.0,square1,j,0.096,0,S,1.0
S1,38.0,77.0,64.0,62.0,70.0,77.0,2785.0,square1,j,0.115,0,S,1.0
S1,39.0,72.0,66.0,69.0,65.0,72.0,2857.0,square1,j,0.032,0,S,1.0
S1,40.0,69.0,63.0,66.0,69.0,69.0,2926.0,square1,j,0.378,0,S,1.0
S1,41.0,72.0,62.0,70.0,70.0,72.0,2998.0,square1,j,0.098,0,S,1.0
S1,42.0,78.0,60.0,63.0,62.0,78.0,3076.0,square1,j,0.109,0,S,1.0
S1,43.0,71.0,62.0,67.0,73.0,71.0,3147.0,square1,j,0.201,0,S,1.0
S1,44.0,75.0,63.0,69.0,73.0,75.0,3222.0,square1,j,0.138,0,S,1.0
S1,45.0,66.0,60.0,68.0,73.0,66.0,3288.0,square1,j,0.202,0,S,1.0
S1,46.0,74.0,67.0,69.0,71.0,74.0,3362.0,square1,j,0.158,0,S,1.0
S1,47.0,71.0,66.0,68.0,70.0,71.0,3433.0,square1,j,0.092,0,S,1.0
S1,48.0,72.0,75.0,71.0,77.0,72.0,3505.0,square1,j,0.07,0,S,1.0
S1,49.0,65.0,57.0,66.0,75.0,65.0,3570.0,square1,j,0.137,0,S,1.0
S12,0.0,38.0,42.0,30.0,42.0,38.0,38.0,square1,r,0.832,0,S,12.0
S12,1.0,30.0,42.0,28.0,37.0,42.0,80.0,square2,j,0.016,1,S,12.0
S12,2.0,34.0,41.0,38.0,43.0,43.0,123.0,square4,f,0.082,3,S,12.0
S12,3.0,38.0,51.0,38.0,38.0,38.0,161.0,square3,i,0.144,2,S,12.0
S12,4.0,32.0,37.0,33.0,45.0,32.0,193.0,square1,r,0.012,0,S,12.0
S12,5.0,38.0,52.0,36.0,35.0,52.0,245.0,square2,j,0.044,1,S,12.0
S12,6.0,30.0,43.0,30.0,38.0,43.0,288.0,square2,j,0.002,1,S,12.0
S12,7.0,38.0,39.0,30.0,39.0,39.0,327.0,square2,j,0.177,1,S,12.0
S12,8.0,37.0,49.0,35.0,38.0,49.0,376.0,square2,j,0.1,1,S,12.0
S12,9.0,37.0,44.0,29.0,38.0,44.0,420.0,square2,j,0.037,1,S,12.0
S12,10.0,35.0,42.0,30.0,45.0,42.0,462.0,square2,j,0.082,1,S,12.0
S12,11.0,34.0,45.0,36.0,32.0,45.0,507.0,square2,j,0.11,1,S,12.0
S12,12.0,33.0,45.0,35.0,42.0,45.0,552.0,square2,j,0.146,1,S,12.0
S12,13.0,36.0,36.0,29.0,40.0,36.0,588.0,square2,j,0.136,1,S,12.0
S12,14.0,36.0,49.0,32.0,42.0,49.0,637.0,square2,j,0.167,1,S,12.0
S12,15.0,35.0,43.0,35.0,46.0,35.0,672.0,square3,i,0.096,2,S,12.0
S12,16.0,39.0,48.0,41.0,43.0,43.0,715.0,square4,f,0.291,3,S,12.0
S12,17.0,35.0,47.0,27.0,38.0,38.0,753.0,square4,f,0.0,3,S,12.0
S12,18.0,37.0,51.0,33.0,33.0,37.0,790.0,square1,r,0.094,0,S,12.0
S12,19.0,41.0,42.0,33.0,36.0,42.0,832.0,square2,j,0.144,1,S,12.0
S12,20.0,34.0,44.0,26.0,41.0,44.0,876.0,square2,j,0.028,1,S,12.0
S12,21.0,35.0,37.0,29.0,35.0,37.0,913.0,square2,j,0.168,1,S,12.0
S12,22.0,37.0,48.0,31.0,41.0,48.0,961.0,square2,j,0.15,1,S,12.0
S12,23.0,36.0,43.0,27.0,45.0,43.0,1004.0,square2,j,0.207,1,S,12.0
S12,24.0,39.0,48.0,38.0,38.0,48.0,1052.0,square2,j,0.0,1,S,12.0
S12,25.0,31.0,43.0,30.0,40.0,43.0,1095.0,square2,j,0.026,1,S,12.0
S12,26.0,35.0,48.0,34.0,33.0,48.0,1143.0,square2,j,0.179,1,S,12.0
S12,27.0,46.0,46.0,28.0,38.0,46.0,1189.0,square2,j,0.193,1,S,12.0
S12,28.0,32.0,37.0,32.0,40.0,37.0,1226.0,square2,j,0.161,1,S,12.0
S12,29.0,38.0,41.0,32.0,44.0,41.0,1267.0,square2,j,0.16,1,S,12.0
S12,30.0,32.0,48.0,29.0,42.0,48.0,1315.0,square2,j,0.008,1,S,12.0
S12,31.0,34.0,46.0,30.0,42.0,46.0,1361.0,square2,j,0.0,1,S,12.0
S12,32.0,39.0,43.0,41.0,40.0,43.0,1404.0,square2,j,0.014,1,S,12.0
S12,33.0,36.0,47.0,33.0,46.0,47.0,1451.0,square2,j,0.059,1,S,12.0
S12,34.0,36.0,41.0,34.0,41.0,41.0,1492.0,square2,j,0.091,1,S,12.0
S12,35.0,34.0,42.0,31.0,43.0,42.0,1534.0,square2,j,0.033,1,S,12.0
S12,36.0,39.0,43.0,26.0,33.0,43.0,1577.0,square2,j,0.132,1,S,12.0
S12,37.0,39.0,49.0,30.0,42.0,49.0,1626.0,square2,j,0.033,1,S,12.0
S12,38.0,33.0,47.0,36.0,41.0,47.0,1673.0,square2,j,0.026,1,S,12.0
S12,39.0,29.0,46.0,35.0,36.0,46.0,1719.0,square2,j,0.061,1,S,12.0
S12,40.0,39.0,39.0,29.0,36.0,39.0,1758.0,square2,j,0.032,1,S,12.0
S12,41.0,33.0,44.0,31.0,40.0,44.0,1802.0,square2,j,0.077,1,S,12.0
S12,42.0,34.0,46.0,25.0,37.0,46.0,1848.0,square2,j,0.028,1,S,12.0
S12,43.0,37.0,42.0,30.0,42.0,42.0,1890.0,square2,j,0.031,1,S,12.0
S12,44.0,33.0,49.0,36.0,39.0,49.0,1939.0,square2,j,0.026,1,S,12.0
S12,45.0,35.0,40.0,30.0,47.0,40.0,1979.0,square2,j,0.001,1,S,12.0
S12,46.0,40.0,41.0,29.0,35.0,41.0,2020.0,square2,j,0.097,1,S,12.0
S12,47.0,32.0,42.0,28.0,43.0,42.0,2062.0,square2,j,0.0,1,S,12.0
S12,48.0,43.0,47.0,31.0,38.0,47.0,2109.0,square2,j,0.181,1,S,12.0
S12,49.0,37.0,41.0,35.0,40.0,41.0,2150.0,square2,j,0.0,1,S,12.0
V1,0.0,46.0,61.0,52.0,71.0,61.0,61.0,square2,r,1.16,1,V,1.0
V1,1.0,45.0,63.0,54.0,78.0,78.0,139.0,square4,j,0.14,3,V,1.0
V1,2.0,51.0,58.0,59.0,77.0,59.0,198.0,square3,f,0.049,2,V,1.0
V1,3.0,53.0,65.0,56.0,75.0,53.0,251.0,square1,i,0.159,0,V,1.0
V1,4.0,49.0,68.0,53.0,72.0,72.0,323.0,square4,j,0.002,3,V,1.0
V1,5.0,47.0,70.0,59.0,76.0,76.0,399.0,square4,j,0.11,3,V,1.0
V1,6.0,55.0,63.0,54.0,76.0,76.0,475.0,square4,j,0.105,3,V,1.0
V1,7.0,47.0,67.0,55.0,74.0,74.0,549.0,square4,j,0.043,3,V,1.0
V1,8.0,47.0,65.0,46.0,76.0,76.0,625.0,square4,j,0.191,3,V,1.0
V1,9.0,46.0,68.0,59.0,78.0,78.0,703.0,square4,j,0.168,3,V,1.0
V1,10.0,58.0,67.0,58.0,79.0,79.0,782.0,square4,j,0.176,3,V,1.0
V1,11.0,44.0,61.0,54.0,72.0,72.0,854.0,square4,j,0.169,3,V,1.0
V1,12.0,44.0,65.0,56.0,75.0,75.0,929.0,square4,j,0.147,3,V,1.0
V1,13.0,47.0,63.0,53.0,73.0,73.0,1002.0,square4,j,0.001,3,V,1.0
V1,14.0,49.0,66.0,56.0,75.0,75.0,1077.0,square4,j,0.122,3,V,1.0
V1,15.0,49.0,66.0,52.0,79.0,79.0,1156.0,square4,j,0.168,3,V,1.0
V1,16.0,51.0,61.0,48.0,72.0,72.0,1228.0,square4,j,0.078,3,V,1.0
V1,17.0,46.0,61.0,59.0,71.0,61.0,1289.0,square2,r,0.144,1,V,1.0
V1,18.0,45.0,61.0,53.0,72.0,45.0,1334.0,square1,i,0.012,0,V,1.0
V1,19.0,49.0,63.0,54.0,76.0,76.0,1410.0,square4,j,0.28,3,V,1.0
V1,20.0,46.0,66.0,52.0,72.0,72.0,1482.0,square4,j,0.128,3,V,1.0
V1,21.0,50.0,65.0,51.0,73.0,73.0,1555.0,square4,j,0.059,3,V,1.0
V1,22.0,56.0,62.0,56.0,77.0,77.0,1632.0,square4,j,0.001,3,V,1.0
V1,23.0,45.0,67.0,54.0,83.0,83.0,1715.0,square4,j,0.125,3,V,1.0
V1,24.0,46.0,69.0,57.0,71.0,71.0,1786.0,square4,j,0.024,3,V,1.0
V1,25.0,41.0,65.0,55.0,76.0,76.0,1862.0,square4,j,0.062,3,V,1.0
V1,26.0,51.0,60.0,55.0,74.0,74.0,1936.0,square4,j,0.16,3,V,1.0
V1,27.0,52.0,63.0,56.0,73.0,73.0,2009.0,square4,j,0.042,3,V,1.0
V1,28.0,50.0,68.0,50.0,76.0,76.0,2085.0,square4,j,0.09,3,V,1.0
V1,29.0,51.0,60.0,54.0,74.0,74.0,2159.0,square4,j,0.003,3,V,1.0
V1,30.0,35.0,67.0,57.0,40.0,40.0,2199.0,square4,j,0.464,3,V,1.0
V1,31.0,38.0,60.0,52.0,35.0,35.0,2234.0,square4,j,0.128,3,V,1.0
V1,32.0,37.0,67.0,52.0,41.0,37.0,2271.0,square1,i,0.436,0,V,1.0
V1,33.0,37.0,62.0,53.0,42.0,62.0,2333.0,square2,r,0.083,1,V,1.0
V1,34.0,35.0,58.0,54.0,43.0,58.0,2391.0,square2,r,0.031,1,V,1.0
V1,35.0,40.0,60.0,50.0,44.0,50.0,2441.0,square3,f,0.122,2,V,1.0
V1,36.0,39.0,66.0,50.0,39.0,66.0,2507.0,square2,r,0.227,1,V,1.0
V1,37.0,32.0,59.0,54.0,38.0,59.0,2566.0,square2,r,0.123,1,V,1.0
V1,38.0,32.0,64.0,50.0,39.0,50.0,2616.0,square3,f,0.124,2,V,1.0
V1,39.0,37.0,60.0,45.0,40.0,45.0,2661.0,square3,f,0.11,2,V,1.0
V1,40.0,35.0,61.0,54.0,43.0,54.0,2715.0,square3,f,0.14,2,V,1.0
V1,41.0,33.0,62.0,49.0,42.0,49.0,2764.0,square3,f,0.042,2,V,1.0
V1,42.0,31.0,70.0,52.0,42.0,70.0,2834.0,square2,r,0.202,1,V,1.0
V1,43.0,37.0,59.0,48.0,41.0,59.0,2893.0,square2,r,0.148,1,V,1.0
V1,44.0,39.0,63.0,53.0,44.0,63.0,2956.0,square2,r,0.182,1,V,1.0
V1,45.0,37.0,62.0,48.0,41.0,62.0,3018.0,square2,r,0.137,1,V,1.0
V1,46.0,34.0,65.0,52.0,39.0,65.0,3083.0,square2,r,0.001,1,V,1.0
V1,47.0,42.0,59.0,52.0,43.0,59.0,3142.0,square2,r,0.157,1,V,1.0
V1,48.0,39.0,62.0,50.0,38.0,62.0,3204.0,square2,r,0.125,1,V,1.0
V1,49.0,33.0,63.0,49.0,40.0,63.0,3267.0,square2,r,0.136,1,V,1.0
V1,50.0,38.0,66.0,54.0,37.0,37.0,3304.0,square4,j,0.015,3,V,1.0
V1,51.0,33.0,66.0,50.0,37.0,66.0,3370.0,square2,r,0.06,1,V,1.0
V1,52.0,41.0,65.0,55.0,44.0,65.0,3435.0,square2,r,0.209,1,V,1.0
V1,53.0,75.0,50.0,46.0,60.0,75.0,3510.0,square1,i,0.078,0,V,1.0
V1,54.0,74.0,53.0,45.0,61.0,74.0,3584.0,square1,i,0.159,0,V,1.0
V1,55.0,74.0,54.0,43.0,65.0,74.0,3658.0,square1,i,0.037,0,V,1.0
V1,56.0,73.0,54.0,44.0,56.0,73.0,3731.0,square1,i,0.0,0,V,1.0
V1,57.0,67.0,58.0,52.0,63.0,67.0,3798.0,square1,i,0.009,0,V,1.0
V1,58.0,72.0,51.0,43.0,62.0,72.0,3870.0,square1,i,0.034,0,V,1.0
V1,59.0,68.0,47.0,49.0,56.0,68.0,3938.0,square1,i,0.059,0,V,1.0
V1,60.0,72.0,55.0,46.0,65.0,72.0,4010.0,square1,i,0.001,0,V,1.0
V1,61.0,76.0,50.0,46.0,62.0,76.0,4086.0,square1,i,0.175,0,V,1.0
V1,62.0,77.0,58.0,46.0,66.0,77.0,4163.0,square1,i,0.0,0,V,1.0
V1,63.0,72.0,53.0,48.0,66.0,72.0,4235.0,square1,i,0.142,0,V,1.0
V1,64.0,70.0,49.0,49.0,60.0,70.0,4305.0,square1,i,0.201,0,V,1.0
V1,65.0,68.0,49.0,46.0,66.0,68.0,4373.0,square1,i,0.003,0,V,1.0
V1,66.0,77.0,52.0,41.0,64.0,77.0,4450.0,square1,i,0.033,0,V,1.0
V1,67.0,74.0,56.0,42.0,69.0,74.0,4524.0,square1,i,0.092,0,V,1.0
V1,68.0,77.0,50.0,46.0,68.0,77.0,4601.0,square1,i,0.126,0,V,1.0
V1,69.0,76.0,48.0,45.0,63.0,76.0,4677.0,square1,i,0.058,0,V,1.0
V1,70.0,71.0,53.0,50.0,65.0,71.0,4748.0,square1,i,0.101,0,V,1.0
V1,71.0,70.0,56.0,44.0,59.0,70.0,4818.0,square1,i,0.134,0,V,1.0
V1,72.0,74.0,54.0,55.0,61.0,74.0,4892.0,square1,i,0.129,0,V,1.0
V1,73.0,73.0,53.0,47.0,61.0,73.0,4965.0,square1,i,0.096,0,V,1.0
V1,74.0,71.0,53.0,51.0,65.0,71.0,5036.0,square1,i,0.104,0,V,1.0
V1,75.0,72.0,51.0,48.0,64.0,72.0,5108.0,square1,i,0.115,0,V,1.0
V1,76.0,72.0,53.0,49.0,62.0,72.0,5180.0,square1,i,0.003,0,V,1.0
V1,77.0,62.0,76.0,64.0,86.0,62.0,5242.0,square1,i,0.107,0,V,1.0
V1,78.0,61.0,74.0,63.0,87.0,61.0,5303.0,square1,i,0.113,0,V,1.0
V1,79.0,56.0,78.0,67.0,89.0,56.0,5359.0,square1,i,0.134,0,V,1.0
V1,80.0,59.0,75.0,63.0,84.0,59.0,5418.0,square1,i,0.101,0,V,1.0
V1,81.0,63.0,74.0,68.0,82.0,74.0,5492.0,square2,r,0.064,1,V,1.0
V1,82.0,59.0,75.0,67.0,80.0,75.0,5567.0,square2,r,0.08,1,V,1.0
V1,83.0,58.0,77.0,63.0,82.0,77.0,5644.0,square2,r,0.164,1,V,1.0
V1,84.0,57.0,76.0,64.0,87.0,76.0,5720.0,square2,r,0.062,1,V,1.0
V1,85.0,61.0,73.0,66.0,83.0,73.0,5793.0,square2,r,0.099,1,V,1.0
V1,86.0,60.0,71.0,66.0,85.0,71.0,5864.0,square2,r,0.113,1,V,1.0
V1,87.0,61.0,80.0,73.0,84.0,80.0,5944.0,square2,r,0.122,1,V,1.0
V1,88.0,67.0,77.0,67.0,85.0,77.0,6021.0,square2,r,0.124,1,V,1.0
V1,89.0,60.0,79.0,63.0,86.0,79.0,6100.0,square2,r,0.144,1,V,1.0
V1,90.0,60.0,74.0,66.0,88.0,74.0,6174.0,square2,r,0.0,1,V,1.0
V1,91.0,57.0,81.0,61.0,79.0,81.0,6255.0,square2,r,0.0,1,V,1.0
V1,92.0,61.0,78.0,61.0,84.0,78.0,6333.0,square2,r,0.001,1,V,1.0
V1,93.0,64.0,72.0,69.0,83.0,72.0,6405.0,square2,r,0.159,1,V,1.0
V1,94.0,64.0,73.0,68.0,83.0,73.0,6478.0,square2,r,0.023,1,V,1.0
V1,95.0,61.0,69.0,68.0,87.0,69.0,6547.0,square2,r,0.009,1,V,1.0
V1,96.0,55.0,77.0,65.0,88.0,77.0,6624.0,square2,r,0.044,1,V,1.0
V1,97.0,61.0,75.0,63.0,82.0,75.0,6699.0,square2,r,0.05,1,V,1.0
V1,98.0,59.0,71.0,66.0,82.0,71.0,6770.0,square2,r,0.11,1,V,1.0
V1,99.0,61.0,69.0,67.0,84.0,69.0,6839.0,square2,r,0.046,1,V,1.0
V12,0.0,47.0,30.0,38.0,55.0,38.0,38.0,square3,r,1.412,2,V,12.0
V12,1.0,46.0,33.0,39.0,57.0,33.0,71.0,square2,j,0.009,1,V,12.0
V12,2.0,51.0,29.0,42.0,52.0,51.0,122.0,square1,f,0.159,0,V,12.0
V12,3.0,52.0,30.0,38.0,62.0,62.0,184.0,square4,i,0.089,3,V,12.0
V12,4.0,48.0,30.0,39.0,62.0,62.0,246.0,square4,i,0.033,3,V,12.0
V12,5.0,55.0,34.0,43.0,61.0,61.0,307.0,square4,i,0.147,3,V,12.0
V12,6.0,45.0,35.0,42.0,56.0,56.0,363.0,square4,i,0.184,3,V,12.0
V12,7.0,48.0,29.0,35.0,57.0,57.0,420.0,square4,i,0.128,3,V,12.0
V12,8.0,46.0,33.0,38.0,59.0,59.0,479.0,square4,i,0.1,3,V,12.0
V12,9.0,44.0,31.0,42.0,56.0,56.0,535.0,square4,i,0.099,3,V,12.0
V12,10.0,48.0,34.0,45.0,55.0,55.0,590.0,square4,i,0.057,3,V,12.0
V12,11.0,45.0,32.0,41.0,55.0,55.0,645.0,square4,i,0.108,3,V,12.0
V12,12.0,52.0,26.0,42.0,57.0,57.0,702.0,square4,i,0.074,3,V,12.0
V12,13.0,56.0,31.0,41.0,54.0,56.0,758.0,square1,f,0.06,0,V,12.0
V12,14.0,44.0,34.0,40.0,64.0,44.0,802.0,square1,f,0.124,0,V,12.0
V12,15.0,48.0,32.0,39.0,61.0,48.0,850.0,square1,f,0.011,0,V,12.0
V12,16.0,49.0,33.0,37.0,58.0,58.0,908.0,square4,i,0.024,3,V,12.0
V12,17.0,45.0,33.0,43.0,57.0,57.0,965.0,square4,i,0.062,3,V,12.0
V12,18.0,45.0,28.0,40.0,58.0,58.0,1023.0,square4,i,0.048,3,V,12.0
V12,19.0,42.0,33.0,43.0,59.0,59.0,1082.0,square4,i,0.031,3,V,12.0
V12,20.0,46.0,30.0,38.0,62.0,62.0,1144.0,square4,i,0.093,3,V,12.0
V12,21.0,46.0,35.0,40.0,55.0,55.0,1199.0,square4,i,0.089,3,V,12.0
V12,22.0,46.0,34.0,36.0,63.0,63.0,1262.0,square4,i,0.11,3,V,12.0
V12,23.0,54.0,34.0,42.0,56.0,56.0,1318.0,square4,i,0.128,3,V,12.0
V12,24.0,44.0,30.0,41.0,59.0,59.0,1377.0,square4,i,0.177,3,V,12.0
V12,25.0,49.0,33.0,37.0,64.0,64.0,1441.0,square4,i,0.013,3,V,12.0
V12,26.0,52.0,34.0,39.0,57.0,57.0,1498.0,square4,i,0.001,3,V,12.0
V12,27.0,50.0,26.0,37.0,55.0,55.0,1553.0,square4,i,0.064,3,V,12.0
V12,28.0,41.0,29.0,46.0,21.0,21.0,1574.0,square4,i,0.002,3,V,12.0
V12,29.0,41.0,28.0,51.0,20.0,20.0,1594.0,square4,i,0.078,3,V,12.0
V12,30.0,32.0,31.0,46.0,22.0,46.0,1640.0,square3,r,0.608,2,V,12.0
V12,31.0,38.0,28.0,45.0,22.0,45.0,1685.0,square3,r,0.049,2,V,12.0
V12,32.0,35.0,27.0,44.0,16.0,27.0,1712.0,square2,j,0.15,1,V,12.0
V12,33.0,39.0,29.0,49.0,21.0,29.0,1741.0,square2,j,0.131,1,V,12.0
V12,34.0,39.0,28.0,49.0,15.0,49.0,1790.0,square3,r,0.197,2,V,12.0
V12,35.0,36.0,29.0,50.0,17.0,36.0,1826.0,square1,f,0.147,0,V,12.0
V12,36.0,41.0,28.0,48.0,12.0,41.0,1867.0,square1,f,0.169,0,V,12.0
V12,37.0,34.0,29.0,46.0,25.0,46.0,1913.0,square3,r,0.176,2,V,12.0
V12,38.0,38.0,28.0,51.0,19.0,51.0,1964.0,square3,r,0.003,2,V,12.0
V12,39.0,39.0,31.0,45.0,13.0,45.0,2009.0,square3,r,0.026,2,V,12.0
V12,40.0,35.0,28.0,46.0,26.0,46.0,2055.0,square3,r,0.001,2,V,12.0
V12,41.0,38.0,27.0,46.0,20.0,46.0,2101.0,square3,r,0.011,2,V,12.0
V12,42.0,40.0,26.0,50.0,23.0,50.0,2151.0,square3,r,0.169,2,V,12.0
V12,43.0,33.0,30.0,45.0,18.0,45.0,2196.0,square3,r,0.127,2,V,12.0
V12,44.0,39.0,31.0,46.0,22.0,46.0,2242.0,square3,r,0.09,2,V,12.0
V12,45.0,32.0,26.0,42.0,20.0,20.0,2262.0,square4,i,0.025,3,V,12.0
V12,46.0,36.0,29.0,43.0,24.0,29.0,2291.0,square2,j,0.164,1,V,12.0
V12,47.0,37.0,30.0,46.0,21.0,37.0,2328.0,square1,f,0.068,0,V,12.0
V12,48.0,37.0,27.0,44.0,19.0,44.0,2372.0,square3,r,0.0,2,V,12.0
V12,49.0,36.0,33.0,55.0,16.0,36.0,2408.0,square1,f,0.159,0,V,12.0
V12,50.0,45.0,28.0,44.0,18.0,45.0,2453.0,square1,f,0.38,0,V,12.0
V12,51.0,35.0,32.0,49.0,19.0,35.0,2488.0,square1,f,0.091,0,V,12.0
V12,52.0,36.0,56.0,31.0,52.0,36.0,2524.0,square1,f,0.118,0,V,12.0
V12,53.0,36.0,57.0,29.0,45.0,29.0,2553.0,square3,r,0.149,2,V,12.0
V12,54.0,38.0,61.0,28.0,51.0,28.0,2581.0,square3,r,0.082,2,V,12.0
V12,55.0,35.0,60.0,29.0,47.0,47.0,2628.0,square4,i,0.135,3,V,12.0
V12,56.0,34.0,62.0,29.0,46.0,46.0,2674.0,square4,i,0.11,3,V,12.0
V12,57.0,43.0,57.0,32.0,46.0,46.0,2720.0,square4,i,0.123,3,V,12.0
V12,58.0,40.0,59.0,32.0,50.0,59.0,2779.0,square2,j,0.092,1,V,12.0
V12,59.0,41.0,62.0,33.0,48.0,62.0,2841.0,square2,j,0.103,1,V,12.0
V12,60.0,36.0,61.0,32.0,49.0,61.0,2902.0,square2,j,0.176,1,V,12.0
V12,61.0,39.0,56.0,32.0,44.0,56.0,2958.0,square2,j,0.128,1,V,12.0
V12,62.0,39.0,57.0,30.0,46.0,57.0,3015.0,square2,j,0.19,1,V,12.0
V12,63.0,42.0,53.0,29.0,46.0,53.0,3068.0,square2,j,0.044,1,V,12.0
V12,64.0,35.0,57.0,32.0,50.0,57.0,3125.0,square2,j,0.029,1,V,12.0
V12,65.0,44.0,58.0,32.0,49.0,58.0,3183.0,square2,j,0.026,1,V,12.0
V12,66.0,44.0,56.0,29.0,52.0,56.0,3239.0,square2,j,0.11,1,V,12.0
V12,67.0,41.0,60.0,30.0,49.0,60.0,3299.0,square2,j,0.099,1,V,12.0
V12,68.0,42.0,58.0,32.0,45.0,58.0,3357.0,square2,j,0.07,1,V,12.0
V12,69.0,36.0,60.0,33.0,50.0,60.0,3417.0,square2,j,0.138,1,V,12.0
V12,70.0,36.0,57.0,27.0,46.0,57.0,3474.0,square2,j,0.158,1,V,12.0
V12,71.0,41.0,59.0,32.0,48.0,59.0,3533.0,square2,j,0.106,1,V,12.0
V12,72.0,34.0,59.0,31.0,49.0,59.0,3592.0,square2,j,0.183,1,V,12.0
V12,73.0,71.0,53.0,65.0,49.0,53.0,3645.0,square2,j,0.147,1,V,12.0
V12,74.0,69.0,49.0,63.0,45.0,49.0,3694.0,square2,j,0.156,1,V,12.0
V12,75.0,72.0,51.0,56.0,46.0,51.0,3745.0,square2,j,0.134,1,V,12.0
V12,76.0,72.0,48.0,58.0,43.0,43.0,3788.0,square4,i,0.093,3,V,12.0
V12,77.0,74.0,57.0,59.0,44.0,44.0,3832.0,square4,i,0.101,3,V,12.0
V12,78.0,69.0,55.0,63.0,50.0,69.0,3901.0,square1,f,0.165,0,V,12.0
V12,79.0,73.0,53.0,58.0,43.0,73.0,3974.0,square1,f,0.114,0,V,12.0
V12,80.0,71.0,47.0,65.0,40.0,71.0,4045.0,square1,f,0.005,0,V,12.0
V12,81.0,66.0,49.0,57.0,40.0,66.0,4111.0,square1,f,0.001,0,V,12.0
V12,82.0,71.0,53.0,57.0,48.0,71.0,4182.0,square1,f,0.158,0,V,12.0
V12,83.0,70.0,50.0,56.0,49.0,70.0,4252.0,square1,f,0.0,0,V,12.0
V12,84.0,69.0,45.0,64.0,43.0,69.0,4321.0,square1,f,0.034,0,V,12.0
V12,85.0,64.0,48.0,54.0,42.0,64.0,4385.0,square1,f,0.001,0,V,12.0
V12,86.0,71.0,49.0,63.0,44.0,71.0,4456.0,square1,f,0.193,0,V,12.0
V12,87.0,72.0,52.0,55.0,42.0,72.0,4528.0,square1,f,0.011,0,V,12.0
V12,88.0,64.0,48.0,59.0,44.0,64.0,4592.0,square1,f,0.023,0,V,12.0
V12,89.0,69.0,48.0,62.0,45.0,69.0,4661.0,square1,f,0.19,0,V,12.0
V12,90.0,68.0,56.0,60.0,42.0,68.0,4729.0,square1,f,0.011,0,V,12.0
V12,91.0,69.0,52.0,62.0,45.0,69.0,4798.0,square1,f,0.046,0,V,12.0
V12,92.0,65.0,50.0,64.0,47.0,65.0,4863.0,square1,f,0.06,0,V,12.0
V12,93.0,68.0,51.0,62.0,43.0,68.0,4931.0,square1,f,0.008,0,V,12.0
V12,94.0,68.0,52.0,60.0,38.0,68.0,4999.0,square1,f,0.01,0,V,12.0
V12,95.0,71.0,52.0,58.0,47.0,71.0,5070.0,square1,f,0.034,0,V,12.0
V12,96.0,66.0,49.0,59.0,44.0,66.0,5136.0,square1,f,0.164,0,V,12.0
V12,97.0,74.0,47.0,54.0,47.0,74.0,5210.0,square1,f,0.065,0,V,12.0
V12,98.0,68.0,43.0,64.0,41.0,68.0,5278.0,square1,f,0.025,0,V,12.0
V12,99.0,71.0,53.0,62.0,44.0,71.0,5349.0,square1,f,0.076,0,V,12.0
V9,0.0,20.0,29.0,37.0,45.0,29.0,29.0,square2,r,1.056,1,V,9.0
V9,1.0,21.0,32.0,39.0,45.0,39.0,68.0,square3,i,0.173,2,V,9.0
V9,2.0,16.0,27.0,41.0,48.0,41.0,109.0,square3,i,0.135,2,V,9.0
V9,3.0,20.0,30.0,42.0,50.0,50.0,159.0,square4,f,0.158,3,V,9.0
V9,4.0,22.0,34.0,37.0,47.0,22.0,181.0,square1,j,0.045,0,V,9.0
V9,5.0,17.0,32.0,38.0,49.0,49.0,230.0,square4,f,0.068,3,V,9.0
V9,6.0,17.0,25.0,39.0,47.0,47.0,277.0,square4,f,0.092,3,V,9.0
V9,7.0,22.0,28.0,33.0,48.0,48.0,325.0,square4,f,0.061,3,V,9.0
V9,8.0,20.0,24.0,34.0,41.0,41.0,366.0,square4,f,0.098,3,V,9.0
V9,9.0,20.0,33.0,30.0,51.0,51.0,417.0,square4,f,0.041,3,V,9.0
V9,10.0,21.0,35.0,38.0,50.0,50.0,467.0,square4,f,0.028,3,V,9.0
V9,11.0,19.0,29.0,44.0,45.0,45.0,512.0,square4,f,0.0,3,V,9.0
V9,12.0,27.0,24.0,38.0,54.0,38.0,550.0,square3,i,0.093,2,V,9.0
V9,13.0,15.0,26.0,37.0,50.0,26.0,576.0,square2,r,0.037,1,V,9.0
V9,14.0,24.0,26.0,39.0,42.0,39.0,615.0,square3,i,0.015,2,V,9.0
V9,15.0,26.0,27.0,43.0,49.0,43.0,658.0,square3,i,0.067,2,V,9.0
V9,16.0,19.0,30.0,42.0,49.0,42.0,700.0,square3,i,0.045,2,V,9.0
V9,17.0,21.0,30.0,34.0,49.0,21.0,721.0,square1,j,0.156,0,V,9.0
V9,18.0,25.0,33.0,41.0,51.0,51.0,772.0,square4,f,0.06,3,V,9.0
V9,19.0,17.0,31.0,41.0,45.0,45.0,817.0,square4,f,0.059,3,V,9.0
V9,20.0,19.0,31.0,34.0,49.0,49.0,866.0,square4,f,0.171,3,V,9.0
V9,21.0,23.0,29.0,37.0,48.0,48.0,914.0,square4,f,0.171,3,V,9.0
V9,22.0,15.0,32.0,36.0,48.0,48.0,962.0,square4,f,0.127,3,V,9.0
V9,23.0,25.0,33.0,39.0,47.0,47.0,1009.0,square4,f,0.001,3,V,9.0
V9,24.0,21.0,30.0,38.0,52.0,52.0,1061.0,square4,f,0.002,3,V,9.0
V9,25.0,25.0,29.0,42.0,48.0,48.0,1109.0,square4,f,0.001,3,V,9.0
V9,26.0,22.0,29.0,39.0,47.0,47.0,1156.0,square4,f,0.166,3,V,9.0
V9,27.0,17.0,31.0,45.0,41.0,41.0,1197.0,square4,f,0.15,3,V,9.0
V9,28.0,29.0,28.0,43.0,43.0,43.0,1240.0,square4,f,0.176,3,V,9.0
V9,29.0,20.0,31.0,43.0,49.0,49.0,1289.0,square4,f,0.145,3,V,9.0
V9,30.0,23.0,33.0,39.0,48.0,23.0,1312.0,square1,j,0.044,0,V,9.0
V9,31.0,20.0,27.0,38.0,53.0,53.0,1365.0,square4,f,0.115,3,V,9.0
V9,32.0,23.0,29.0,37.0,49.0,49.0,1414.0,square4,f,0.001,3,V,9.0
V9,33.0,24.0,33.0,37.0,49.0,49.0,1463.0,square4,f,0.048,3,V,9.0
V9,34.0,43.0,58.0,48.0,30.0,30.0,1493.0,square4,f,0.028,3,V,9.0
V9,35.0,48.0,59.0,45.0,34.0,34.0,1527.0,square4,f,0.062,3,V,9.0
V9,36.0,39.0,56.0,54.0,32.0,56.0,1583.0,square2,r,0.142,1,V,9.0
V9,37.0,40.0,57.0,50.0,35.0,57.0,1640.0,square2,r,0.125,1,V,9.0
V9,38.0,49.0,62.0,51.0,33.0,62.0,1702.0,square2,r,0.181,1,V,9.0
V9,39.0,45.0,61.0,48.0,34.0,61.0,1763.0,square2,r,0.135,1,V,9.0
V9,40.0,40.0,65.0,51.0,29.0,65.0,1828.0,square2,r,0.002,1,V,9.0
V9,41.0,44.0,57.0,50.0,38.0,57.0,1885.0,square2,r,0.243,1,V,9.0
V9,42.0,40.0,57.0,49.0,33.0,57.0,1942.0,square2,r,0.071,1,V,9.0
V9,43.0,42.0,64.0,54.0,35.0,64.0,2006.0,square2,r,0.201,1,V,9.0
V9,44.0,44.0,55.0,49.0,39.0,55.0,2061.0,square2,r,0.157,1,V,9.0
V9,45.0,37.0,66.0,51.0,35.0,66.0,2127.0,square2,r,0.191,1,V,9.0
V9,46.0,40.0,59.0,51.0,32.0,59.0,2186.0,square2,r,0.161,1,V,9.0
V9,47.0,38.0,62.0,57.0,31.0,62.0,2248.0,square2,r,0.183,1,V,9.0
V9,48.0,43.0,61.0,54.0,34.0,61.0,2309.0,square2,r,0.008,1,V,9.0
V9,49.0,43.0,61.0,49.0,40.0,61.0,2370.0,square2,r,0.014,1,V,9.0
V9,50.0,37.0,58.0,51.0,32.0,58.0,2428.0,square2,r,0.014,1,V,9.0
V9,51.0,44.0,63.0,48.0,39.0,63.0,2491.0,square2,r,0.062,1,V,9.0
V9,52.0,35.0,65.0,48.0,30.0,65.0,2556.0,square2,r,0.142,1,V,9.0
V9,53.0,43.0,59.0,48.0,39.0,59.0,2615.0,square2,r,0.124,1,V,9.0
V9,54.0,43.0,59.0,52.0,30.0,59.0,2674.0,square2,r,0.358,1,V,9.0
V9,55.0,41.0,58.0,51.0,34.0,58.0,2732.0,square2,r,0.008,1,V,9.0
V9,56.0,44.0,63.0,50.0,33.0,63.0,2795.0,square2,r,0.001,1,V,9.0
V9,57.0,42.0,60.0,49.0,32.0,60.0,2855.0,square2,r,0.093,1,V,9.0
V9,58.0,44.0,62.0,57.0,30.0,62.0,2917.0,square2,r,0.059,1,V,9.0
V9,59.0,45.0,61.0,45.0,31.0,61.0,2978.0,square2,r,0.044,1,V,9.0
V9,60.0,43.0,63.0,53.0,33.0,63.0,3041.0,square2,r,0.064,1,V,9.0
V9,61.0,39.0,56.0,55.0,31.0,56.0,3097.0,square2,r,0.026,1,V,9.0
V9,62.0,39.0,61.0,50.0,34.0,61.0,3158.0,square2,r,0.19,1,V,9.0
V9,63.0,44.0,57.0,48.0,36.0,57.0,3215.0,square2,r,0.231,1,V,9.0
V9,64.0,40.0,60.0,58.0,35.0,60.0,3275.0,square2,r,0.092,1,V,9.0
V9,65.0,42.0,60.0,54.0,38.0,60.0,3335.0,square2,r,0.003,1,V,9.0
V9,66.0,41.0,60.0,54.0,37.0,60.0,3395.0,square2,r,0.042,1,V,9.0
V9,67.0,43.0,61.0,54.0,40.0,61.0,3456.0,square2,r,0.001,1,V,9.0
V9,68.0,45.0,40.0,26.0,18.0,40.0,3496.0,square2,r,0.19,1,V,9.0
V9,69.0,50.0,41.0,29.0,20.0,29.0,3525.0,square3,i,0.0,2,V,9.0
V9,70.0,43.0,36.0,27.0,15.0,15.0,3540.0,square4,f,0.0,3,V,9.0
V9,71.0,44.0,40.0,28.0,18.0,44.0,3584.0,square1,j,0.143,0,V,9.0
V9,72.0,42.0,38.0,27.0,18.0,42.0,3626.0,square1,j,0.112,0,V,9.0
V9,73.0,46.0,33.0,25.0,19.0,46.0,3672.0,square1,j,0.1,0,V,9.0
V9,74.0,47.0,40.0,28.0,20.0,47.0,3719.0,square1,j,0.069,0,V,9.0
V9,75.0,39.0,39.0,27.0,25.0,39.0,3758.0,square2,r,0.014,1,V,9.0
V9,76.0,50.0,31.0,29.0,23.0,31.0,3789.0,square2,r,0.117,1,V,9.0
V9,77.0,44.0,37.0,28.0,13.0,44.0,3833.0,square1,j,0.008,0,V,9.0
V9,78.0,43.0,36.0,23.0,17.0,43.0,3876.0,square1,j,0.09,0,V,9.0
V9,79.0,42.0,36.0,28.0,24.0,42.0,3918.0,square1,j,0.024,0,V,9.0
V9,80.0,47.0,35.0,30.0,14.0,30.0,3948.0,square3,i,0.156,2,V,9.0
V9,81.0,46.0,33.0,29.0,18.0,18.0,3966.0,square4,f,0.191,3,V,9.0
V9,82.0,46.0,35.0,28.0,18.0,28.0,3994.0,square3,i,0.134,2,V,9.0
V9,83.0,47.0,41.0,32.0,15.0,47.0,4041.0,square1,j,0.036,0,V,9.0
V9,84.0,45.0,38.0,31.0,18.0,45.0,4086.0,square1,j,0.091,0,V,9.0
V9,85.0,42.0,35.0,30.0,21.0,42.0,4128.0,square1,j,0.141,0,V,9.0
V9,86.0,49.0,39.0,23.0,18.0,49.0,4177.0,square1,j,0.132,0,V,9.0
V9,87.0,49.0,39.0,27.0,16.0,49.0,4226.0,square1,j,0.009,0,V,9.0
V9,88.0,45.0,38.0,25.0,14.0,45.0,4271.0,square1,j,0.128,0,V,9.0
V9,89.0,45.0,32.0,28.0,19.0,32.0,4303.0,square2,r,0.214,1,V,9.0
V9,90.0,44.0,35.0,29.0,20.0,44.0,4347.0,square1,j,0.023,0,V,9.0
V9,91.0,42.0,38.0,32.0,16.0,42.0,4389.0,square1,j,0.142,0,V,9.0
V9,92.0,45.0,36.0,23.0,20.0,45.0,4434.0,square1,j,0.038,0,V,9.0
V9,93.0,45.0,35.0,26.0,18.0,45.0,4479.0,square1,j,0.164,0,V,9.0
V9,94.0,44.0,37.0,27.0,13.0,44.0,4523.0,square1,j,0.001,0,V,9.0
V9,95.0,46.0,36.0,25.0,20.0,46.0,4569.0,square1,j,0.033,0,V,9.0
V9,96.0,43.0,39.0,27.0,16.0,43.0,4612.0,square1,j,0.055,0,V,9.0
V9,97.0,48.0,39.0,30.0,16.0,48.0,4660.0,square1,j,0.0,0,V,9.0
V9,98.0,49.0,40.0,26.0,20.0,49.0,4709.0,square1,j,0.201,0,V,9.0
V9,99.0,49.0,41.0,27.0,18.0,49.0,4758.0,square1,j,0.09,0,V,9.0
