block,Trial,square1,square2,square3,square4,currPoints,totalPoints,square,choiceKey.keys,choiceKey.rt,armNum,blockType,blockNum
prac,0.0,100.0,0.0,0.0,0.0,0,0.0,square4,,,3,p,0.0
prac,1.0,100.0,0.0,0.0,0.0,100,100.0,square1,,,0,p,0.0
prac,2.0,100.0,0.0,0.0,0.0,0,100.0,square3,,,2,p,0.0
prac,3.0,100.0,0.0,0.0,0.0,0,100.0,square2,,,1,p,0.0
prac,4.0,100.0,0.0,0.0,0.0,0,100.0,square4,,,3,p,0.0
prac,5.0,100.0,0.0,0.0,0.0,100,200.0,square1,,,0,p,0.0
prac,6.0,100.0,0.0,0.0,0.0,100,300.0,square1,,,0,p,0.0
prac,7.0,100.0,0.0,0.0,0.0,100,400.0,square1,,,0,p,0.0
prac,8.0,100.0,0.0,0.0,0.0,100,500.0,square1,,,0,p,0.0
prac,9.0,100.0,0.0,0.0,0.0,100,600.0,square1,,,0,p,0.0
NS1,0.0,60.0,65.0,21.0,53.0,65,65.0,square2,r,1.258,1,N,1.0
NS1,1.0,56.0,62.0,31.0,51.0,62,127.0,square2,r,0.3202,1,N,1.0
NS1,2.0,58.0,62.0,24.0,57.0,62,189.0,square2,r,0.1097,1,N,1.0
NS1,3.0,56.0,58.0,33.0,58.0,58,247.0,square2,r,0.0006,1,N,1.0
NS1,4.0,60.0,58.0,32.0,58.0,58,305.0,square2,r,0.0477,1,N,1.0
NS1,5.0,56.0,59.0,31.0,54.0,59,364.0,square2,r,0.1187,1,N,1.0
NS1,6.0,58.0,57.0,37.0,56.0,57,421.0,square2,r,0.1098,1,N,1.0
NS1,7.0,57.0,53.0,37.0,57.0,53,474.0,square2,r,0.2275,1,N,1.0
NS1,8.0,58.0,57.0,37.0,54.0,37,511.0,square3,j,0.0196,2,N,1.0
NS1,9.0,53.0,50.0,36.0,55.0,50,561.0,square2,r,0.0764,1,N,1.0
NS1,10.0,58.0,47.0,32.0,53.0,53,614.0,square4,i,0.2704,3,N,1.0
NS1,11.0,55.0,44.0,34.0,53.0,53,667.0,square4,i,0.1356,3,N,1.0
NS1,12.0,56.0,44.0,30.0,45.0,45,712.0,square4,i,0.0759,3,N,1.0
NS1,13.0,60.0,47.0,34.0,48.0,48,760.0,square4,i,0.0687,3,N,1.0
NS1,14.0,54.0,48.0,37.0,54.0,54,814.0,square1,f,0.1236,0,N,1.0
NS1,15.0,53.0,44.0,35.0,51.0,53,867.0,square1,f,0.0192,0,N,1.0
NS1,16.0,50.0,50.0,35.0,43.0,50,917.0,square1,f,0.0608,0,N,1.0
NS1,17.0,53.0,46.0,35.0,44.0,53,970.0,square1,f,0.042,0,N,1.0
NS1,18.0,54.0,51.0,42.0,48.0,54,1024.0,square1,f,0.0955,0,N,1.0
NS1,19.0,62.0,51.0,44.0,53.0,62,1086.0,square1,f,0.1047,0,N,1.0
NS1,20.0,63.0,47.0,42.0,47.0,63,1149.0,square1,f,0.1477,0,N,1.0
NS1,21.0,67.0,51.0,41.0,46.0,67,1216.0,square1,f,0.1172,0,N,1.0
NS1,22.0,75.0,44.0,45.0,43.0,75,1291.0,square1,f,0.0553,0,N,1.0
NS1,23.0,64.0,42.0,41.0,47.0,64,1355.0,square1,f,0.0218,0,N,1.0
NS1,24.0,68.0,41.0,39.0,49.0,68,1423.0,square1,f,0.0663,0,N,1.0
NS1,25.0,71.0,43.0,33.0,42.0,71,1494.0,square1,f,0.2031,0,N,1.0
NS1,26.0,70.0,41.0,26.0,45.0,70,1564.0,square1,f,0.1997,0,N,1.0
NS1,27.0,72.0,42.0,34.0,48.0,72,1636.0,square1,f,0.0614,0,N,1.0
NS1,28.0,71.0,41.0,33.0,45.0,71,1707.0,square1,f,0.0464,0,N,1.0
NS1,29.0,77.0,42.0,31.0,48.0,77,1784.0,square1,f,0.0104,0,N,1.0
NS1,30.0,73.0,41.0,33.0,51.0,73,1857.0,square1,f,0.137,0,N,1.0
NS1,31.0,71.0,44.0,35.0,48.0,71,1928.0,square1,f,0.0461,0,N,1.0
NS1,32.0,81.0,47.0,33.0,50.0,81,2009.0,square1,f,0.9119,0,N,1.0
NS1,33.0,75.0,50.0,27.0,42.0,75,2084.0,square1,f,0.0078,0,N,1.0
NS1,34.0,71.0,49.0,27.0,44.0,71,2155.0,square1,f,0.1164,0,N,1.0
NS1,35.0,69.0,47.0,23.0,47.0,47,2202.0,square2,r,0.2466,1,N,1.0
NS1,36.0,71.0,50.0,32.0,45.0,71,2273.0,square1,f,0.1357,0,N,1.0
NS1,37.0,66.0,48.0,33.0,52.0,66,2339.0,square1,f,0.1381,0,N,1.0
NS1,38.0,64.0,50.0,34.0,51.0,64,2403.0,square1,f,0.0981,0,N,1.0
NS1,39.0,65.0,49.0,25.0,47.0,65,2468.0,square1,f,0.1561,0,N,1.0
NS1,40.0,66.0,46.0,23.0,50.0,23,2491.0,square3,j,0.1229,2,N,1.0
NS1,41.0,68.0,45.0,22.0,50.0,68,2559.0,square1,f,0.0398,0,N,1.0
NS1,42.0,74.0,41.0,28.0,50.0,74,2633.0,square1,f,0.11,0,N,1.0
NS1,43.0,69.0,42.0,27.0,52.0,69,2702.0,square1,f,0.1549,0,N,1.0
NS1,44.0,71.0,38.0,32.0,49.0,71,2773.0,square1,f,0.1049,0,N,1.0
NS1,45.0,68.0,38.0,30.0,55.0,68,2841.0,square1,f,0.2156,0,N,1.0
NS1,46.0,66.0,39.0,30.0,56.0,66,2907.0,square1,f,0.1656,0,N,1.0
NS1,47.0,62.0,35.0,31.0,50.0,62,2969.0,square1,f,0.0496,0,N,1.0
NS1,48.0,68.0,31.0,32.0,49.0,68,3037.0,square1,f,0.1724,0,N,1.0
NS1,49.0,66.0,33.0,35.0,46.0,46,3083.0,square4,i,0.1167,3,N,1.0
NS1,50.0,64.0,30.0,32.0,46.0,64,3147.0,square1,f,0.2257,0,N,1.0
NS1,51.0,66.0,35.0,39.0,43.0,66,3213.0,square1,f,0.3254,0,N,1.0
NS1,52.0,67.0,33.0,37.0,49.0,67,3280.0,square1,f,0.614,0,N,1.0
NS1,53.0,70.0,32.0,35.0,47.0,70,3350.0,square1,f,0.1636,0,N,1.0
NS1,54.0,62.0,40.0,28.0,43.0,62,3412.0,square1,f,0.0627,0,N,1.0
NS1,55.0,66.0,39.0,26.0,43.0,66,3478.0,square1,f,0.0597,0,N,1.0
NS1,56.0,64.0,38.0,26.0,44.0,64,3542.0,square1,f,0.009,0,N,1.0
NS1,57.0,63.0,41.0,24.0,48.0,63,3605.0,square1,f,0.0907,0,N,1.0
NS1,58.0,67.0,49.0,24.0,48.0,67,3672.0,square1,f,0.1662,0,N,1.0
NS1,59.0,57.0,51.0,27.0,43.0,57,3729.0,square1,f,0.4615,0,N,1.0
NS1,60.0,56.0,51.0,31.0,42.0,56,3785.0,square1,f,0.1776,0,N,1.0
NS1,61.0,55.0,50.0,25.0,49.0,55,3840.0,square1,f,0.2561,0,N,1.0
NS1,62.0,55.0,51.0,27.0,50.0,55,3895.0,square1,f,0.0499,0,N,1.0
NS1,63.0,53.0,51.0,27.0,50.0,53,3948.0,square1,f,0.061,0,N,1.0
NS1,64.0,53.0,56.0,27.0,50.0,27,3975.0,square3,j,0.1194,2,N,1.0
NS1,65.0,49.0,56.0,26.0,49.0,56,4031.0,square2,r,0.3024,1,N,1.0
NS1,66.0,47.0,61.0,29.0,50.0,61,4092.0,square2,r,0.1803,1,N,1.0
NS1,67.0,47.0,56.0,27.0,50.0,56,4148.0,square2,r,0.0155,1,N,1.0
NS1,68.0,47.0,64.0,29.0,48.0,64,4212.0,square2,r,0.2111,1,N,1.0
NS1,69.0,54.0,67.0,24.0,53.0,67,4279.0,square2,r,0.0797,1,N,1.0
NS1,70.0,44.0,70.0,21.0,48.0,70,4349.0,square2,r,0.1028,1,N,1.0
NS1,71.0,45.0,67.0,26.0,52.0,67,4416.0,square2,r,0.1544,1,N,1.0
NS1,72.0,44.0,64.0,22.0,49.0,64,4480.0,square2,r,0.1708,1,N,1.0
NS1,73.0,43.0,60.0,23.0,51.0,60,4540.0,square2,r,0.022,1,N,1.0
NS1,74.0,47.0,59.0,26.0,57.0,59,4599.0,square2,r,0.181,1,N,1.0
NS1,75.0,44.0,56.0,27.0,51.0,56,4655.0,square2,r,0.7016,1,N,1.0
NS1,76.0,34.0,55.0,21.0,52.0,55,4710.0,square2,r,1.1322,1,N,1.0
NS1,77.0,39.0,64.0,17.0,55.0,64,4774.0,square2,r,0.2489,1,N,1.0
NS1,78.0,38.0,64.0,25.0,52.0,64,4838.0,square2,r,0.3848,1,N,1.0
NS1,79.0,40.0,65.0,24.0,54.0,65,4903.0,square2,r,0.0132,1,N,1.0
NS1,80.0,44.0,66.0,21.0,53.0,66,4969.0,square2,r,0.1971,1,N,1.0
NS1,81.0,50.0,60.0,27.0,54.0,60,5029.0,square2,r,0.7183,1,N,1.0
NS1,82.0,43.0,62.0,20.0,57.0,62,5091.0,square2,r,0.56,1,N,1.0
NS1,83.0,44.0,55.0,24.0,59.0,55,5146.0,square2,r,0.2733,1,N,1.0
NS1,84.0,41.0,51.0,28.0,61.0,51,5197.0,square2,r,0.3374,1,N,1.0
NS1,85.0,49.0,49.0,29.0,70.0,49,5246.0,square1,f,0.2533,0,N,1.0
NS1,86.0,47.0,44.0,26.0,66.0,66,5312.0,square4,i,0.6417,3,N,1.0
NS1,87.0,48.0,48.0,23.0,68.0,68,5380.0,square4,i,0.039,3,N,1.0
NS1,88.0,46.0,51.0,20.0,70.0,70,5450.0,square4,i,0.2529,3,N,1.0
NS1,89.0,45.0,50.0,17.0,75.0,75,5525.0,square4,i,0.0606,3,N,1.0
NS1,90.0,50.0,48.0,18.0,74.0,74,5599.0,square4,i,0.0602,3,N,1.0
NS1,91.0,46.0,53.0,17.0,67.0,67,5666.0,square4,i,0.0991,3,N,1.0
NS1,92.0,38.0,56.0,22.0,65.0,65,5731.0,square4,i,0.1291,3,N,1.0
NS1,93.0,38.0,53.0,22.0,66.0,66,5797.0,square4,i,0.1442,3,N,1.0
NS1,94.0,42.0,49.0,24.0,72.0,72,5869.0,square4,i,0.0192,3,N,1.0
NS1,95.0,44.0,48.0,25.0,70.0,70,5939.0,square4,i,0.2766,3,N,1.0
NS1,96.0,35.0,50.0,21.0,67.0,67,6006.0,square4,i,0.3106,3,N,1.0
NS1,97.0,43.0,55.0,16.0,72.0,72,6078.0,square4,i,0.3337,3,N,1.0
NS1,98.0,46.0,50.0,21.0,73.0,73,6151.0,square4,i,0.3805,3,N,1.0
NS1,99.0,43.0,46.0,27.0,71.0,71,6222.0,square4,i,0.7708,3,N,1.0
NS7,0.0,26.0,62.0,36.0,41.0,26,26.0,square1,r,1.4973,0,N,7.0
NS7,1.0,31.0,61.0,40.0,42.0,40,66.0,square3,i,0.5722,2,N,7.0
NS7,2.0,30.0,60.0,46.0,41.0,41,107.0,square4,f,0.2519,3,N,7.0
NS7,3.0,27.0,57.0,46.0,39.0,57,164.0,square2,j,0.0276,1,N,7.0
NS7,4.0,20.0,58.0,45.0,39.0,58,222.0,square2,j,0.2073,1,N,7.0
NS7,5.0,29.0,57.0,46.0,42.0,57,279.0,square2,j,0.1534,1,N,7.0
NS7,6.0,28.0,61.0,44.0,40.0,61,340.0,square2,j,0.191,1,N,7.0
NS7,7.0,24.0,56.0,46.0,40.0,56,396.0,square2,j,0.3443,1,N,7.0
NS7,8.0,25.0,66.0,45.0,36.0,66,462.0,square2,j,0.0382,1,N,7.0
NS7,9.0,27.0,65.0,46.0,40.0,65,527.0,square2,j,0.123,1,N,7.0
NS7,10.0,27.0,65.0,41.0,46.0,65,592.0,square2,j,0.0804,1,N,7.0
NS7,11.0,26.0,58.0,40.0,51.0,58,650.0,square2,j,0.1956,1,N,7.0
NS7,12.0,19.0,64.0,43.0,57.0,64,714.0,square2,j,0.1772,1,N,7.0
NS7,13.0,21.0,64.0,43.0,54.0,64,778.0,square2,j,0.1212,1,N,7.0
NS7,14.0,26.0,67.0,44.0,55.0,67,845.0,square2,j,0.1424,1,N,7.0
NS7,15.0,20.0,64.0,40.0,61.0,64,909.0,square2,j,0.1215,1,N,7.0
NS7,16.0,20.0,61.0,38.0,66.0,61,970.0,square2,j,0.068,1,N,7.0
NS7,17.0,20.0,56.0,39.0,64.0,56,1026.0,square2,j,0.0688,1,N,7.0
NS7,18.0,21.0,56.0,33.0,65.0,56,1082.0,square2,j,0.2451,1,N,7.0
NS7,19.0,21.0,56.0,36.0,68.0,56,1138.0,square2,j,0.0175,1,N,7.0
NS7,20.0,26.0,58.0,37.0,64.0,58,1196.0,square2,j,0.0182,1,N,7.0
NS7,21.0,29.0,62.0,36.0,61.0,62,1258.0,square2,j,0.2026,1,N,7.0
NS7,22.0,24.0,63.0,37.0,55.0,63,1321.0,square2,j,0.0472,1,N,7.0
NS7,23.0,26.0,64.0,38.0,54.0,64,1385.0,square2,j,0.1042,1,N,7.0
NS7,24.0,18.0,65.0,39.0,53.0,65,1450.0,square2,j,0.2167,1,N,7.0
NS7,25.0,20.0,62.0,36.0,53.0,62,1512.0,square2,j,0.1826,1,N,7.0
NS7,26.0,24.0,56.0,39.0,52.0,56,1568.0,square2,j,0.3965,1,N,7.0
NS7,27.0,31.0,58.0,36.0,51.0,58,1626.0,square2,j,0.1537,1,N,7.0
NS7,28.0,28.0,59.0,42.0,53.0,59,1685.0,square2,j,0.518,1,N,7.0
NS7,29.0,30.0,57.0,36.0,51.0,57,1742.0,square2,j,0.2035,1,N,7.0
NS7,30.0,29.0,57.0,35.0,53.0,57,1799.0,square2,j,0.0616,1,N,7.0
NS7,31.0,27.0,59.0,37.0,48.0,59,1858.0,square2,j,0.1722,1,N,7.0
NS7,32.0,29.0,59.0,38.0,45.0,59,1917.0,square2,j,0.4175,1,N,7.0
NS7,33.0,35.0,58.0,37.0,52.0,58,1975.0,square2,j,0.0242,1,N,7.0
NS7,34.0,33.0,59.0,43.0,52.0,59,2034.0,square2,j,0.0772,1,N,7.0
NS7,35.0,37.0,61.0,43.0,49.0,61,2095.0,square2,j,0.0273,1,N,7.0
NS7,36.0,36.0,62.0,48.0,54.0,62,2157.0,square2,j,0.2446,1,N,7.0
NS7,37.0,35.0,62.0,46.0,57.0,62,2219.0,square2,j,0.0372,1,N,7.0
NS7,38.0,37.0,59.0,52.0,53.0,59,2278.0,square2,j,0.2401,1,N,7.0
NS7,39.0,32.0,57.0,50.0,59.0,57,2335.0,square2,j,0.1281,1,N,7.0
NS7,40.0,30.0,56.0,54.0,59.0,56,2391.0,square2,j,0.2114,1,N,7.0
NS7,41.0,36.0,54.0,52.0,56.0,54,2445.0,square2,j,0.101,1,N,7.0
NS7,42.0,30.0,55.0,57.0,55.0,55,2500.0,square2,j,0.0312,1,N,7.0
NS7,43.0,35.0,52.0,54.0,58.0,52,2552.0,square2,j,0.2561,1,N,7.0
NS7,44.0,30.0,56.0,55.0,57.0,56,2608.0,square2,j,0.0909,1,N,7.0
NS7,45.0,28.0,63.0,57.0,58.0,63,2671.0,square2,j,0.0551,1,N,7.0
NS7,46.0,29.0,60.0,58.0,57.0,60,2731.0,square2,j,0.1606,1,N,7.0
NS7,47.0,31.0,58.0,54.0,53.0,58,2789.0,square2,j,0.0851,1,N,7.0
NS7,48.0,27.0,58.0,59.0,48.0,58,2847.0,square2,j,0.196,1,N,7.0
NS7,49.0,28.0,48.0,60.0,54.0,48,2895.0,square2,j,0.0332,1,N,7.0
NS7,50.0,27.0,49.0,62.0,53.0,49,2944.0,square2,j,0.5354,1,N,7.0
NS7,51.0,41.0,49.0,63.0,56.0,49,2993.0,square2,j,0.1797,1,N,7.0
NS7,52.0,36.0,43.0,66.0,56.0,43,3036.0,square2,j,0.8297,1,N,7.0
NS7,53.0,41.0,51.0,69.0,54.0,51,3087.0,square2,j,0.2146,1,N,7.0
NS7,54.0,37.0,52.0,63.0,53.0,52,3139.0,square2,j,0.1593,1,N,7.0
NS7,55.0,40.0,51.0,60.0,54.0,51,3190.0,square2,j,0.2484,1,N,7.0
NS7,56.0,45.0,57.0,63.0,59.0,57,3247.0,square2,j,0.0471,1,N,7.0
NS7,57.0,42.0,49.0,64.0,53.0,49,3296.0,square2,j,0.1271,1,N,7.0
NS7,58.0,39.0,49.0,62.0,52.0,49,3345.0,square2,j,0.0233,1,N,7.0
NS7,59.0,47.0,49.0,67.0,54.0,49,3394.0,square2,j,0.0279,1,N,7.0
NS7,60.0,43.0,53.0,70.0,55.0,53,3447.0,square2,j,0.0011,1,N,7.0
NS7,61.0,41.0,48.0,69.0,52.0,48,3495.0,square2,j,0.0343,1,N,7.0
NS7,62.0,39.0,48.0,65.0,54.0,48,3543.0,square2,j,0.0751,1,N,7.0
NS7,63.0,38.0,48.0,64.0,56.0,48,3591.0,square2,j,0.0194,1,N,7.0
NS7,64.0,34.0,46.0,65.0,51.0,46,3637.0,square2,j,0.5347,1,N,7.0
NS7,65.0,43.0,51.0,63.0,53.0,51,3688.0,square2,j,0.1479,1,N,7.0
NS7,66.0,41.0,51.0,64.0,50.0,51,3739.0,square2,j,0.3612,1,N,7.0
NS7,67.0,44.0,51.0,63.0,54.0,51,3790.0,square2,j,0.1331,1,N,7.0
NS7,68.0,42.0,49.0,62.0,48.0,49,3839.0,square2,j,0.7425,1,N,7.0
NS7,69.0,41.0,50.0,63.0,52.0,50,3889.0,square2,j,0.0806,1,N,7.0
NS7,70.0,45.0,45.0,59.0,53.0,45,3934.0,square2,j,0.1587,1,N,7.0
NS7,71.0,44.0,40.0,52.0,52.0,40,3974.0,square2,j,0.4609,1,N,7.0
NS7,72.0,51.0,38.0,55.0,47.0,47,4021.0,square4,f,0.8663,3,N,7.0
NS7,73.0,42.0,36.0,49.0,47.0,47,4068.0,square4,f,0.1213,3,N,7.0
NS7,74.0,44.0,40.0,46.0,48.0,46,4114.0,square3,i,0.08,2,N,7.0
NS7,75.0,46.0,38.0,45.0,53.0,45,4159.0,square3,i,0.0449,2,N,7.0
NS7,76.0,48.0,44.0,40.0,53.0,48,4207.0,square1,r,0.1828,0,N,7.0
NS7,77.0,45.0,42.0,40.0,55.0,99999,4207.0,invalid,,,-1,N,7.0
NS7,78.0,41.0,39.0,40.0,56.0,39,4246.0,square2,j,0.1299,1,N,7.0
NS7,79.0,44.0,38.0,41.0,55.0,44,4290.0,square1,r,0.1101,0,N,7.0
NS7,80.0,48.0,49.0,48.0,62.0,48,4338.0,square3,i,0.2016,2,N,7.0
NS7,81.0,44.0,47.0,43.0,61.0,61,4399.0,square4,f,0.0804,3,N,7.0
NS7,82.0,45.0,46.0,38.0,54.0,54,4453.0,square4,f,0.6591,3,N,7.0
NS7,83.0,44.0,40.0,41.0,57.0,57,4510.0,square4,f,0.1017,3,N,7.0
NS7,84.0,47.0,46.0,41.0,53.0,53,4563.0,square4,f,0.0448,3,N,7.0
NS7,85.0,50.0,45.0,45.0,54.0,54,4617.0,square4,f,0.1114,3,N,7.0
NS7,86.0,45.0,43.0,44.0,54.0,54,4671.0,square4,f,0.0235,3,N,7.0
NS7,87.0,43.0,47.0,49.0,55.0,55,4726.0,square4,f,0.0336,3,N,7.0
NS7,88.0,40.0,48.0,44.0,58.0,58,4784.0,square4,f,0.1339,3,N,7.0
NS7,89.0,40.0,44.0,47.0,54.0,54,4838.0,square4,f,0.286,3,N,7.0
NS7,90.0,38.0,43.0,48.0,55.0,55,4893.0,square4,f,0.0058,3,N,7.0
NS7,91.0,36.0,45.0,43.0,55.0,55,4948.0,square4,f,0.1059,3,N,7.0
NS7,92.0,29.0,44.0,45.0,53.0,53,5001.0,square4,f,0.1797,3,N,7.0
NS7,93.0,33.0,46.0,44.0,57.0,57,5058.0,square4,f,0.1063,3,N,7.0
NS7,94.0,32.0,43.0,52.0,47.0,47,5105.0,square4,f,0.1339,3,N,7.0
NS7,95.0,41.0,46.0,50.0,51.0,51,5156.0,square4,f,0.0384,3,N,7.0
NS7,96.0,38.0,41.0,46.0,52.0,52,5208.0,square4,f,1.0317,3,N,7.0
NS7,97.0,41.0,44.0,40.0,52.0,52,5260.0,square4,f,0.234,3,N,7.0
NS7,98.0,45.0,41.0,41.0,55.0,55,5315.0,square4,f,0.0012,3,N,7.0
NS7,99.0,39.0,41.0,39.0,53.0,53,5368.0,square4,f,0.2194,3,N,7.0
NS4,0.0,55.0,53.0,59.0,44.0,99999,0.0,invalid,,,-1,N,4.0
NS4,1.0,49.0,56.0,64.0,41.0,41,41.0,square4,r,0.9175,3,N,4.0
NS4,2.0,50.0,54.0,71.0,48.0,54,95.0,square2,i,0.2698,1,N,4.0
NS4,3.0,53.0,58.0,67.0,50.0,53,148.0,square1,j,0.3377,0,N,4.0
NS4,4.0,49.0,51.0,70.0,55.0,70,218.0,square3,f,0.3938,2,N,4.0
NS4,5.0,55.0,59.0,73.0,58.0,73,291.0,square3,f,0.2128,2,N,4.0
NS4,6.0,56.0,54.0,71.0,57.0,71,362.0,square3,f,0.0942,2,N,4.0
NS4,7.0,60.0,54.0,75.0,52.0,75,437.0,square3,f,0.1128,2,N,4.0
NS4,8.0,58.0,53.0,74.0,52.0,74,511.0,square3,f,0.1154,2,N,4.0
NS4,9.0,46.0,48.0,78.0,51.0,78,589.0,square3,f,0.079,2,N,4.0
NS4,10.0,55.0,48.0,78.0,51.0,78,667.0,square3,f,0.0006,2,N,4.0
NS4,11.0,55.0,44.0,79.0,49.0,79,746.0,square3,f,0.0223,2,N,4.0
NS4,12.0,50.0,40.0,79.0,50.0,79,825.0,square3,f,0.1838,2,N,4.0
NS4,13.0,45.0,39.0,79.0,53.0,79,904.0,square3,f,0.1727,2,N,4.0
NS4,14.0,44.0,38.0,77.0,56.0,77,981.0,square3,f,0.187,2,N,4.0
NS4,15.0,45.0,32.0,68.0,52.0,68,1049.0,square3,f,0.0313,2,N,4.0
NS4,16.0,49.0,32.0,74.0,53.0,74,1123.0,square3,f,0.4238,2,N,4.0
NS4,17.0,45.0,32.0,69.0,51.0,69,1192.0,square3,f,0.0007,2,N,4.0
NS4,18.0,50.0,34.0,69.0,47.0,69,1261.0,square3,f,0.1513,2,N,4.0
NS4,19.0,50.0,36.0,65.0,53.0,65,1326.0,square3,f,0.1977,2,N,4.0
NS4,20.0,45.0,36.0,62.0,53.0,62,1388.0,square3,f,0.0563,2,N,4.0
NS4,21.0,49.0,35.0,62.0,55.0,62,1450.0,square3,f,0.0689,2,N,4.0
NS4,22.0,53.0,32.0,61.0,60.0,61,1511.0,square3,f,0.1103,2,N,4.0
NS4,23.0,52.0,33.0,58.0,54.0,58,1569.0,square3,f,0.0008,2,N,4.0
NS4,24.0,48.0,32.0,52.0,60.0,52,1621.0,square3,f,0.0949,2,N,4.0
NS4,25.0,47.0,30.0,53.0,57.0,53,1674.0,square3,f,0.0582,2,N,4.0
NS4,26.0,50.0,30.0,60.0,55.0,60,1734.0,square3,f,0.0772,2,N,4.0
NS4,27.0,50.0,28.0,62.0,47.0,62,1796.0,square3,f,0.163,2,N,4.0
NS4,28.0,54.0,28.0,58.0,49.0,58,1854.0,square3,f,0.0531,2,N,4.0
NS4,29.0,44.0,29.0,50.0,49.0,50,1904.0,square3,f,0.0643,2,N,4.0
NS4,30.0,43.0,26.0,55.0,57.0,55,1959.0,square3,f,0.1288,2,N,4.0
NS4,31.0,43.0,25.0,60.0,54.0,60,2019.0,square3,f,0.1071,2,N,4.0
NS4,32.0,34.0,27.0,58.0,56.0,58,2077.0,square3,f,0.1463,2,N,4.0
NS4,33.0,34.0,20.0,60.0,62.0,60,2137.0,square3,f,0.1667,2,N,4.0
NS4,34.0,38.0,28.0,58.0,57.0,58,2195.0,square3,f,0.1215,2,N,4.0
NS4,35.0,40.0,24.0,63.0,59.0,63,2258.0,square3,f,0.1858,2,N,4.0
NS4,36.0,36.0,30.0,56.0,63.0,56,2314.0,square3,f,0.1744,2,N,4.0
NS4,37.0,40.0,29.0,54.0,63.0,54,2368.0,square3,f,0.3915,2,N,4.0
NS4,38.0,40.0,33.0,53.0,69.0,53,2421.0,square3,f,0.3121,2,N,4.0
NS4,39.0,36.0,30.0,57.0,67.0,57,2478.0,square3,f,0.1783,2,N,4.0
NS4,40.0,33.0,33.0,58.0,68.0,58,2536.0,square3,f,0.2197,2,N,4.0
NS4,41.0,34.0,28.0,58.0,72.0,58,2594.0,square3,f,0.0007,2,N,4.0
NS4,42.0,35.0,30.0,60.0,70.0,60,2654.0,square3,f,0.021,2,N,4.0
NS4,43.0,35.0,34.0,57.0,63.0,57,2711.0,square3,f,0.0358,2,N,4.0
NS4,44.0,30.0,32.0,59.0,69.0,59,2770.0,square3,f,0.1331,2,N,4.0
NS4,45.0,29.0,31.0,60.0,66.0,60,2830.0,square3,f,0.1101,2,N,4.0
NS4,46.0,35.0,34.0,66.0,66.0,66,2896.0,square3,f,0.1602,2,N,4.0
NS4,47.0,35.0,28.0,63.0,62.0,63,2959.0,square3,f,0.2137,2,N,4.0
NS4,48.0,37.0,37.0,61.0,55.0,61,3020.0,square3,f,0.0648,2,N,4.0
NS4,49.0,40.0,34.0,59.0,54.0,59,3079.0,square3,f,0.044,2,N,4.0
NS4,50.0,39.0,38.0,68.0,51.0,68,3147.0,square3,f,0.0361,2,N,4.0
NS4,51.0,46.0,28.0,69.0,48.0,69,3216.0,square3,f,0.0655,2,N,4.0
NS4,52.0,40.0,34.0,62.0,49.0,62,3278.0,square3,f,0.1188,2,N,4.0
NS4,53.0,39.0,34.0,63.0,48.0,63,3341.0,square3,f,0.1637,2,N,4.0
NS4,54.0,44.0,31.0,58.0,47.0,58,3399.0,square3,f,0.0229,2,N,4.0
NS4,55.0,42.0,30.0,68.0,46.0,68,3467.0,square3,f,0.0596,2,N,4.0
NS4,56.0,36.0,25.0,69.0,44.0,69,3536.0,square3,f,0.3016,2,N,4.0
NS4,57.0,35.0,29.0,71.0,46.0,71,3607.0,square3,f,0.0063,2,N,4.0
NS4,58.0,43.0,28.0,68.0,47.0,68,3675.0,square3,f,0.0645,2,N,4.0
NS4,59.0,43.0,27.0,67.0,43.0,67,3742.0,square3,f,0.105,2,N,4.0
NS4,60.0,40.0,25.0,72.0,46.0,72,3814.0,square3,f,0.2172,2,N,4.0
NS4,61.0,39.0,32.0,63.0,43.0,63,3877.0,square3,f,0.2638,2,N,4.0
NS4,62.0,39.0,29.0,61.0,39.0,61,3938.0,square3,f,0.4581,2,N,4.0
NS4,63.0,41.0,28.0,59.0,40.0,59,3997.0,square3,f,0.1034,2,N,4.0
NS4,64.0,41.0,31.0,57.0,51.0,57,4054.0,square3,f,0.1667,2,N,4.0
NS4,65.0,46.0,36.0,59.0,58.0,59,4113.0,square3,f,0.2819,2,N,4.0
NS4,66.0,45.0,36.0,53.0,46.0,53,4166.0,square3,f,0.0133,2,N,4.0
NS4,67.0,40.0,34.0,49.0,46.0,49,4215.0,square3,f,0.0009,2,N,4.0
NS4,68.0,43.0,37.0,48.0,48.0,48,4263.0,square3,f,0.1137,2,N,4.0
NS4,69.0,42.0,36.0,44.0,56.0,36,4299.0,square2,i,0.1604,1,N,4.0
NS4,70.0,40.0,38.0,47.0,58.0,40,4339.0,square1,j,0.2551,0,N,4.0
NS4,71.0,36.0,34.0,42.0,63.0,63,4402.0,square4,r,0.0706,3,N,4.0
NS4,72.0,38.0,36.0,36.0,66.0,66,4468.0,square4,r,0.0738,3,N,4.0
NS4,73.0,36.0,40.0,40.0,66.0,66,4534.0,square4,r,0.2249,3,N,4.0
NS4,74.0,31.0,38.0,46.0,67.0,67,4601.0,square4,r,0.1312,3,N,4.0
NS4,75.0,40.0,33.0,42.0,64.0,64,4665.0,square4,r,0.1461,3,N,4.0
NS4,76.0,38.0,35.0,42.0,64.0,64,4729.0,square4,r,0.1155,3,N,4.0
NS4,77.0,40.0,35.0,39.0,66.0,66,4795.0,square4,r,0.0939,3,N,4.0
NS4,78.0,40.0,33.0,38.0,68.0,68,4863.0,square4,r,0.0545,3,N,4.0
NS4,79.0,40.0,38.0,31.0,70.0,70,4933.0,square4,r,0.9428,3,N,4.0
NS4,80.0,37.0,35.0,33.0,73.0,73,5006.0,square4,r,0.0348,3,N,4.0
NS4,81.0,34.0,35.0,30.0,70.0,70,5076.0,square4,r,0.2925,3,N,4.0
NS4,82.0,35.0,37.0,31.0,66.0,66,5142.0,square4,r,0.0365,3,N,4.0
NS4,83.0,42.0,32.0,28.0,67.0,67,5209.0,square4,r,0.2384,3,N,4.0
NS4,84.0,38.0,35.0,30.0,68.0,68,5277.0,square4,r,0.3888,3,N,4.0
NS4,85.0,43.0,35.0,32.0,64.0,64,5341.0,square4,r,1.3464,3,N,4.0
NS4,86.0,49.0,35.0,32.0,70.0,70,5411.0,square4,r,0.1533,3,N,4.0
NS4,87.0,48.0,34.0,32.0,69.0,69,5480.0,square4,r,0.2035,3,N,4.0
NS4,88.0,50.0,35.0,30.0,64.0,64,5544.0,square4,r,0.1807,3,N,4.0
NS4,89.0,48.0,34.0,32.0,68.0,68,5612.0,square4,r,0.2464,3,N,4.0
NS4,90.0,53.0,29.0,27.0,68.0,68,5680.0,square4,r,0.0777,3,N,4.0
NS4,91.0,54.0,27.0,34.0,68.0,68,5748.0,square4,r,0.1202,3,N,4.0
NS4,92.0,52.0,20.0,35.0,69.0,69,5817.0,square4,r,0.0665,3,N,4.0
NS4,93.0,42.0,15.0,33.0,68.0,68,5885.0,square4,r,0.0444,3,N,4.0
NS4,94.0,40.0,24.0,37.0,72.0,72,5957.0,square4,r,0.2807,3,N,4.0
NS4,95.0,43.0,25.0,43.0,69.0,69,6026.0,square4,r,0.0238,3,N,4.0
NS4,96.0,41.0,29.0,43.0,74.0,74,6100.0,square4,r,0.1723,3,N,4.0
NS4,97.0,46.0,32.0,42.0,78.0,78,6178.0,square4,r,0.0011,3,N,4.0
NS4,98.0,48.0,26.0,46.0,75.0,75,6253.0,square4,r,0.0346,3,N,4.0
NS4,99.0,46.0,27.0,45.0,71.0,71,6324.0,square4,r,0.202,3,N,4.0
V4,0.0,63.0,38.0,47.0,55.0,99999,0.0,invalid,,,-1,V,4.0
V4,1.0,66.0,42.0,43.0,59.0,43,43.0,square3,j,1.3656,2,V,4.0
V4,2.0,66.0,39.0,57.0,59.0,66,109.0,square1,r,0.4119,0,V,4.0
V4,3.0,66.0,37.0,51.0,59.0,66,175.0,square1,r,0.3451,0,V,4.0
V4,4.0,69.0,37.0,50.0,55.0,69,244.0,square1,r,0.0537,0,V,4.0
V4,5.0,64.0,44.0,46.0,62.0,64,308.0,square1,r,0.0425,0,V,4.0
V4,6.0,75.0,43.0,49.0,57.0,75,383.0,square1,r,0.0285,0,V,4.0
V4,7.0,62.0,41.0,52.0,59.0,62,445.0,square1,r,0.2103,0,V,4.0
V4,8.0,65.0,41.0,44.0,60.0,65,510.0,square1,r,0.8473,0,V,4.0
V4,9.0,68.0,35.0,44.0,64.0,68,578.0,square1,r,0.1127,0,V,4.0
V4,10.0,67.0,44.0,48.0,61.0,67,645.0,square1,r,0.1611,0,V,4.0
V4,11.0,61.0,40.0,48.0,56.0,61,706.0,square1,r,0.0274,0,V,4.0
V4,12.0,68.0,41.0,49.0,55.0,99999,706.0,invalid,,,-1,V,4.0
V4,13.0,63.0,42.0,47.0,60.0,99999,706.0,invalid,,,-1,V,4.0
V4,14.0,63.0,40.0,51.0,55.0,63,769.0,square1,r,1.8703,0,V,4.0
V4,15.0,62.0,41.0,52.0,62.0,62,831.0,square1,r,0.0792,0,V,4.0
V4,16.0,69.0,37.0,47.0,60.0,69,900.0,square1,r,0.0764,0,V,4.0
V4,17.0,66.0,40.0,48.0,56.0,66,966.0,square1,r,0.1446,0,V,4.0
V4,18.0,67.0,43.0,47.0,59.0,67,1033.0,square1,r,0.1622,0,V,4.0
V4,19.0,64.0,42.0,51.0,59.0,64,1097.0,square1,r,0.0787,0,V,4.0
V4,20.0,67.0,40.0,47.0,58.0,67,1164.0,square1,r,0.0425,0,V,4.0
V4,21.0,60.0,41.0,50.0,59.0,60,1224.0,square1,r,0.2115,0,V,4.0
V4,22.0,66.0,43.0,54.0,55.0,66,1290.0,square1,r,0.001,0,V,4.0
V4,23.0,67.0,37.0,50.0,62.0,67,1357.0,square1,r,0.5632,0,V,4.0
V4,24.0,67.0,37.0,49.0,60.0,67,1424.0,square1,r,0.3511,0,V,4.0
V4,25.0,67.0,39.0,55.0,52.0,67,1491.0,square1,r,0.0187,0,V,4.0
V4,26.0,64.0,39.0,51.0,63.0,64,1555.0,square1,r,0.0726,0,V,4.0
V4,27.0,68.0,36.0,55.0,60.0,68,1623.0,square1,r,0.2812,0,V,4.0
V4,28.0,67.0,40.0,46.0,54.0,67,1690.0,square1,r,0.1008,0,V,4.0
V4,29.0,67.0,41.0,50.0,57.0,67,1757.0,square1,r,0.2254,0,V,4.0
V4,30.0,66.0,39.0,49.0,53.0,66,1823.0,square1,r,0.0359,0,V,4.0
V4,31.0,70.0,38.0,48.0,58.0,70,1893.0,square1,r,0.3751,0,V,4.0
V4,32.0,63.0,40.0,53.0,61.0,63,1956.0,square1,r,0.2167,0,V,4.0
V4,33.0,66.0,41.0,51.0,56.0,66,2022.0,square1,r,0.2323,0,V,4.0
V4,34.0,64.0,39.0,46.0,57.0,64,2086.0,square1,r,0.0012,0,V,4.0
V4,35.0,69.0,36.0,50.0,58.0,69,2155.0,square1,r,0.0821,0,V,4.0
V4,36.0,60.0,43.0,53.0,54.0,60,2215.0,square1,r,0.1446,0,V,4.0
V4,37.0,52.0,78.0,68.0,66.0,52,2267.0,square1,r,0.0225,0,V,4.0
V4,38.0,44.0,81.0,68.0,62.0,44,2311.0,square1,r,0.1314,0,V,4.0
V4,39.0,59.0,71.0,70.0,63.0,59,2370.0,square1,r,0.0269,0,V,4.0
V4,40.0,53.0,77.0,73.0,59.0,53,2423.0,square1,r,0.1103,0,V,4.0
V4,41.0,53.0,76.0,74.0,66.0,53,2476.0,square1,r,0.0597,0,V,4.0
V4,42.0,51.0,79.0,73.0,59.0,59,2535.0,square4,i,0.419,3,V,4.0
V4,43.0,48.0,76.0,68.0,65.0,65,2600.0,square4,i,0.2266,3,V,4.0
V4,44.0,57.0,83.0,78.0,63.0,63,2663.0,square4,i,0.2036,3,V,4.0
V4,45.0,54.0,74.0,69.0,61.0,61,2724.0,square4,i,0.2082,3,V,4.0
V4,46.0,53.0,85.0,66.0,62.0,62,2786.0,square4,i,0.0873,3,V,4.0
V4,47.0,56.0,83.0,68.0,57.0,57,2843.0,square4,i,0.1999,3,V,4.0
V4,48.0,49.0,74.0,73.0,59.0,59,2902.0,square4,i,0.5284,3,V,4.0
V4,49.0,54.0,74.0,70.0,60.0,60,2962.0,square4,i,0.4858,3,V,4.0
V4,50.0,47.0,83.0,69.0,60.0,60,3022.0,square4,i,0.2302,3,V,4.0
V4,51.0,54.0,78.0,73.0,56.0,56,3078.0,square4,i,0.0635,3,V,4.0
V4,52.0,52.0,76.0,71.0,58.0,58,3136.0,square4,i,0.6212,3,V,4.0
V4,53.0,51.0,82.0,76.0,63.0,63,3199.0,square4,i,0.0226,3,V,4.0
V4,54.0,57.0,76.0,69.0,64.0,64,3263.0,square4,i,0.2816,3,V,4.0
V4,55.0,49.0,75.0,68.0,59.0,59,3322.0,square4,i,0.1191,3,V,4.0
V4,56.0,55.0,81.0,66.0,65.0,65,3387.0,square4,i,0.2166,3,V,4.0
V4,57.0,58.0,80.0,72.0,63.0,63,3450.0,square4,i,0.1938,3,V,4.0
V4,58.0,49.0,81.0,66.0,62.0,62,3512.0,square4,i,0.0852,3,V,4.0
V4,59.0,57.0,78.0,73.0,59.0,59,3571.0,square4,i,0.2036,3,V,4.0
V4,60.0,48.0,79.0,66.0,59.0,59,3630.0,square4,i,0.3118,3,V,4.0
V4,61.0,53.0,80.0,72.0,60.0,60,3690.0,square4,i,0.1262,3,V,4.0
V4,62.0,53.0,79.0,70.0,61.0,61,3751.0,square4,i,0.2205,3,V,4.0
V4,63.0,81.0,66.0,90.0,66.0,66,3817.0,square4,i,0.1349,3,V,4.0
V4,64.0,80.0,64.0,85.0,76.0,76,3893.0,square4,i,0.0087,3,V,4.0
V4,65.0,77.0,61.0,92.0,74.0,74,3967.0,square4,i,0.2855,3,V,4.0
V4,66.0,89.0,65.0,91.0,73.0,73,4040.0,square4,i,0.0903,3,V,4.0
V4,67.0,86.0,64.0,92.0,70.0,70,4110.0,square4,i,0.263,3,V,4.0
V4,68.0,82.0,60.0,91.0,77.0,77,4187.0,square4,i,0.0187,3,V,4.0
V4,69.0,78.0,69.0,90.0,70.0,70,4257.0,square4,i,0.2256,3,V,4.0
V4,70.0,85.0,64.0,95.0,73.0,73,4330.0,square4,i,0.5353,3,V,4.0
V4,71.0,85.0,61.0,88.0,69.0,69,4399.0,square4,i,0.2204,3,V,4.0
V4,72.0,86.0,63.0,87.0,75.0,75,4474.0,square4,i,0.0194,3,V,4.0
V4,73.0,86.0,69.0,92.0,70.0,70,4544.0,square4,i,0.1769,3,V,4.0
V4,74.0,81.0,62.0,90.0,69.0,69,4613.0,square4,i,0.3131,3,V,4.0
V4,75.0,83.0,66.0,88.0,74.0,74,4687.0,square4,i,0.6862,3,V,4.0
V4,76.0,80.0,64.0,92.0,75.0,75,4762.0,square4,i,0.1076,3,V,4.0
V4,77.0,81.0,65.0,91.0,74.0,74,4836.0,square4,i,0.1336,3,V,4.0
V4,78.0,78.0,70.0,89.0,73.0,73,4909.0,square4,i,0.5051,3,V,4.0
V4,79.0,84.0,66.0,85.0,75.0,75,4984.0,square4,i,0.1434,3,V,4.0
V4,80.0,83.0,65.0,93.0,74.0,74,5058.0,square4,i,0.0624,3,V,4.0
V4,81.0,86.0,59.0,91.0,74.0,74,5132.0,square4,i,0.2279,3,V,4.0
V4,82.0,87.0,64.0,92.0,73.0,73,5205.0,square4,i,0.0909,3,V,4.0
V4,83.0,83.0,68.0,86.0,70.0,70,5275.0,square4,i,0.183,3,V,4.0
V4,84.0,82.0,62.0,87.0,73.0,73,5348.0,square4,i,0.3443,3,V,4.0
V4,85.0,85.0,61.0,90.0,70.0,70,5418.0,square4,i,0.2316,3,V,4.0
V4,86.0,84.0,66.0,97.0,71.0,71,5489.0,square4,i,0.2327,3,V,4.0
V4,87.0,82.0,64.0,87.0,71.0,71,5560.0,square4,i,0.0105,3,V,4.0
V4,88.0,80.0,67.0,93.0,72.0,72,5632.0,square4,i,0.0031,3,V,4.0
V4,89.0,78.0,64.0,92.0,75.0,75,5707.0,square4,i,0.0212,3,V,4.0
V4,90.0,75.0,66.0,88.0,72.0,72,5779.0,square4,i,0.1224,3,V,4.0
V4,91.0,82.0,59.0,91.0,76.0,76,5855.0,square4,i,0.4354,3,V,4.0
V4,92.0,84.0,62.0,91.0,70.0,70,5925.0,square4,i,0.0869,3,V,4.0
V4,93.0,80.0,61.0,94.0,76.0,76,6001.0,square4,i,0.5433,3,V,4.0
V4,94.0,83.0,64.0,88.0,72.0,72,6073.0,square4,i,0.2511,3,V,4.0
V4,95.0,82.0,60.0,94.0,69.0,69,6142.0,square4,i,0.1034,3,V,4.0
V4,96.0,84.0,63.0,92.0,72.0,72,6214.0,square4,i,0.1378,3,V,4.0
V4,97.0,84.0,62.0,85.0,70.0,70,6284.0,square4,i,0.2365,3,V,4.0
V4,98.0,81.0,64.0,93.0,72.0,72,6356.0,square4,i,0.0571,3,V,4.0
V4,99.0,80.0,61.0,92.0,75.0,75,6431.0,square4,i,0.2105,3,V,4.0
V9,0.0,20.0,29.0,37.0,45.0,99999,0.0,invalid,,,-1,V,9.0
V9,1.0,21.0,32.0,39.0,45.0,21,21.0,square1,j,0.7845,0,V,9.0
V9,2.0,16.0,27.0,41.0,48.0,41,62.0,square3,f,0.2951,2,V,9.0
V9,3.0,20.0,30.0,42.0,50.0,50,112.0,square4,r,0.5128,3,V,9.0
V9,4.0,22.0,34.0,37.0,47.0,34,146.0,square2,i,0.0326,1,V,9.0
V9,5.0,17.0,32.0,38.0,49.0,49,195.0,square4,r,0.0357,3,V,9.0
V9,6.0,17.0,25.0,39.0,47.0,47,242.0,square4,r,0.1763,3,V,9.0
V9,7.0,22.0,28.0,33.0,48.0,48,290.0,square4,r,0.2614,3,V,9.0
V9,8.0,20.0,24.0,34.0,41.0,41,331.0,square4,r,0.1882,3,V,9.0
V9,9.0,20.0,33.0,30.0,51.0,51,382.0,square4,r,1.9349,3,V,9.0
V9,10.0,21.0,35.0,38.0,50.0,50,432.0,square4,r,0.1553,3,V,9.0
V9,11.0,19.0,29.0,44.0,45.0,45,477.0,square4,r,0.1162,3,V,9.0
V9,12.0,27.0,24.0,38.0,54.0,54,531.0,square4,r,0.1815,3,V,9.0
V9,13.0,15.0,26.0,37.0,50.0,50,581.0,square4,r,0.1515,3,V,9.0
V9,14.0,24.0,26.0,39.0,42.0,42,623.0,square4,r,0.1618,3,V,9.0
V9,15.0,26.0,27.0,43.0,49.0,49,672.0,square4,r,0.1767,3,V,9.0
V9,16.0,19.0,30.0,42.0,49.0,49,721.0,square4,r,0.3728,3,V,9.0
V9,17.0,21.0,30.0,34.0,49.0,49,770.0,square4,r,0.0042,3,V,9.0
V9,18.0,25.0,33.0,41.0,51.0,51,821.0,square4,r,0.0771,3,V,9.0
V9,19.0,17.0,31.0,41.0,45.0,31,852.0,square2,i,0.2143,1,V,9.0
V9,20.0,19.0,31.0,34.0,49.0,49,901.0,square4,r,0.0371,3,V,9.0
V9,21.0,23.0,29.0,37.0,48.0,48,949.0,square4,r,0.1878,3,V,9.0
V9,22.0,15.0,32.0,36.0,48.0,48,997.0,square4,r,0.1863,3,V,9.0
V9,23.0,25.0,33.0,39.0,47.0,39,1036.0,square3,f,0.1862,2,V,9.0
V9,24.0,21.0,30.0,38.0,52.0,52,1088.0,square4,r,0.051,3,V,9.0
V9,25.0,25.0,29.0,42.0,48.0,48,1136.0,square4,r,0.4609,3,V,9.0
V9,26.0,22.0,29.0,39.0,47.0,22,1158.0,square1,j,0.0083,0,V,9.0
V9,27.0,17.0,31.0,45.0,41.0,41,1199.0,square4,r,0.1346,3,V,9.0
V9,28.0,29.0,28.0,43.0,43.0,43,1242.0,square4,r,0.04,3,V,9.0
V9,29.0,20.0,31.0,43.0,49.0,49,1291.0,square4,r,0.6776,3,V,9.0
V9,30.0,23.0,33.0,39.0,48.0,48,1339.0,square4,r,0.154,3,V,9.0
V9,31.0,20.0,27.0,38.0,53.0,53,1392.0,square4,r,0.3524,3,V,9.0
V9,32.0,23.0,29.0,37.0,49.0,49,1441.0,square4,r,0.3115,3,V,9.0
V9,33.0,24.0,33.0,37.0,49.0,49,1490.0,square4,r,0.2347,3,V,9.0
V9,34.0,43.0,58.0,48.0,30.0,30,1520.0,square4,r,0.3323,3,V,9.0
V9,35.0,48.0,59.0,45.0,34.0,34,1554.0,square4,r,0.0757,3,V,9.0
V9,36.0,39.0,56.0,54.0,32.0,32,1586.0,square4,r,0.4007,3,V,9.0
V9,37.0,40.0,57.0,50.0,35.0,35,1621.0,square4,r,0.1104,3,V,9.0
V9,38.0,49.0,62.0,51.0,33.0,33,1654.0,square4,r,0.3213,3,V,9.0
V9,39.0,45.0,61.0,48.0,34.0,34,1688.0,square4,r,0.2447,3,V,9.0
V9,40.0,40.0,65.0,51.0,29.0,65,1753.0,square2,i,0.2098,1,V,9.0
V9,41.0,44.0,57.0,50.0,38.0,57,1810.0,square2,i,0.2772,1,V,9.0
V9,42.0,40.0,57.0,49.0,33.0,57,1867.0,square2,i,0.0207,1,V,9.0
V9,43.0,42.0,64.0,54.0,35.0,64,1931.0,square2,i,0.25,1,V,9.0
V9,44.0,44.0,55.0,49.0,39.0,55,1986.0,square2,i,0.1002,1,V,9.0
V9,45.0,37.0,66.0,51.0,35.0,66,2052.0,square2,i,0.0951,1,V,9.0
V9,46.0,40.0,59.0,51.0,32.0,59,2111.0,square2,i,0.2301,1,V,9.0
V9,47.0,38.0,62.0,57.0,31.0,62,2173.0,square2,i,0.0737,1,V,9.0
V9,48.0,43.0,61.0,54.0,34.0,61,2234.0,square2,i,0.4322,1,V,9.0
V9,49.0,43.0,61.0,49.0,40.0,61,2295.0,square2,i,0.1101,1,V,9.0
V9,50.0,37.0,58.0,51.0,32.0,58,2353.0,square2,i,0.1777,1,V,9.0
V9,51.0,44.0,63.0,48.0,39.0,63,2416.0,square2,i,0.1277,1,V,9.0
V9,52.0,35.0,65.0,48.0,30.0,65,2481.0,square2,i,0.3092,1,V,9.0
V9,53.0,43.0,59.0,48.0,39.0,59,2540.0,square2,i,0.1349,1,V,9.0
V9,54.0,43.0,59.0,52.0,30.0,59,2599.0,square2,i,0.0945,1,V,9.0
V9,55.0,41.0,58.0,51.0,34.0,58,2657.0,square2,i,0.1482,1,V,9.0
V9,56.0,44.0,63.0,50.0,33.0,63,2720.0,square2,i,0.1204,1,V,9.0
V9,57.0,42.0,60.0,49.0,32.0,60,2780.0,square2,i,0.1437,1,V,9.0
V9,58.0,44.0,62.0,57.0,30.0,62,2842.0,square2,i,0.1713,1,V,9.0
V9,59.0,45.0,61.0,45.0,31.0,61,2903.0,square2,i,0.1796,1,V,9.0
V9,60.0,43.0,63.0,53.0,33.0,63,2966.0,square2,i,0.1187,1,V,9.0
V9,61.0,39.0,56.0,55.0,31.0,56,3022.0,square2,i,0.0203,1,V,9.0
V9,62.0,39.0,61.0,50.0,34.0,61,3083.0,square2,i,0.0127,1,V,9.0
V9,63.0,44.0,57.0,48.0,36.0,57,3140.0,square2,i,0.2123,1,V,9.0
V9,64.0,40.0,60.0,58.0,35.0,60,3200.0,square2,i,0.1687,1,V,9.0
V9,65.0,42.0,60.0,54.0,38.0,60,3260.0,square2,i,0.1928,1,V,9.0
V9,66.0,41.0,60.0,54.0,37.0,60,3320.0,square2,i,0.2047,1,V,9.0
V9,67.0,43.0,61.0,54.0,40.0,61,3381.0,square2,i,0.1595,1,V,9.0
V9,68.0,45.0,40.0,26.0,18.0,40,3421.0,square2,i,0.2877,1,V,9.0
V9,69.0,50.0,41.0,29.0,20.0,41,3462.0,square2,i,0.2318,1,V,9.0
V9,70.0,43.0,36.0,27.0,15.0,36,3498.0,square2,i,0.2626,1,V,9.0
V9,71.0,44.0,40.0,28.0,18.0,40,3538.0,square2,i,0.304,1,V,9.0
V9,72.0,42.0,38.0,27.0,18.0,38,3576.0,square2,i,0.173,1,V,9.0
V9,73.0,46.0,33.0,25.0,19.0,33,3609.0,square2,i,0.1599,1,V,9.0
V9,74.0,47.0,40.0,28.0,20.0,40,3649.0,square2,i,0.3273,1,V,9.0
V9,75.0,39.0,39.0,27.0,25.0,39,3688.0,square2,i,0.1022,1,V,9.0
V9,76.0,50.0,31.0,29.0,23.0,31,3719.0,square2,i,0.0887,1,V,9.0
V9,77.0,44.0,37.0,28.0,13.0,37,3756.0,square2,i,0.0267,1,V,9.0
V9,78.0,43.0,36.0,23.0,17.0,23,3779.0,square3,f,1.7594,2,V,9.0
V9,79.0,42.0,36.0,28.0,24.0,42,3821.0,square1,j,0.0354,0,V,9.0
V9,80.0,47.0,35.0,30.0,14.0,47,3868.0,square1,j,0.1278,0,V,9.0
V9,81.0,46.0,33.0,29.0,18.0,46,3914.0,square1,j,0.0494,0,V,9.0
V9,82.0,46.0,35.0,28.0,18.0,46,3960.0,square1,j,0.1525,0,V,9.0
V9,83.0,47.0,41.0,32.0,15.0,47,4007.0,square1,j,0.1372,0,V,9.0
V9,84.0,45.0,38.0,31.0,18.0,45,4052.0,square1,j,0.1792,0,V,9.0
V9,85.0,42.0,35.0,30.0,21.0,42,4094.0,square1,j,0.3571,0,V,9.0
V9,86.0,49.0,39.0,23.0,18.0,49,4143.0,square1,j,0.1447,0,V,9.0
V9,87.0,49.0,39.0,27.0,16.0,49,4192.0,square1,j,0.1692,0,V,9.0
V9,88.0,45.0,38.0,25.0,14.0,45,4237.0,square1,j,0.0425,0,V,9.0
V9,89.0,45.0,32.0,28.0,19.0,45,4282.0,square1,j,0.0986,0,V,9.0
V9,90.0,44.0,35.0,29.0,20.0,44,4326.0,square1,j,0.1952,0,V,9.0
V9,91.0,42.0,38.0,32.0,16.0,42,4368.0,square1,j,0.2285,0,V,9.0
V9,92.0,45.0,36.0,23.0,20.0,45,4413.0,square1,j,0.1523,0,V,9.0
V9,93.0,45.0,35.0,26.0,18.0,45,4458.0,square1,j,0.21,0,V,9.0
V9,94.0,44.0,37.0,27.0,13.0,44,4502.0,square1,j,0.0486,0,V,9.0
V9,95.0,46.0,36.0,25.0,20.0,46,4548.0,square1,j,0.011,0,V,9.0
V9,96.0,43.0,39.0,27.0,16.0,43,4591.0,square1,j,0.1818,0,V,9.0
V9,97.0,48.0,39.0,30.0,16.0,48,4639.0,square1,j,0.0947,0,V,9.0
V9,98.0,49.0,40.0,26.0,20.0,49,4688.0,square1,j,0.0349,0,V,9.0
V9,99.0,49.0,41.0,27.0,18.0,49,4737.0,square1,j,0.0845,0,V,9.0
V3,0.0,62.0,45.0,70.0,53.0,99999,0.0,invalid,,,-1,V,3.0
V3,1.0,63.0,47.0,76.0,60.0,47,47.0,square2,r,0.8637,1,V,3.0
V3,2.0,65.0,54.0,73.0,57.0,65,112.0,square1,i,0.032,0,V,3.0
V3,3.0,68.0,51.0,71.0,51.0,68,180.0,square1,i,0.6776,0,V,3.0
V3,4.0,61.0,49.0,75.0,53.0,61,241.0,square1,i,0.0845,0,V,3.0
V3,5.0,65.0,47.0,74.0,50.0,65,306.0,square1,i,0.1354,0,V,3.0
V3,6.0,61.0,51.0,72.0,57.0,61,367.0,square1,i,0.1699,0,V,3.0
V3,7.0,67.0,49.0,75.0,55.0,67,434.0,square1,i,0.0277,0,V,3.0
V3,8.0,64.0,48.0,76.0,56.0,64,498.0,square1,i,0.6944,0,V,3.0
V3,9.0,67.0,49.0,71.0,56.0,67,565.0,square1,i,0.3601,0,V,3.0
V3,10.0,65.0,50.0,71.0,56.0,65,630.0,square1,i,0.1077,0,V,3.0
V3,11.0,63.0,43.0,78.0,58.0,63,693.0,square1,i,0.1482,0,V,3.0
V3,12.0,66.0,53.0,73.0,54.0,66,759.0,square1,i,0.4665,0,V,3.0
V3,13.0,64.0,46.0,78.0,51.0,64,823.0,square1,i,0.1397,0,V,3.0
V3,14.0,67.0,51.0,71.0,58.0,67,890.0,square1,i,0.474,0,V,3.0
V3,15.0,61.0,50.0,73.0,54.0,61,951.0,square1,i,0.0098,0,V,3.0
V3,16.0,64.0,52.0,74.0,54.0,64,1015.0,square1,i,0.1853,0,V,3.0
V3,17.0,61.0,48.0,74.0,55.0,61,1076.0,square1,i,0.2545,0,V,3.0
V3,18.0,65.0,50.0,70.0,59.0,65,1141.0,square1,i,0.126,0,V,3.0
V3,19.0,64.0,52.0,76.0,56.0,64,1205.0,square1,i,0.1103,0,V,3.0
V3,20.0,64.0,50.0,69.0,58.0,64,1269.0,square1,i,0.1762,0,V,3.0
V3,21.0,66.0,50.0,72.0,56.0,66,1335.0,square1,i,0.2123,0,V,3.0
V3,22.0,43.0,48.0,40.0,62.0,43,1378.0,square1,i,0.1782,0,V,3.0
V3,23.0,41.0,51.0,35.0,59.0,41,1419.0,square1,i,0.6265,0,V,3.0
V3,24.0,51.0,51.0,37.0,60.0,51,1470.0,square1,i,0.062,0,V,3.0
V3,25.0,45.0,53.0,36.0,57.0,45,1515.0,square1,i,0.0204,0,V,3.0
V3,26.0,44.0,51.0,38.0,59.0,51,1566.0,square2,r,0.4357,1,V,3.0
V3,27.0,43.0,51.0,34.0,66.0,51,1617.0,square2,r,0.1786,1,V,3.0
V3,28.0,47.0,51.0,40.0,67.0,51,1668.0,square2,r,0.2432,1,V,3.0
V3,29.0,42.0,55.0,35.0,65.0,55,1723.0,square2,r,0.0099,1,V,3.0
V3,30.0,49.0,54.0,36.0,62.0,54,1777.0,square2,r,0.2245,1,V,3.0
V3,31.0,50.0,53.0,42.0,66.0,53,1830.0,square2,r,0.3516,1,V,3.0
V3,32.0,47.0,53.0,34.0,58.0,53,1883.0,square2,r,0.2199,1,V,3.0
V3,33.0,45.0,56.0,34.0,62.0,45,1928.0,square1,i,0.2205,0,V,3.0
V3,34.0,48.0,54.0,38.0,64.0,54,1982.0,square2,r,0.0601,1,V,3.0
V3,35.0,39.0,55.0,42.0,65.0,55,2037.0,square2,r,0.349,1,V,3.0
V3,36.0,46.0,57.0,41.0,63.0,57,2094.0,square2,r,0.1266,1,V,3.0
V3,37.0,43.0,54.0,41.0,65.0,54,2148.0,square2,r,0.0764,1,V,3.0
V3,38.0,47.0,52.0,37.0,63.0,52,2200.0,square2,r,0.0538,1,V,3.0
V3,39.0,47.0,53.0,38.0,55.0,53,2253.0,square2,r,0.1078,1,V,3.0
V3,40.0,41.0,54.0,39.0,64.0,54,2307.0,square2,r,0.0611,1,V,3.0
V3,41.0,48.0,52.0,38.0,64.0,52,2359.0,square2,r,0.0642,1,V,3.0
V3,42.0,45.0,50.0,34.0,63.0,50,2409.0,square2,r,0.0911,1,V,3.0
V3,43.0,44.0,50.0,34.0,62.0,50,2459.0,square2,r,0.2613,1,V,3.0
V3,44.0,47.0,55.0,39.0,65.0,55,2514.0,square2,r,0.2647,1,V,3.0
V3,45.0,45.0,55.0,31.0,63.0,55,2569.0,square2,r,0.0592,1,V,3.0
V3,46.0,42.0,52.0,38.0,64.0,52,2621.0,square2,r,0.0011,1,V,3.0
V3,47.0,44.0,53.0,37.0,55.0,53,2674.0,square2,r,0.2289,1,V,3.0
V3,48.0,44.0,49.0,37.0,58.0,49,2723.0,square2,r,0.4963,1,V,3.0
V3,49.0,48.0,58.0,35.0,54.0,58,2781.0,square2,r,0.3103,1,V,3.0
V3,50.0,42.0,28.0,30.0,52.0,28,2809.0,square2,r,0.5133,1,V,3.0
V3,51.0,46.0,29.0,32.0,51.0,51,2860.0,square4,f,0.4777,3,V,3.0
V3,52.0,37.0,20.0,36.0,50.0,50,2910.0,square4,f,0.0135,3,V,3.0
V3,53.0,44.0,22.0,34.0,55.0,55,2965.0,square4,f,0.1847,3,V,3.0
V3,54.0,37.0,27.0,26.0,50.0,50,3015.0,square4,f,0.2433,3,V,3.0
V3,55.0,41.0,21.0,39.0,53.0,53,3068.0,square4,f,0.0593,3,V,3.0
V3,56.0,40.0,20.0,38.0,51.0,51,3119.0,square4,f,0.195,3,V,3.0
V3,57.0,44.0,28.0,31.0,57.0,57,3176.0,square4,f,0.1819,3,V,3.0
V3,58.0,46.0,20.0,28.0,49.0,49,3225.0,square4,f,0.153,3,V,3.0
V3,59.0,44.0,24.0,30.0,55.0,55,3280.0,square4,f,0.1908,3,V,3.0
V3,60.0,42.0,29.0,29.0,51.0,51,3331.0,square4,f,0.1601,3,V,3.0
V3,61.0,41.0,21.0,30.0,46.0,46,3377.0,square4,f,0.1517,3,V,3.0
V3,62.0,41.0,27.0,31.0,49.0,49,3426.0,square4,f,0.159,3,V,3.0
V3,63.0,42.0,27.0,34.0,51.0,51,3477.0,square4,f,0.1805,3,V,3.0
V3,64.0,41.0,24.0,30.0,47.0,47,3524.0,square4,f,0.3933,3,V,3.0
V3,65.0,36.0,18.0,34.0,48.0,48,3572.0,square4,f,0.1242,3,V,3.0
V3,66.0,39.0,28.0,35.0,45.0,45,3617.0,square4,f,0.2595,3,V,3.0
V3,67.0,42.0,21.0,32.0,46.0,46,3663.0,square4,f,0.1752,3,V,3.0
V3,68.0,40.0,24.0,35.0,53.0,53,3716.0,square4,f,0.0006,3,V,3.0
V3,69.0,48.0,23.0,34.0,50.0,50,3766.0,square4,f,0.0449,3,V,3.0
V3,70.0,40.0,27.0,31.0,49.0,49,3815.0,square4,f,0.1245,3,V,3.0
V3,71.0,41.0,23.0,28.0,51.0,51,3866.0,square4,f,0.2152,3,V,3.0
V3,72.0,42.0,25.0,33.0,55.0,55,3921.0,square4,f,0.0897,3,V,3.0
V3,73.0,41.0,24.0,35.0,55.0,55,3976.0,square4,f,0.0617,3,V,3.0
V3,74.0,38.0,26.0,28.0,53.0,53,4029.0,square4,f,0.1399,3,V,3.0
V3,75.0,54.0,39.0,69.0,50.0,50,4079.0,square4,f,0.0054,3,V,3.0
V3,76.0,55.0,42.0,64.0,53.0,53,4132.0,square4,f,0.0489,3,V,3.0
V3,77.0,59.0,37.0,66.0,44.0,44,4176.0,square4,f,0.0122,3,V,3.0
V3,78.0,58.0,38.0,60.0,46.0,46,4222.0,square4,f,0.2529,3,V,3.0
V3,79.0,54.0,35.0,66.0,49.0,49,4271.0,square4,f,0.0213,3,V,3.0
V3,80.0,60.0,36.0,68.0,44.0,44,4315.0,square4,f,0.2073,3,V,3.0
V3,81.0,55.0,38.0,66.0,51.0,51,4366.0,square4,f,0.0366,3,V,3.0
V3,82.0,57.0,47.0,64.0,50.0,50,4416.0,square4,f,0.0011,3,V,3.0
V3,83.0,57.0,37.0,63.0,45.0,45,4461.0,square4,f,0.2244,3,V,3.0
V3,84.0,54.0,40.0,65.0,53.0,53,4514.0,square4,f,0.1954,3,V,3.0
V3,85.0,58.0,41.0,63.0,48.0,48,4562.0,square4,f,0.1316,3,V,3.0
V3,86.0,53.0,38.0,57.0,49.0,49,4611.0,square4,f,0.0537,3,V,3.0
V3,87.0,49.0,42.0,60.0,43.0,43,4654.0,square4,f,0.1748,3,V,3.0
V3,88.0,56.0,35.0,70.0,46.0,46,4700.0,square4,f,0.2077,3,V,3.0
V3,89.0,58.0,39.0,63.0,52.0,52,4752.0,square4,f,0.2157,3,V,3.0
V3,90.0,59.0,43.0,63.0,45.0,45,4797.0,square4,f,0.0267,3,V,3.0
V3,91.0,54.0,37.0,69.0,49.0,49,4846.0,square4,f,0.1028,3,V,3.0
V3,92.0,56.0,41.0,61.0,47.0,47,4893.0,square4,f,0.0008,3,V,3.0
V3,93.0,58.0,35.0,68.0,47.0,47,4940.0,square4,f,0.0815,3,V,3.0
V3,94.0,61.0,37.0,67.0,51.0,51,4991.0,square4,f,0.0114,3,V,3.0
V3,95.0,57.0,32.0,64.0,47.0,47,5038.0,square4,f,0.07,3,V,3.0
V3,96.0,53.0,38.0,63.0,48.0,48,5086.0,square4,f,0.2339,3,V,3.0
V3,97.0,57.0,44.0,71.0,50.0,50,5136.0,square4,f,0.0613,3,V,3.0
V3,98.0,56.0,39.0,70.0,47.0,47,5183.0,square4,f,0.0676,3,V,3.0
V3,99.0,62.0,40.0,67.0,49.0,49,5232.0,square4,f,0.0447,3,V,3.0
