block,Trial,square1,square2,square3,square4,currPoints,totalPoints,square,choiceKey.keys,choiceKey.rt,armNum,blockType,blockNum
prac,0.0,100.0,0.0,0.0,0.0,99999,0.0,invalid,,,-1,p,0.0
prac,1.0,100.0,0.0,0.0,0.0,99999,0.0,invalid,,,-1,p,0.0
prac,2.0,100.0,0.0,0.0,0.0,0,0.0,square3,,,2,p,0.0
prac,3.0,100.0,0.0,0.0,0.0,100,100.0,square1,,,0,p,0.0
prac,4.0,100.0,0.0,0.0,0.0,0,100.0,square2,,,1,p,0.0
prac,5.0,100.0,0.0,0.0,0.0,100,200.0,square1,,,0,p,0.0
prac,6.0,100.0,0.0,0.0,0.0,0,200.0,square3,,,2,p,0.0
prac,7.0,100.0,0.0,0.0,0.0,0,200.0,square4,,,3,p,0.0
prac,8.0,100.0,0.0,0.0,0.0,0,200.0,square2,,,1,p,0.0
prac,9.0,100.0,0.0,0.0,0.0,100,300.0,square1,,,0,p,0.0
S6,0.0,40.0,29.0,39.0,26.0,26,26.0,square4,r,0.9456,3,S,6.0
S6,1.0,34.0,40.0,31.0,25.0,34,60.0,square1,f,0.1263,0,S,6.0
S6,2.0,37.0,31.0,25.0,30.0,25,85.0,square3,i,0.4067,2,S,6.0
S6,3.0,39.0,37.0,30.0,27.0,37,122.0,square2,j,0.3524,1,S,6.0
S6,4.0,42.0,40.0,28.0,32.0,40,162.0,square2,j,0.7249,1,S,6.0
S6,5.0,35.0,35.0,39.0,29.0,35,197.0,square2,j,0.298,1,S,6.0
S6,6.0,48.0,30.0,37.0,33.0,30,227.0,square2,j,0.5384,1,S,6.0
S6,7.0,47.0,34.0,31.0,29.0,29,256.0,square4,r,0.5719,3,S,6.0
S6,8.0,43.0,35.0,30.0,25.0,30,286.0,square3,i,0.1398,2,S,6.0
S6,9.0,36.0,38.0,35.0,35.0,36,322.0,square1,f,0.0842,0,S,6.0
S6,10.0,38.0,35.0,31.0,21.0,35,357.0,square2,j,0.2722,1,S,6.0
S6,11.0,30.0,36.0,31.0,20.0,30,387.0,square1,f,0.1648,0,S,6.0
S6,12.0,37.0,40.0,33.0,22.0,40,427.0,square2,j,0.2447,1,S,6.0
S6,13.0,32.0,41.0,35.0,29.0,41,468.0,square2,j,0.2486,1,S,6.0
S6,14.0,41.0,29.0,30.0,32.0,29,497.0,square2,j,0.1707,1,S,6.0
S6,15.0,43.0,37.0,31.0,27.0,37,534.0,square2,j,0.2185,1,S,6.0
S6,16.0,34.0,34.0,35.0,31.0,34,568.0,square1,f,0.3358,0,S,6.0
S6,17.0,47.0,40.0,29.0,28.0,40,608.0,square2,j,0.0187,1,S,6.0
S6,18.0,37.0,38.0,34.0,35.0,34,642.0,square3,i,0.2961,2,S,6.0
S6,19.0,36.0,39.0,31.0,26.0,39,681.0,square2,j,0.1282,1,S,6.0
S6,20.0,44.0,40.0,31.0,25.0,25,706.0,square4,r,0.2865,3,S,6.0
S6,21.0,39.0,41.0,35.0,24.0,41,747.0,square2,j,0.005,1,S,6.0
S6,22.0,41.0,38.0,41.0,31.0,41,788.0,square1,f,0.3797,0,S,6.0
S6,23.0,37.0,31.0,30.0,32.0,31,819.0,square2,j,0.2831,1,S,6.0
S6,24.0,48.0,34.0,34.0,21.0,34,853.0,square3,i,0.3091,2,S,6.0
S6,25.0,42.0,45.0,26.0,29.0,45,898.0,square2,j,0.0465,1,S,6.0
S6,26.0,40.0,39.0,36.0,28.0,28,926.0,square4,r,0.1668,3,S,6.0
S6,27.0,42.0,33.0,29.0,29.0,33,959.0,square2,j,0.2799,1,S,6.0
S6,28.0,41.0,30.0,29.0,29.0,41,1000.0,square1,f,0.099,0,S,6.0
S6,29.0,42.0,40.0,32.0,27.0,40,1040.0,square2,j,0.0453,1,S,6.0
S6,30.0,42.0,36.0,30.0,26.0,42,1082.0,square1,f,0.0862,0,S,6.0
S6,31.0,42.0,34.0,35.0,29.0,35,1117.0,square3,i,0.0453,2,S,6.0
S6,32.0,35.0,36.0,31.0,23.0,35,1152.0,square1,f,0.4729,0,S,6.0
S6,33.0,35.0,31.0,35.0,30.0,35,1187.0,square3,i,0.0451,2,S,6.0
S6,34.0,40.0,38.0,31.0,27.0,40,1227.0,square1,f,0.0857,0,S,6.0
S6,35.0,42.0,37.0,34.0,34.0,37,1264.0,square2,j,0.4061,1,S,6.0
S6,36.0,37.0,46.0,31.0,34.0,37,1301.0,square1,f,0.3113,0,S,6.0
S6,37.0,38.0,40.0,30.0,26.0,40,1341.0,square2,j,0.1254,1,S,6.0
S6,38.0,36.0,34.0,31.0,33.0,36,1377.0,square1,f,0.2589,0,S,6.0
S6,39.0,44.0,37.0,33.0,31.0,31,1408.0,square4,r,0.2176,3,S,6.0
S6,40.0,40.0,38.0,31.0,25.0,40,1448.0,square1,f,0.2323,0,S,6.0
S6,41.0,49.0,35.0,35.0,28.0,35,1483.0,square2,j,0.192,1,S,6.0
S6,42.0,44.0,40.0,32.0,28.0,44,1527.0,square1,f,0.0049,0,S,6.0
S6,43.0,43.0,36.0,33.0,26.0,33,1560.0,square3,i,0.0318,2,S,6.0
S6,44.0,38.0,33.0,34.0,26.0,33,1593.0,square2,j,0.0184,1,S,6.0
S6,45.0,32.0,35.0,30.0,28.0,32,1625.0,square1,f,0.2875,0,S,6.0
S6,46.0,38.0,36.0,34.0,30.0,36,1661.0,square2,j,0.0715,1,S,6.0
S6,47.0,44.0,35.0,32.0,31.0,31,1692.0,square4,r,0.3139,3,S,6.0
S6,48.0,40.0,40.0,31.0,33.0,40,1732.0,square2,j,0.6451,1,S,6.0
S6,49.0,41.0,29.0,29.0,29.0,29,1761.0,square3,i,0.4771,2,S,6.0
S5,0.0,90.0,70.0,79.0,84.0,79,79.0,square3,f,0.9806,2,S,5.0
S5,1.0,92.0,77.0,83.0,81.0,81,160.0,square4,i,0.3521,3,S,5.0
S5,2.0,83.0,72.0,81.0,76.0,72,232.0,square2,r,0.2581,1,S,5.0
S5,3.0,87.0,72.0,79.0,81.0,87,319.0,square1,j,0.2127,0,S,5.0
S5,4.0,86.0,81.0,78.0,72.0,78,397.0,square3,f,0.4804,2,S,5.0
S5,5.0,89.0,70.0,79.0,83.0,83,480.0,square4,i,0.0899,3,S,5.0
S5,6.0,86.0,69.0,81.0,81.0,69,549.0,square2,r,0.0058,1,S,5.0
S5,7.0,82.0,72.0,86.0,80.0,82,631.0,square1,j,0.1031,0,S,5.0
S5,8.0,84.0,67.0,80.0,77.0,80,711.0,square3,f,0.3378,2,S,5.0
S5,9.0,92.0,80.0,86.0,84.0,84,795.0,square4,i,0.0191,3,S,5.0
S5,10.0,82.0,71.0,80.0,80.0,71,866.0,square2,r,0.0604,1,S,5.0
S5,11.0,80.0,75.0,79.0,75.0,80,946.0,square1,j,0.118,0,S,5.0
S5,12.0,84.0,75.0,80.0,82.0,84,1030.0,square1,j,0.2591,0,S,5.0
S5,13.0,85.0,74.0,74.0,81.0,85,1115.0,square1,j,0.2284,0,S,5.0
S5,14.0,81.0,79.0,85.0,81.0,81,1196.0,square1,j,0.7032,0,S,5.0
S5,15.0,81.0,75.0,76.0,77.0,76,1272.0,square3,f,0.1564,2,S,5.0
S5,16.0,86.0,74.0,78.0,74.0,86,1358.0,square1,j,0.0899,0,S,5.0
S5,17.0,81.0,77.0,81.0,77.0,81,1439.0,square1,j,0.1314,0,S,5.0
S5,18.0,87.0,70.0,84.0,82.0,87,1526.0,square1,j,0.075,0,S,5.0
S5,19.0,84.0,76.0,83.0,76.0,76,1602.0,square4,i,0.1828,3,S,5.0
S5,20.0,79.0,78.0,82.0,76.0,79,1681.0,square1,j,0.0194,0,S,5.0
S5,21.0,86.0,68.0,80.0,72.0,86,1767.0,square1,j,0.0054,0,S,5.0
S5,22.0,93.0,80.0,85.0,84.0,93,1860.0,square1,j,0.3247,0,S,5.0
S5,23.0,87.0,73.0,76.0,70.0,73,1933.0,square2,r,0.0618,1,S,5.0
S5,24.0,85.0,69.0,81.0,78.0,85,2018.0,square1,j,0.1896,0,S,5.0
S5,25.0,89.0,77.0,77.0,76.0,89,2107.0,square1,j,0.3307,0,S,5.0
S5,26.0,84.0,71.0,81.0,75.0,84,2191.0,square1,j,0.1586,0,S,5.0
S5,27.0,84.0,75.0,82.0,71.0,75,2266.0,square2,r,0.1177,1,S,5.0
S5,28.0,83.0,72.0,82.0,78.0,72,2338.0,square2,r,0.1322,1,S,5.0
S5,29.0,91.0,67.0,79.0,74.0,67,2405.0,square2,r,0.0354,1,S,5.0
S5,30.0,82.0,69.0,81.0,77.0,81,2486.0,square3,f,0.1043,2,S,5.0
S5,31.0,82.0,72.0,80.0,78.0,80,2566.0,square3,f,0.019,2,S,5.0
S5,32.0,83.0,73.0,91.0,80.0,91,2657.0,square3,f,0.0474,2,S,5.0
S5,33.0,83.0,68.0,85.0,78.0,78,2735.0,square4,i,0.0895,3,S,5.0
S5,34.0,89.0,79.0,83.0,77.0,77,2812.0,square4,i,0.1591,3,S,5.0
S5,35.0,88.0,72.0,79.0,80.0,80,2892.0,square4,i,0.0338,3,S,5.0
S5,36.0,90.0,74.0,84.0,76.0,90,2982.0,square1,j,0.0756,0,S,5.0
S5,37.0,85.0,75.0,80.0,82.0,85,3067.0,square1,j,0.1757,0,S,5.0
S5,38.0,78.0,74.0,85.0,79.0,78,3145.0,square1,j,0.0193,0,S,5.0
S5,39.0,87.0,73.0,87.0,85.0,87,3232.0,square1,j,0.131,0,S,5.0
S5,40.0,83.0,67.0,81.0,80.0,83,3315.0,square1,j,0.0476,0,S,5.0
S5,41.0,82.0,69.0,88.0,80.0,82,3397.0,square1,j,0.1722,0,S,5.0
S5,42.0,85.0,78.0,91.0,80.0,85,3482.0,square1,j,0.1732,0,S,5.0
S5,43.0,89.0,74.0,78.0,74.0,89,3571.0,square1,j,0.0065,0,S,5.0
S5,44.0,90.0,74.0,77.0,85.0,90,3661.0,square1,j,0.1592,0,S,5.0
S5,45.0,89.0,68.0,81.0,78.0,89,3750.0,square1,j,0.1872,0,S,5.0
S5,46.0,86.0,70.0,86.0,68.0,86,3836.0,square1,j,0.0477,0,S,5.0
S5,47.0,90.0,77.0,85.0,84.0,90,3926.0,square1,j,0.0056,0,S,5.0
S5,48.0,76.0,66.0,82.0,79.0,76,4002.0,square1,j,0.7734,0,S,5.0
S5,49.0,84.0,73.0,82.0,75.0,84,4086.0,square1,j,0.2591,0,S,5.0
S3,0.0,38.0,48.0,42.0,57.0,42,42.0,square3,j,1.0377,2,S,3.0
S3,1.0,29.0,43.0,51.0,57.0,43,85.0,square2,f,0.3255,1,S,3.0
S3,2.0,41.0,49.0,46.0,49.0,41,126.0,square1,i,0.1047,0,S,3.0
S3,3.0,44.0,50.0,45.0,52.0,52,178.0,square4,r,0.0754,3,S,3.0
S3,4.0,37.0,51.0,45.0,58.0,58,236.0,square4,r,0.2698,3,S,3.0
S3,5.0,47.0,43.0,42.0,49.0,43,279.0,square2,f,0.2266,1,S,3.0
S3,6.0,44.0,53.0,51.0,58.0,51,330.0,square3,j,0.1773,2,S,3.0
S3,7.0,39.0,47.0,46.0,54.0,39,369.0,square1,i,0.0056,0,S,3.0
S3,8.0,43.0,53.0,41.0,52.0,52,421.0,square4,r,0.1311,3,S,3.0
S3,9.0,42.0,46.0,41.0,53.0,53,474.0,square4,r,0.1709,3,S,3.0
S3,10.0,37.0,49.0,49.0,55.0,55,529.0,square4,r,0.1445,3,S,3.0
S3,11.0,40.0,47.0,36.0,59.0,40,569.0,square1,i,0.0895,0,S,3.0
S3,12.0,46.0,51.0,39.0,56.0,46,615.0,square1,i,0.1064,0,S,3.0
S3,13.0,39.0,48.0,45.0,57.0,39,654.0,square1,i,0.3252,0,S,3.0
S3,14.0,39.0,55.0,43.0,47.0,43,697.0,square3,j,0.5362,2,S,3.0
S3,15.0,46.0,46.0,47.0,52.0,47,744.0,square3,j,0.2138,2,S,3.0
S3,16.0,42.0,49.0,50.0,55.0,50,794.0,square3,j,0.1974,2,S,3.0
S3,17.0,45.0,45.0,56.0,47.0,45,839.0,square2,f,0.2423,1,S,3.0
S3,18.0,46.0,43.0,45.0,50.0,43,882.0,square2,f,0.1477,1,S,3.0
S3,19.0,41.0,47.0,50.0,55.0,47,929.0,square2,f,0.1169,1,S,3.0
S3,20.0,45.0,52.0,49.0,52.0,52,981.0,square4,r,0.269,3,S,3.0
S3,21.0,40.0,43.0,47.0,46.0,46,1027.0,square4,r,0.2268,3,S,3.0
S3,22.0,45.0,46.0,44.0,47.0,47,1074.0,square4,r,0.2069,3,S,3.0
S3,23.0,36.0,50.0,42.0,46.0,46,1120.0,square4,r,0.2573,3,S,3.0
S3,24.0,42.0,54.0,49.0,55.0,55,1175.0,square4,r,0.2562,3,S,3.0
S3,25.0,43.0,51.0,44.0,54.0,54,1229.0,square4,r,0.2715,3,S,3.0
S3,26.0,49.0,50.0,52.0,52.0,52,1281.0,square4,r,0.132,3,S,3.0
S3,27.0,47.0,52.0,44.0,50.0,50,1331.0,square4,r,0.6996,3,S,3.0
S3,28.0,37.0,48.0,40.0,47.0,47,1378.0,square4,r,0.1774,3,S,3.0
S3,29.0,50.0,43.0,50.0,57.0,50,1428.0,square3,j,0.3097,2,S,3.0
S3,30.0,50.0,50.0,46.0,47.0,46,1474.0,square3,j,0.2144,2,S,3.0
S3,31.0,37.0,53.0,49.0,56.0,49,1523.0,square3,j,0.061,2,S,3.0
S3,32.0,42.0,50.0,43.0,58.0,43,1566.0,square3,j,0.1632,2,S,3.0
S3,33.0,44.0,49.0,46.0,59.0,44,1610.0,square1,i,0.0898,0,S,3.0
S3,34.0,42.0,50.0,50.0,58.0,42,1652.0,square1,i,0.0607,0,S,3.0
S3,35.0,43.0,46.0,45.0,50.0,50,1702.0,square4,r,0.1165,3,S,3.0
S3,36.0,46.0,52.0,50.0,48.0,48,1750.0,square4,r,0.2256,3,S,3.0
S3,37.0,48.0,50.0,49.0,52.0,52,1802.0,square4,r,0.1328,3,S,3.0
S3,38.0,39.0,43.0,50.0,55.0,55,1857.0,square4,r,0.1869,3,S,3.0
S3,39.0,50.0,53.0,46.0,57.0,57,1914.0,square4,r,0.2413,3,S,3.0
S3,40.0,41.0,46.0,48.0,55.0,55,1969.0,square4,r,0.2578,3,S,3.0
S3,41.0,49.0,49.0,40.0,56.0,56,2025.0,square4,r,0.2611,3,S,3.0
S3,42.0,47.0,49.0,43.0,48.0,48,2073.0,square4,r,0.2822,3,S,3.0
S3,43.0,46.0,43.0,41.0,58.0,58,2131.0,square4,r,0.3116,3,S,3.0
S3,44.0,46.0,52.0,51.0,55.0,55,2186.0,square4,r,0.2187,3,S,3.0
S3,45.0,46.0,41.0,46.0,49.0,49,2235.0,square4,r,0.2693,3,S,3.0
S3,46.0,32.0,56.0,40.0,50.0,50,2285.0,square4,r,0.3142,3,S,3.0
S3,47.0,42.0,49.0,44.0,51.0,51,2336.0,square4,r,0.2742,3,S,3.0
S3,48.0,36.0,45.0,38.0,50.0,50,2386.0,square4,r,0.2003,3,S,3.0
S3,49.0,45.0,48.0,47.0,52.0,52,2438.0,square4,r,0.1029,3,S,3.0
S7,0.0,68.0,73.0,62.0,57.0,73,73.0,square2,r,0.8857,1,S,7.0
S7,1.0,74.0,67.0,66.0,59.0,74,147.0,square1,f,0.3573,0,S,7.0
S7,2.0,68.0,69.0,65.0,60.0,60,207.0,square4,j,0.0354,3,S,7.0
S7,3.0,74.0,68.0,65.0,63.0,65,272.0,square3,i,0.172,2,S,7.0
S7,4.0,68.0,74.0,67.0,63.0,63,335.0,square4,j,0.0739,3,S,7.0
S7,5.0,68.0,67.0,61.0,57.0,61,396.0,square3,i,0.1857,2,S,7.0
S7,6.0,72.0,64.0,65.0,51.0,64,460.0,square2,r,0.1446,1,S,7.0
S7,7.0,69.0,63.0,69.0,63.0,69,529.0,square1,f,0.5194,0,S,7.0
S7,8.0,71.0,68.0,63.0,54.0,68,597.0,square2,r,0.3375,1,S,7.0
S7,9.0,81.0,66.0,68.0,62.0,66,663.0,square2,r,0.2474,1,S,7.0
S7,10.0,72.0,73.0,68.0,61.0,68,731.0,square3,i,0.2954,2,S,7.0
S7,11.0,72.0,72.0,62.0,58.0,62,793.0,square3,i,0.1723,2,S,7.0
S7,12.0,66.0,66.0,62.0,61.0,61,854.0,square4,j,0.2018,3,S,7.0
S7,13.0,73.0,75.0,75.0,68.0,68,922.0,square4,j,0.1894,3,S,7.0
S7,14.0,71.0,73.0,72.0,66.0,71,993.0,square1,f,0.2272,0,S,7.0
S7,15.0,75.0,68.0,68.0,65.0,75,1068.0,square1,f,0.2285,0,S,7.0
S7,16.0,67.0,65.0,62.0,56.0,67,1135.0,square1,f,0.2497,0,S,7.0
S7,17.0,72.0,67.0,63.0,64.0,72,1207.0,square1,f,0.2009,0,S,7.0
S7,18.0,73.0,69.0,66.0,65.0,73,1280.0,square1,f,0.2135,0,S,7.0
S7,19.0,75.0,70.0,62.0,58.0,75,1355.0,square1,f,0.2562,0,S,7.0
S7,20.0,76.0,63.0,67.0,62.0,76,1431.0,square1,f,0.2754,0,S,7.0
S7,21.0,79.0,76.0,63.0,64.0,79,1510.0,square1,f,0.062,0,S,7.0
S7,22.0,67.0,72.0,63.0,62.0,67,1577.0,square1,f,0.2139,0,S,7.0
S7,23.0,69.0,71.0,70.0,62.0,69,1646.0,square1,f,0.2294,0,S,7.0
S7,24.0,74.0,67.0,70.0,62.0,74,1720.0,square1,f,0.2875,0,S,7.0
S7,25.0,70.0,67.0,72.0,62.0,70,1790.0,square1,f,0.0896,0,S,7.0
S7,26.0,72.0,62.0,74.0,65.0,72,1862.0,square1,f,0.312,0,S,7.0
S7,27.0,69.0,70.0,68.0,62.0,69,1931.0,square1,f,0.385,0,S,7.0
S7,28.0,65.0,66.0,60.0,62.0,65,1996.0,square1,f,0.2965,0,S,7.0
S7,29.0,70.0,64.0,60.0,68.0,70,2066.0,square1,f,0.5828,0,S,7.0
S7,30.0,69.0,69.0,64.0,57.0,69,2135.0,square1,f,0.5408,0,S,7.0
S7,31.0,77.0,67.0,65.0,60.0,77,2212.0,square1,f,0.4275,0,S,7.0
S7,32.0,67.0,75.0,65.0,58.0,67,2279.0,square1,f,0.7325,0,S,7.0
S7,33.0,74.0,66.0,66.0,60.0,74,2353.0,square1,f,0.2402,0,S,7.0
S7,34.0,72.0,72.0,66.0,61.0,72,2425.0,square1,f,1.1038,0,S,7.0
S7,35.0,67.0,68.0,64.0,62.0,67,2492.0,square1,f,1.0412,0,S,7.0
S7,36.0,64.0,63.0,70.0,58.0,64,2556.0,square1,f,1.5162,0,S,7.0
S7,37.0,80.0,72.0,64.0,53.0,80,2636.0,square1,f,0.617,0,S,7.0
S7,38.0,78.0,69.0,76.0,67.0,78,2714.0,square1,f,0.4178,0,S,7.0
S7,39.0,69.0,66.0,60.0,67.0,69,2783.0,square1,f,0.3945,0,S,7.0
S7,40.0,72.0,71.0,63.0,66.0,72,2855.0,square1,f,0.2921,0,S,7.0
S7,41.0,80.0,73.0,65.0,63.0,80,2935.0,square1,f,0.367,0,S,7.0
S7,42.0,77.0,60.0,65.0,59.0,77,3012.0,square1,f,0.3807,0,S,7.0
S7,43.0,70.0,72.0,70.0,63.0,70,3082.0,square1,f,0.5112,0,S,7.0
S7,44.0,77.0,70.0,66.0,58.0,77,3159.0,square1,f,0.379,0,S,7.0
S7,45.0,75.0,69.0,73.0,58.0,75,3234.0,square1,f,0.4552,0,S,7.0
S7,46.0,74.0,71.0,63.0,63.0,74,3308.0,square1,f,0.5073,0,S,7.0
S7,47.0,73.0,75.0,71.0,64.0,73,3381.0,square1,f,0.1731,0,S,7.0
S7,48.0,78.0,79.0,64.0,58.0,78,3459.0,square1,f,0.5339,0,S,7.0
S7,49.0,75.0,72.0,66.0,72.0,75,3534.0,square1,f,0.1636,0,S,7.0
S12,0.0,38.0,42.0,30.0,42.0,38,38.0,square1,r,1.0113,0,S,12.0
S12,1.0,30.0,42.0,28.0,37.0,30,68.0,square1,r,0.2148,0,S,12.0
S12,2.0,34.0,41.0,38.0,43.0,43,111.0,square4,i,0.2443,3,S,12.0
S12,3.0,38.0,51.0,38.0,38.0,38,149.0,square4,i,0.219,3,S,12.0
S12,4.0,32.0,37.0,33.0,45.0,37,186.0,square2,j,0.2412,1,S,12.0
S12,5.0,38.0,52.0,36.0,35.0,52,238.0,square2,j,0.1166,1,S,12.0
S12,6.0,30.0,43.0,30.0,38.0,30,268.0,square3,f,0.2416,2,S,12.0
S12,7.0,38.0,39.0,30.0,39.0,30,298.0,square3,f,0.0796,2,S,12.0
S12,8.0,37.0,49.0,35.0,38.0,37,335.0,square1,r,0.1589,0,S,12.0
S12,9.0,37.0,44.0,29.0,38.0,37,372.0,square1,r,0.2133,0,S,12.0
S12,10.0,35.0,42.0,30.0,45.0,45,417.0,square4,i,0.172,3,S,12.0
S12,11.0,34.0,45.0,36.0,32.0,32,449.0,square4,i,0.0613,3,S,12.0
S12,12.0,33.0,45.0,35.0,42.0,35,484.0,square3,f,0.1628,2,S,12.0
S12,13.0,36.0,36.0,29.0,40.0,29,513.0,square3,f,0.2686,2,S,12.0
S12,14.0,36.0,49.0,32.0,42.0,49,562.0,square2,j,0.1986,1,S,12.0
S12,15.0,35.0,43.0,35.0,46.0,43,605.0,square2,j,0.1163,1,S,12.0
S12,16.0,39.0,48.0,41.0,43.0,48,653.0,square2,j,0.1057,1,S,12.0
S12,17.0,35.0,47.0,27.0,38.0,47,700.0,square2,j,0.1453,1,S,12.0
S12,18.0,37.0,51.0,33.0,33.0,51,751.0,square2,j,0.2544,1,S,12.0
S12,19.0,41.0,42.0,33.0,36.0,36,787.0,square4,i,0.2137,3,S,12.0
S12,20.0,34.0,44.0,26.0,41.0,44,831.0,square2,j,0.2025,1,S,12.0
S12,21.0,35.0,37.0,29.0,35.0,29,860.0,square3,f,0.2554,2,S,12.0
S12,22.0,37.0,48.0,31.0,41.0,48,908.0,square2,j,0.1719,1,S,12.0
S12,23.0,36.0,43.0,27.0,45.0,36,944.0,square1,r,0.3107,0,S,12.0
S12,24.0,39.0,48.0,38.0,38.0,48,992.0,square2,j,0.1624,1,S,12.0
S12,25.0,31.0,43.0,30.0,40.0,43,1035.0,square2,j,0.2003,1,S,12.0
S12,26.0,35.0,48.0,34.0,33.0,48,1083.0,square2,j,0.2976,1,S,12.0
S12,27.0,46.0,46.0,28.0,38.0,38,1121.0,square4,i,0.4006,3,S,12.0
S12,28.0,32.0,37.0,32.0,40.0,37,1158.0,square2,j,0.186,1,S,12.0
S12,29.0,38.0,41.0,32.0,44.0,32,1190.0,square3,f,0.2824,2,S,12.0
S12,30.0,32.0,48.0,29.0,42.0,42,1232.0,square4,i,0.0341,3,S,12.0
S12,31.0,34.0,46.0,30.0,42.0,46,1278.0,square2,j,0.218,1,S,12.0
S12,32.0,39.0,43.0,41.0,40.0,40,1318.0,square4,i,0.102,3,S,12.0
S12,33.0,36.0,47.0,33.0,46.0,47,1365.0,square2,j,0.2139,1,S,12.0
S12,34.0,36.0,41.0,34.0,41.0,41,1406.0,square4,i,0.1451,3,S,12.0
S12,35.0,34.0,42.0,31.0,43.0,42,1448.0,square2,j,0.0764,1,S,12.0
S12,36.0,39.0,43.0,26.0,33.0,43,1491.0,square2,j,0.2471,1,S,12.0
S12,37.0,39.0,49.0,30.0,42.0,42,1533.0,square4,i,0.0332,3,S,12.0
S12,38.0,33.0,47.0,36.0,41.0,41,1574.0,square4,i,0.116,3,S,12.0
S12,39.0,29.0,46.0,35.0,36.0,46,1620.0,square2,j,0.2839,1,S,12.0
S12,40.0,39.0,39.0,29.0,36.0,39,1659.0,square2,j,0.0472,1,S,12.0
S12,41.0,33.0,44.0,31.0,40.0,44,1703.0,square2,j,0.2062,1,S,12.0
S12,42.0,34.0,46.0,25.0,37.0,46,1749.0,square2,j,0.2408,1,S,12.0
S12,43.0,37.0,42.0,30.0,42.0,42,1791.0,square2,j,0.7771,1,S,12.0
S12,44.0,33.0,49.0,36.0,39.0,49,1840.0,square2,j,0.255,1,S,12.0
S12,45.0,35.0,40.0,30.0,47.0,40,1880.0,square2,j,0.316,1,S,12.0
S12,46.0,40.0,41.0,29.0,35.0,35,1915.0,square4,i,0.2329,3,S,12.0
S12,47.0,32.0,42.0,28.0,43.0,43,1958.0,square4,i,0.0596,3,S,12.0
S12,48.0,43.0,47.0,31.0,38.0,38,1996.0,square4,i,0.2255,3,S,12.0
S12,49.0,37.0,41.0,35.0,40.0,41,2037.0,square2,j,0.3999,1,S,12.0
S8,0.0,58.0,60.0,52.0,45.0,52,52.0,square3,j,1.0276,2,S,8.0
S8,1.0,55.0,57.0,56.0,52.0,55,107.0,square1,i,1.233,0,S,8.0
S8,2.0,54.0,58.0,58.0,49.0,58,165.0,square2,r,0.4327,1,S,8.0
S8,3.0,55.0,62.0,52.0,53.0,53,218.0,square4,f,0.2977,3,S,8.0
S8,4.0,55.0,60.0,49.0,51.0,60,278.0,square2,r,0.2207,1,S,8.0
S8,5.0,48.0,63.0,61.0,49.0,48,326.0,square1,i,0.7148,0,S,8.0
S8,6.0,58.0,63.0,59.0,55.0,59,385.0,square3,j,0.3868,2,S,8.0
S8,7.0,56.0,53.0,49.0,51.0,53,438.0,square2,r,0.267,1,S,8.0
S8,8.0,61.0,63.0,66.0,49.0,66,504.0,square3,j,0.3123,2,S,8.0
S8,9.0,60.0,59.0,53.0,47.0,59,563.0,square2,r,0.3492,1,S,8.0
S8,10.0,55.0,63.0,52.0,55.0,52,615.0,square3,j,0.4348,2,S,8.0
S8,11.0,62.0,60.0,54.0,50.0,60,675.0,square2,r,0.2376,1,S,8.0
S8,12.0,58.0,64.0,51.0,52.0,51,726.0,square3,j,0.1643,2,S,8.0
S8,13.0,62.0,59.0,53.0,53.0,59,785.0,square2,r,0.1837,1,S,8.0
S8,14.0,51.0,62.0,61.0,54.0,61,846.0,square3,j,0.2184,2,S,8.0
S8,15.0,56.0,68.0,56.0,50.0,56,902.0,square3,j,0.2335,2,S,8.0
S8,16.0,58.0,64.0,56.0,50.0,56,958.0,square3,j,0.296,2,S,8.0
S8,17.0,64.0,63.0,60.0,42.0,63,1021.0,square2,r,1.2153,1,S,8.0
S8,18.0,54.0,64.0,57.0,55.0,57,1078.0,square3,j,0.3154,2,S,8.0
S8,19.0,56.0,53.0,57.0,53.0,53,1131.0,square2,r,0.2691,1,S,8.0
S8,20.0,59.0,64.0,56.0,49.0,64,1195.0,square2,r,0.1021,1,S,8.0
S8,21.0,54.0,59.0,55.0,48.0,59,1254.0,square2,r,0.2468,1,S,8.0
S8,22.0,63.0,63.0,59.0,49.0,59,1313.0,square3,j,0.2606,2,S,8.0
S8,23.0,59.0,60.0,48.0,52.0,48,1361.0,square3,j,0.087,2,S,8.0
S8,24.0,55.0,53.0,60.0,50.0,60,1421.0,square3,j,0.2549,2,S,8.0
S8,25.0,57.0,60.0,55.0,54.0,55,1476.0,square3,j,0.2296,2,S,8.0
S8,26.0,62.0,66.0,57.0,58.0,66,1542.0,square2,r,0.2767,1,S,8.0
S8,27.0,58.0,55.0,52.0,48.0,55,1597.0,square2,r,0.1438,1,S,8.0
S8,28.0,53.0,59.0,53.0,55.0,59,1656.0,square2,r,0.2142,1,S,8.0
S8,29.0,60.0,58.0,57.0,53.0,58,1714.0,square2,r,0.243,1,S,8.0
S8,30.0,57.0,67.0,52.0,56.0,67,1781.0,square2,r,0.2439,1,S,8.0
S8,31.0,60.0,58.0,52.0,50.0,58,1839.0,square2,r,0.2546,1,S,8.0
S8,32.0,54.0,61.0,56.0,57.0,61,1900.0,square2,r,0.2305,1,S,8.0
S8,33.0,66.0,64.0,63.0,52.0,64,1964.0,square2,r,0.2899,1,S,8.0
S8,34.0,54.0,65.0,66.0,56.0,65,2029.0,square2,r,0.2411,1,S,8.0
S8,35.0,54.0,62.0,61.0,48.0,62,2091.0,square2,r,0.1158,1,S,8.0
S8,36.0,53.0,63.0,54.0,55.0,63,2154.0,square2,r,0.215,1,S,8.0
S8,37.0,64.0,58.0,57.0,51.0,58,2212.0,square2,r,0.3976,1,S,8.0
S8,38.0,68.0,65.0,59.0,57.0,65,2277.0,square2,r,0.4227,1,S,8.0
S8,39.0,64.0,65.0,51.0,55.0,65,2342.0,square2,r,0.414,1,S,8.0
S8,40.0,63.0,61.0,57.0,47.0,61,2403.0,square2,r,0.3527,1,S,8.0
S8,41.0,65.0,58.0,55.0,49.0,58,2461.0,square2,r,0.3732,1,S,8.0
S8,42.0,52.0,60.0,51.0,56.0,60,2521.0,square2,r,0.1574,1,S,8.0
S8,43.0,63.0,57.0,48.0,50.0,57,2578.0,square2,r,0.2139,1,S,8.0
S8,44.0,59.0,63.0,53.0,53.0,63,2641.0,square2,r,0.4039,1,S,8.0
S8,45.0,62.0,62.0,60.0,53.0,62,2703.0,square2,r,0.2155,1,S,8.0
S8,46.0,56.0,62.0,57.0,60.0,62,2765.0,square2,r,0.406,1,S,8.0
S8,47.0,60.0,63.0,58.0,56.0,63,2828.0,square2,r,0.2202,1,S,8.0
S8,48.0,59.0,63.0,49.0,53.0,63,2891.0,square2,r,0.3674,1,S,8.0
S8,49.0,67.0,67.0,59.0,55.0,67,2958.0,square2,r,0.5627,1,S,8.0
V10,0.0,28.0,21.0,37.0,46.0,46,46.0,square4,r,1.236,3,V,10.0
V10,1.0,26.0,19.0,41.0,49.0,19,65.0,square2,i,0.0639,1,V,10.0
V10,2.0,29.0,20.0,43.0,48.0,29,94.0,square1,j,0.0782,0,V,10.0
V10,3.0,27.0,27.0,37.0,44.0,37,131.0,square3,f,0.2423,2,V,10.0
V10,4.0,28.0,16.0,36.0,47.0,47,178.0,square4,r,0.3929,3,V,10.0
V10,5.0,33.0,25.0,42.0,54.0,25,203.0,square2,i,0.0891,1,V,10.0
V10,6.0,28.0,19.0,35.0,45.0,28,231.0,square1,j,0.3671,0,V,10.0
V10,7.0,30.0,24.0,35.0,49.0,35,266.0,square3,f,0.1436,2,V,10.0
V10,8.0,37.0,29.0,41.0,47.0,47,313.0,square4,r,0.2299,3,V,10.0
V10,9.0,28.0,21.0,41.0,48.0,48,361.0,square4,r,0.1797,3,V,10.0
V10,10.0,27.0,22.0,39.0,42.0,39,400.0,square3,f,0.1719,2,V,10.0
V10,11.0,32.0,16.0,41.0,48.0,48,448.0,square4,r,0.0057,3,V,10.0
V10,12.0,34.0,15.0,33.0,49.0,49,497.0,square4,r,0.2122,3,V,10.0
V10,13.0,36.0,19.0,41.0,45.0,19,516.0,square2,i,0.1585,1,V,10.0
V10,14.0,28.0,23.0,35.0,53.0,53,569.0,square4,r,0.1062,3,V,10.0
V10,15.0,26.0,28.0,40.0,50.0,50,619.0,square4,r,0.2417,3,V,10.0
V10,16.0,30.0,25.0,42.0,47.0,47,666.0,square4,r,0.2118,3,V,10.0
V10,17.0,31.0,19.0,38.0,50.0,50,716.0,square4,r,0.8734,3,V,10.0
V10,18.0,34.0,21.0,35.0,48.0,34,750.0,square1,j,0.1017,0,V,10.0
V10,19.0,31.0,24.0,39.0,46.0,46,796.0,square4,r,0.2004,3,V,10.0
V10,20.0,28.0,22.0,42.0,47.0,47,843.0,square4,r,0.219,3,V,10.0
V10,21.0,24.0,20.0,41.0,47.0,47,890.0,square4,r,0.2559,3,V,10.0
V10,22.0,32.0,22.0,34.0,44.0,44,934.0,square4,r,0.3396,3,V,10.0
V10,23.0,29.0,23.0,37.0,47.0,47,981.0,square4,r,0.2173,3,V,10.0
V10,24.0,25.0,25.0,38.0,46.0,46,1027.0,square4,r,0.3254,3,V,10.0
V10,25.0,30.0,24.0,41.0,45.0,45,1072.0,square4,r,0.2707,3,V,10.0
V10,26.0,32.0,17.0,38.0,49.0,49,1121.0,square4,r,0.2189,3,V,10.0
V10,27.0,34.0,21.0,38.0,47.0,47,1168.0,square4,r,0.2283,3,V,10.0
V10,28.0,29.0,21.0,37.0,45.0,45,1213.0,square4,r,0.2419,3,V,10.0
V10,29.0,30.0,20.0,31.0,47.0,47,1260.0,square4,r,0.2458,3,V,10.0
V10,30.0,28.0,21.0,35.0,44.0,44,1304.0,square4,r,0.2001,3,V,10.0
V10,31.0,36.0,25.0,14.0,8.0,8,1312.0,square4,r,0.2822,3,V,10.0
V10,32.0,38.0,27.0,19.0,11.0,11,1323.0,square4,r,0.3487,3,V,10.0
V10,33.0,39.0,21.0,20.0,13.0,20,1343.0,square3,f,0.2428,2,V,10.0
V10,34.0,34.0,24.0,20.0,10.0,10,1353.0,square4,r,0.2695,3,V,10.0
V10,35.0,44.0,29.0,17.0,11.0,44,1397.0,square1,j,0.093,0,V,10.0
V10,36.0,33.0,30.0,17.0,9.0,30,1427.0,square2,i,0.2919,1,V,10.0
V10,37.0,31.0,27.0,12.0,6.0,12,1439.0,square3,f,0.2698,2,V,10.0
V10,38.0,34.0,29.0,15.0,10.0,34,1473.0,square1,j,0.1461,0,V,10.0
V10,39.0,35.0,21.0,19.0,5.0,21,1494.0,square2,i,0.2846,1,V,10.0
V10,40.0,32.0,26.0,18.0,6.0,32,1526.0,square1,j,0.1453,0,V,10.0
V10,41.0,34.0,32.0,13.0,9.0,34,1560.0,square1,j,0.2274,0,V,10.0
V10,42.0,35.0,30.0,16.0,8.0,35,1595.0,square1,j,0.2441,0,V,10.0
V10,43.0,38.0,32.0,16.0,8.0,38,1633.0,square1,j,0.2048,0,V,10.0
V10,44.0,34.0,20.0,18.0,3.0,34,1667.0,square1,j,0.2431,0,V,10.0
V10,45.0,38.0,22.0,23.0,9.0,38,1705.0,square1,j,0.2676,0,V,10.0
V10,46.0,36.0,28.0,16.0,10.0,36,1741.0,square1,j,0.2997,0,V,10.0
V10,47.0,36.0,27.0,13.0,8.0,36,1777.0,square1,j,0.1601,0,V,10.0
V10,48.0,35.0,27.0,14.0,12.0,35,1812.0,square1,j,0.242,0,V,10.0
V10,49.0,33.0,28.0,16.0,10.0,33,1845.0,square1,j,0.117,0,V,10.0
V10,50.0,31.0,29.0,19.0,8.0,31,1876.0,square1,j,0.2147,0,V,10.0
V10,51.0,32.0,21.0,20.0,12.0,32,1908.0,square1,j,0.2184,0,V,10.0
V10,52.0,29.0,25.0,21.0,10.0,29,1937.0,square1,j,0.2408,0,V,10.0
V10,53.0,39.0,29.0,23.0,2.0,39,1976.0,square1,j,0.2423,0,V,10.0
V10,54.0,33.0,28.0,19.0,7.0,33,2009.0,square1,j,0.2474,0,V,10.0
V10,55.0,34.0,24.0,15.0,8.0,34,2043.0,square1,j,0.2143,0,V,10.0
V10,56.0,35.0,20.0,21.0,9.0,35,2078.0,square1,j,0.1298,0,V,10.0
V10,57.0,33.0,27.0,19.0,7.0,33,2111.0,square1,j,0.2282,0,V,10.0
V10,58.0,38.0,24.0,16.0,7.0,38,2149.0,square1,j,0.2202,0,V,10.0
V10,59.0,34.0,29.0,15.0,5.0,34,2183.0,square1,j,0.2275,0,V,10.0
V10,60.0,34.0,22.0,19.0,9.0,34,2217.0,square1,j,0.1874,0,V,10.0
V10,61.0,39.0,31.0,20.0,10.0,39,2256.0,square1,j,0.2983,0,V,10.0
V10,62.0,35.0,24.0,18.0,6.0,35,2291.0,square1,j,0.3157,0,V,10.0
V10,63.0,35.0,26.0,18.0,9.0,35,2326.0,square1,j,0.2964,0,V,10.0
V10,64.0,31.0,55.0,23.0,23.0,31,2357.0,square1,j,0.2987,0,V,10.0
V10,65.0,35.0,50.0,22.0,27.0,35,2392.0,square1,j,0.354,0,V,10.0
V10,66.0,35.0,53.0,25.0,29.0,35,2427.0,square1,j,0.2404,0,V,10.0
V10,67.0,38.0,44.0,17.0,29.0,38,2465.0,square1,j,0.3167,0,V,10.0
V10,68.0,36.0,48.0,22.0,27.0,36,2501.0,square1,j,0.2848,0,V,10.0
V10,69.0,41.0,53.0,17.0,28.0,41,2542.0,square1,j,0.0614,0,V,10.0
V10,70.0,40.0,48.0,23.0,28.0,40,2582.0,square1,j,0.2322,0,V,10.0
V10,71.0,39.0,43.0,24.0,20.0,39,2621.0,square1,j,0.2616,0,V,10.0
V10,72.0,36.0,49.0,19.0,25.0,36,2657.0,square1,j,0.2156,0,V,10.0
V10,73.0,39.0,49.0,23.0,32.0,39,2696.0,square1,j,0.3229,0,V,10.0
V10,74.0,36.0,44.0,17.0,29.0,36,2732.0,square1,j,0.2484,0,V,10.0
V10,75.0,37.0,46.0,20.0,30.0,37,2769.0,square1,j,0.2708,0,V,10.0
V10,76.0,38.0,47.0,23.0,30.0,38,2807.0,square1,j,0.1579,0,V,10.0
V10,77.0,36.0,49.0,22.0,32.0,36,2843.0,square1,j,0.215,0,V,10.0
V10,78.0,41.0,44.0,19.0,27.0,41,2884.0,square1,j,0.0923,0,V,10.0
V10,79.0,41.0,48.0,22.0,27.0,41,2925.0,square1,j,0.131,0,V,10.0
V10,80.0,34.0,44.0,26.0,29.0,34,2959.0,square1,j,0.0331,0,V,10.0
V10,81.0,38.0,47.0,18.0,29.0,38,2997.0,square1,j,0.2707,0,V,10.0
V10,82.0,43.0,43.0,23.0,28.0,43,3040.0,square1,j,0.3139,0,V,10.0
V10,83.0,34.0,51.0,23.0,26.0,34,3074.0,square1,j,0.2583,0,V,10.0
V10,84.0,36.0,46.0,18.0,25.0,36,3110.0,square1,j,0.325,0,V,10.0
V10,85.0,39.0,46.0,25.0,26.0,39,3149.0,square1,j,0.2441,0,V,10.0
V10,86.0,39.0,50.0,27.0,27.0,39,3188.0,square1,j,0.2445,0,V,10.0
V10,87.0,38.0,46.0,20.0,30.0,38,3226.0,square1,j,0.2408,0,V,10.0
V10,88.0,37.0,49.0,22.0,28.0,37,3263.0,square1,j,0.3533,0,V,10.0
V10,89.0,34.0,51.0,25.0,26.0,34,3297.0,square1,j,0.2507,0,V,10.0
V10,90.0,41.0,49.0,22.0,29.0,41,3338.0,square1,j,0.2541,0,V,10.0
V10,91.0,37.0,45.0,26.0,32.0,37,3375.0,square1,j,0.3139,0,V,10.0
V10,92.0,42.0,42.0,27.0,28.0,42,3417.0,square1,j,0.2324,0,V,10.0
V10,93.0,41.0,48.0,19.0,36.0,41,3458.0,square1,j,0.2678,0,V,10.0
V10,94.0,43.0,49.0,23.0,31.0,43,3501.0,square1,j,0.4439,0,V,10.0
V10,95.0,39.0,46.0,18.0,27.0,39,3540.0,square1,j,0.4497,0,V,10.0
V10,96.0,37.0,48.0,24.0,27.0,37,3577.0,square1,j,0.301,0,V,10.0
V10,97.0,42.0,50.0,23.0,31.0,42,3619.0,square1,j,0.2889,0,V,10.0
V10,98.0,33.0,47.0,25.0,32.0,33,3652.0,square1,j,0.3105,0,V,10.0
V10,99.0,39.0,48.0,23.0,32.0,39,3691.0,square1,j,0.7072,0,V,10.0
V11,0.0,42.0,67.0,57.0,49.0,57,57.0,square3,r,1.0586,2,V,11.0
V11,1.0,42.0,71.0,60.0,53.0,53,110.0,square4,i,0.133,3,V,11.0
V11,2.0,45.0,76.0,58.0,51.0,45,155.0,square1,f,0.0613,0,V,11.0
V11,3.0,44.0,65.0,60.0,49.0,65,220.0,square2,j,0.0887,1,V,11.0
V11,4.0,46.0,73.0,64.0,51.0,64,284.0,square3,r,0.198,2,V,11.0
V11,5.0,47.0,67.0,58.0,54.0,67,351.0,square2,j,0.1296,1,V,11.0
V11,6.0,43.0,68.0,58.0,50.0,58,409.0,square3,r,0.2437,2,V,11.0
V11,7.0,42.0,67.0,60.0,58.0,67,476.0,square2,j,0.2153,1,V,11.0
V11,8.0,44.0,67.0,60.0,53.0,53,529.0,square4,i,0.1485,3,V,11.0
V11,9.0,44.0,67.0,59.0,54.0,44,573.0,square1,f,0.0467,0,V,11.0
V11,10.0,49.0,76.0,57.0,52.0,76,649.0,square2,j,0.0617,1,V,11.0
V11,11.0,45.0,71.0,58.0,51.0,71,720.0,square2,j,0.2559,1,V,11.0
V11,12.0,45.0,72.0,58.0,56.0,72,792.0,square2,j,0.27,1,V,11.0
V11,13.0,49.0,67.0,63.0,54.0,67,859.0,square2,j,0.2552,1,V,11.0
V11,14.0,50.0,75.0,57.0,48.0,75,934.0,square2,j,0.2415,1,V,11.0
V11,15.0,40.0,71.0,61.0,51.0,71,1005.0,square2,j,0.2875,1,V,11.0
V11,16.0,47.0,72.0,56.0,54.0,72,1077.0,square2,j,0.1998,1,V,11.0
V11,17.0,40.0,71.0,61.0,46.0,71,1148.0,square2,j,0.1309,1,V,11.0
V11,18.0,44.0,69.0,59.0,51.0,69,1217.0,square2,j,0.2434,1,V,11.0
V11,19.0,44.0,73.0,59.0,47.0,73,1290.0,square2,j,0.1757,1,V,11.0
V11,20.0,47.0,69.0,64.0,54.0,69,1359.0,square2,j,0.2564,1,V,11.0
V11,21.0,78.0,49.0,70.0,65.0,49,1408.0,square2,j,0.2567,1,V,11.0
V11,22.0,78.0,56.0,73.0,62.0,56,1464.0,square2,j,0.2345,1,V,11.0
V11,23.0,84.0,54.0,71.0,65.0,54,1518.0,square2,j,0.2289,1,V,11.0
V11,24.0,80.0,55.0,72.0,67.0,67,1585.0,square4,i,0.1015,3,V,11.0
V11,25.0,80.0,55.0,75.0,63.0,80,1665.0,square1,f,0.7903,0,V,11.0
V11,26.0,80.0,56.0,67.0,62.0,67,1732.0,square3,r,0.6076,2,V,11.0
V11,27.0,80.0,51.0,68.0,62.0,80,1812.0,square1,f,0.1862,0,V,11.0
V11,28.0,79.0,57.0,67.0,57.0,79,1891.0,square1,f,0.2125,0,V,11.0
V11,29.0,79.0,50.0,67.0,62.0,79,1970.0,square1,f,0.2574,0,V,11.0
V11,30.0,88.0,54.0,74.0,61.0,88,2058.0,square1,f,0.2523,0,V,11.0
V11,31.0,81.0,51.0,75.0,63.0,81,2139.0,square1,f,0.2549,0,V,11.0
V11,32.0,76.0,51.0,69.0,65.0,76,2215.0,square1,f,0.3946,0,V,11.0
V11,33.0,78.0,54.0,72.0,64.0,78,2293.0,square1,f,0.2382,0,V,11.0
V11,34.0,77.0,53.0,71.0,62.0,77,2370.0,square1,f,0.296,0,V,11.0
V11,35.0,74.0,59.0,75.0,62.0,74,2444.0,square1,f,0.2722,0,V,11.0
V11,36.0,79.0,50.0,72.0,62.0,79,2523.0,square1,f,0.2346,0,V,11.0
V11,37.0,74.0,54.0,68.0,62.0,74,2597.0,square1,f,0.2561,0,V,11.0
V11,38.0,80.0,57.0,65.0,58.0,80,2677.0,square1,f,0.2278,0,V,11.0
V11,39.0,73.0,52.0,75.0,66.0,73,2750.0,square1,f,0.232,0,V,11.0
V11,40.0,82.0,57.0,71.0,57.0,82,2832.0,square1,f,0.2984,0,V,11.0
V11,41.0,78.0,53.0,73.0,64.0,78,2910.0,square1,f,0.2257,0,V,11.0
V11,42.0,72.0,56.0,67.0,59.0,72,2982.0,square1,f,0.2024,0,V,11.0
V11,43.0,81.0,54.0,73.0,63.0,81,3063.0,square1,f,0.136,0,V,11.0
V11,44.0,76.0,54.0,75.0,59.0,76,3139.0,square1,f,0.3105,0,V,11.0
V11,45.0,79.0,59.0,71.0,64.0,79,3218.0,square1,f,0.4092,0,V,11.0
V11,46.0,80.0,55.0,67.0,57.0,80,3298.0,square1,f,0.3046,0,V,11.0
V11,47.0,84.0,53.0,75.0,56.0,84,3382.0,square1,f,0.3666,0,V,11.0
V11,48.0,83.0,57.0,71.0,60.0,83,3465.0,square1,f,0.3046,0,V,11.0
V11,49.0,79.0,52.0,71.0,60.0,79,3544.0,square1,f,0.3118,0,V,11.0
V11,50.0,76.0,50.0,69.0,60.0,76,3620.0,square1,f,0.2545,0,V,11.0
V11,51.0,79.0,54.0,72.0,57.0,79,3699.0,square1,f,0.2772,0,V,11.0
V11,52.0,80.0,54.0,72.0,64.0,80,3779.0,square1,f,0.413,0,V,11.0
V11,53.0,35.0,50.0,55.0,69.0,35,3814.0,square1,f,0.2719,0,V,11.0
V11,54.0,45.0,48.0,55.0,73.0,73,3887.0,square4,i,0.2328,3,V,11.0
V11,55.0,43.0,53.0,58.0,70.0,58,3945.0,square3,r,0.2421,2,V,11.0
V11,56.0,40.0,46.0,60.0,62.0,46,3991.0,square2,j,0.1314,1,V,11.0
V11,57.0,44.0,46.0,53.0,71.0,71,4062.0,square4,i,0.243,3,V,11.0
V11,58.0,44.0,52.0,55.0,68.0,55,4117.0,square3,r,0.5101,2,V,11.0
V11,59.0,44.0,44.0,57.0,66.0,44,4161.0,square2,j,0.2691,1,V,11.0
V11,60.0,40.0,46.0,57.0,62.0,62,4223.0,square4,i,0.2732,3,V,11.0
V11,61.0,42.0,52.0,58.0,62.0,62,4285.0,square4,i,0.3399,3,V,11.0
V11,62.0,40.0,49.0,56.0,71.0,71,4356.0,square4,i,0.3695,3,V,11.0
V11,63.0,40.0,54.0,60.0,66.0,66,4422.0,square4,i,0.3731,3,V,11.0
V11,64.0,41.0,43.0,51.0,66.0,66,4488.0,square4,i,0.2272,3,V,11.0
V11,65.0,39.0,48.0,59.0,66.0,66,4554.0,square4,i,0.2715,3,V,11.0
V11,66.0,40.0,48.0,59.0,69.0,69,4623.0,square4,i,0.2416,3,V,11.0
V11,67.0,46.0,45.0,58.0,69.0,69,4692.0,square4,i,0.2555,3,V,11.0
V11,68.0,41.0,50.0,56.0,69.0,69,4761.0,square4,i,0.2727,3,V,11.0
V11,69.0,48.0,49.0,57.0,71.0,71,4832.0,square4,i,0.2759,3,V,11.0
V11,70.0,41.0,47.0,58.0,65.0,65,4897.0,square4,i,0.2253,3,V,11.0
V11,71.0,37.0,46.0,58.0,60.0,58,4955.0,square3,r,0.2147,2,V,11.0
V11,72.0,41.0,47.0,54.0,65.0,47,5002.0,square2,j,0.25,1,V,11.0
V11,73.0,42.0,47.0,60.0,67.0,67,5069.0,square4,i,0.0896,3,V,11.0
V11,74.0,43.0,49.0,57.0,64.0,64,5133.0,square4,i,0.324,3,V,11.0
V11,75.0,38.0,46.0,57.0,66.0,66,5199.0,square4,i,0.2992,3,V,11.0
V11,76.0,42.0,50.0,58.0,68.0,68,5267.0,square4,i,0.2578,3,V,11.0
V11,77.0,36.0,49.0,58.0,64.0,64,5331.0,square4,i,0.1996,3,V,11.0
V11,78.0,40.0,50.0,56.0,67.0,67,5398.0,square4,i,0.2715,3,V,11.0
V11,79.0,39.0,48.0,56.0,67.0,67,5465.0,square4,i,0.2766,3,V,11.0
V11,80.0,51.0,33.0,30.0,45.0,45,5510.0,square4,i,0.3244,3,V,11.0
V11,81.0,49.0,31.0,23.0,48.0,23,5533.0,square3,r,0.2288,2,V,11.0
V11,82.0,55.0,30.0,25.0,42.0,30,5563.0,square2,j,0.2186,1,V,11.0
V11,83.0,50.0,33.0,27.0,48.0,50,5613.0,square1,f,0.2697,0,V,11.0
V11,84.0,52.0,34.0,25.0,43.0,43,5656.0,square4,i,0.2977,3,V,11.0
V11,85.0,49.0,28.0,28.0,44.0,49,5705.0,square1,f,0.19,0,V,11.0
V11,86.0,57.0,29.0,27.0,48.0,57,5762.0,square1,f,0.6614,0,V,11.0
V11,87.0,49.0,29.0,21.0,38.0,49,5811.0,square1,f,0.2898,0,V,11.0
V11,88.0,55.0,32.0,29.0,46.0,55,5866.0,square1,f,0.299,0,V,11.0
V11,89.0,50.0,28.0,23.0,43.0,50,5916.0,square1,f,0.3958,0,V,11.0
V11,90.0,54.0,34.0,32.0,41.0,54,5970.0,square1,f,0.3275,0,V,11.0
V11,91.0,50.0,34.0,26.0,44.0,34,6004.0,square2,j,0.6048,1,V,11.0
V11,92.0,51.0,31.0,27.0,50.0,51,6055.0,square1,f,0.3164,0,V,11.0
V11,93.0,49.0,38.0,28.0,42.0,28,6083.0,square3,r,0.1576,2,V,11.0
V11,94.0,50.0,29.0,25.0,46.0,50,6133.0,square1,f,0.2828,0,V,11.0
V11,95.0,51.0,36.0,22.0,40.0,51,6184.0,square1,f,0.2181,0,V,11.0
V11,96.0,52.0,34.0,32.0,45.0,52,6236.0,square1,f,0.1979,0,V,11.0
V11,97.0,53.0,27.0,32.0,44.0,53,6289.0,square1,f,0.3706,0,V,11.0
V11,98.0,60.0,31.0,25.0,48.0,60,6349.0,square1,f,0.2896,0,V,11.0
V11,99.0,53.0,33.0,23.0,42.0,53,6402.0,square1,f,0.9832,0,V,11.0
V8,0.0,49.0,55.0,64.0,74.0,49,49.0,square1,r,0.8336,0,V,8.0
V8,1.0,51.0,54.0,70.0,81.0,81,130.0,square4,f,0.3109,3,V,8.0
V8,2.0,46.0,62.0,70.0,77.0,70,200.0,square3,j,0.5076,2,V,8.0
V8,3.0,46.0,56.0,67.0,75.0,56,256.0,square2,i,0.2013,1,V,8.0
V8,4.0,50.0,59.0,67.0,83.0,83,339.0,square4,f,0.2467,3,V,8.0
V8,5.0,51.0,54.0,65.0,78.0,65,404.0,square3,j,0.0744,2,V,8.0
V8,6.0,45.0,57.0,66.0,80.0,80,484.0,square4,f,0.3138,3,V,8.0
V8,7.0,46.0,64.0,68.0,77.0,77,561.0,square4,f,0.2837,3,V,8.0
V8,8.0,50.0,57.0,66.0,73.0,73,634.0,square4,f,0.3959,3,V,8.0
V8,9.0,46.0,56.0,71.0,72.0,72,706.0,square4,f,0.3823,3,V,8.0
V8,10.0,56.0,58.0,67.0,75.0,75,781.0,square4,f,0.3826,3,V,8.0
V8,11.0,50.0,61.0,69.0,74.0,74,855.0,square4,f,0.346,3,V,8.0
V8,12.0,59.0,59.0,69.0,77.0,77,932.0,square4,f,0.2973,3,V,8.0
V8,13.0,50.0,56.0,72.0,77.0,77,1009.0,square4,f,0.4005,3,V,8.0
V8,14.0,48.0,55.0,65.0,80.0,80,1089.0,square4,f,0.3931,3,V,8.0
V8,15.0,48.0,58.0,65.0,76.0,76,1165.0,square4,f,0.2738,3,V,8.0
V8,16.0,49.0,58.0,67.0,75.0,75,1240.0,square4,f,0.2959,3,V,8.0
V8,17.0,51.0,56.0,68.0,76.0,76,1316.0,square4,f,0.2294,3,V,8.0
V8,18.0,52.0,63.0,69.0,80.0,80,1396.0,square4,f,0.3458,3,V,8.0
V8,19.0,54.0,54.0,71.0,79.0,79,1475.0,square4,f,0.257,3,V,8.0
V8,20.0,48.0,53.0,62.0,77.0,77,1552.0,square4,f,0.2007,3,V,8.0
V8,21.0,44.0,61.0,66.0,77.0,77,1629.0,square4,f,0.2342,3,V,8.0
V8,22.0,52.0,58.0,64.0,78.0,78,1707.0,square4,f,0.186,3,V,8.0
V8,23.0,50.0,49.0,67.0,79.0,79,1786.0,square4,f,0.1581,3,V,8.0
V8,24.0,49.0,59.0,69.0,74.0,74,1860.0,square4,f,0.1173,3,V,8.0
V8,25.0,46.0,61.0,65.0,81.0,81,1941.0,square4,f,0.2851,3,V,8.0
V8,26.0,49.0,58.0,63.0,35.0,35,1976.0,square4,f,0.2441,3,V,8.0
V8,27.0,48.0,51.0,66.0,41.0,48,2024.0,square1,r,0.3388,0,V,8.0
V8,28.0,46.0,55.0,65.0,38.0,65,2089.0,square3,j,0.1457,2,V,8.0
V8,29.0,47.0,58.0,69.0,40.0,58,2147.0,square2,i,0.1766,1,V,8.0
V8,30.0,42.0,55.0,67.0,43.0,67,2214.0,square3,j,0.1309,2,V,8.0
V8,31.0,49.0,56.0,64.0,36.0,64,2278.0,square3,j,0.299,2,V,8.0
V8,32.0,49.0,55.0,69.0,38.0,69,2347.0,square3,j,0.2577,2,V,8.0
V8,33.0,44.0,52.0,65.0,48.0,65,2412.0,square3,j,0.1744,2,V,8.0
V8,34.0,44.0,57.0,70.0,45.0,70,2482.0,square3,j,0.1447,2,V,8.0
V8,35.0,44.0,54.0,68.0,38.0,68,2550.0,square3,j,0.2279,2,V,8.0
V8,36.0,45.0,56.0,64.0,40.0,64,2614.0,square3,j,0.2149,2,V,8.0
V8,37.0,47.0,57.0,66.0,37.0,66,2680.0,square3,j,0.1345,2,V,8.0
V8,38.0,49.0,50.0,66.0,37.0,66,2746.0,square3,j,0.1866,2,V,8.0
V8,39.0,51.0,56.0,61.0,39.0,61,2807.0,square3,j,0.2004,2,V,8.0
V8,40.0,47.0,59.0,66.0,41.0,66,2873.0,square3,j,0.1173,2,V,8.0
V8,41.0,42.0,56.0,69.0,42.0,69,2942.0,square3,j,0.0756,2,V,8.0
V8,42.0,47.0,57.0,72.0,35.0,72,3014.0,square3,j,0.221,2,V,8.0
V8,43.0,47.0,57.0,63.0,44.0,63,3077.0,square3,j,0.103,2,V,8.0
V8,44.0,45.0,58.0,67.0,42.0,67,3144.0,square3,j,0.1583,2,V,8.0
V8,45.0,44.0,56.0,66.0,43.0,66,3210.0,square3,j,0.1894,2,V,8.0
V8,46.0,46.0,53.0,70.0,37.0,70,3280.0,square3,j,0.2072,2,V,8.0
V8,47.0,54.0,53.0,71.0,41.0,71,3351.0,square3,j,0.2148,2,V,8.0
V8,48.0,49.0,53.0,69.0,37.0,69,3420.0,square3,j,0.214,2,V,8.0
V8,49.0,39.0,57.0,65.0,47.0,65,3485.0,square3,j,0.2133,2,V,8.0
V8,50.0,48.0,55.0,65.0,41.0,65,3550.0,square3,j,0.2327,2,V,8.0
V8,51.0,45.0,61.0,68.0,43.0,68,3618.0,square3,j,0.187,2,V,8.0
V8,52.0,53.0,52.0,68.0,37.0,68,3686.0,square3,j,0.1716,2,V,8.0
V8,53.0,47.0,55.0,66.0,46.0,66,3752.0,square3,j,0.1605,2,V,8.0
V8,54.0,49.0,53.0,61.0,39.0,61,3813.0,square3,j,0.2369,2,V,8.0
V8,55.0,53.0,70.0,55.0,72.0,55,3868.0,square3,j,0.1923,2,V,8.0
V8,56.0,57.0,63.0,48.0,73.0,57,3925.0,square1,r,0.9016,0,V,8.0
V8,57.0,53.0,71.0,45.0,80.0,71,3996.0,square2,i,0.3093,1,V,8.0
V8,58.0,57.0,69.0,52.0,73.0,73,4069.0,square4,f,0.1588,3,V,8.0
V8,59.0,58.0,67.0,54.0,73.0,67,4136.0,square2,i,0.3584,1,V,8.0
V8,60.0,55.0,66.0,47.0,76.0,76,4212.0,square4,f,0.0753,3,V,8.0
V8,61.0,56.0,65.0,54.0,72.0,72,4284.0,square4,f,0.2115,3,V,8.0
V8,62.0,56.0,65.0,49.0,75.0,75,4359.0,square4,f,0.2426,3,V,8.0
V8,63.0,61.0,65.0,44.0,78.0,78,4437.0,square4,f,0.1848,3,V,8.0
V8,64.0,54.0,66.0,48.0,75.0,75,4512.0,square4,f,0.2544,3,V,8.0
V8,65.0,59.0,65.0,46.0,79.0,79,4591.0,square4,f,0.2272,3,V,8.0
V8,66.0,51.0,62.0,46.0,73.0,73,4664.0,square4,f,0.4138,3,V,8.0
V8,67.0,60.0,70.0,45.0,76.0,76,4740.0,square4,f,0.4799,3,V,8.0
V8,68.0,63.0,64.0,47.0,73.0,73,4813.0,square4,f,0.2896,3,V,8.0
V8,69.0,58.0,66.0,43.0,77.0,77,4890.0,square4,f,0.0193,3,V,8.0
V8,70.0,59.0,65.0,49.0,73.0,73,4963.0,square4,f,0.0332,3,V,8.0
V8,71.0,60.0,64.0,49.0,79.0,79,5042.0,square4,f,0.2,3,V,8.0
V8,72.0,96.0,68.0,78.0,67.0,67,5109.0,square4,f,0.3249,3,V,8.0
V8,73.0,96.0,68.0,79.0,64.0,64,5173.0,square4,f,0.2154,3,V,8.0
V8,74.0,92.0,67.0,81.0,62.0,67,5240.0,square2,i,0.2404,1,V,8.0
V8,75.0,96.0,72.0,83.0,62.0,83,5323.0,square3,j,0.5081,2,V,8.0
V8,76.0,94.0,70.0,77.0,57.0,77,5400.0,square3,j,0.5195,2,V,8.0
V8,77.0,91.0,68.0,81.0,59.0,91,5491.0,square1,r,0.2155,0,V,8.0
V8,78.0,90.0,73.0,80.0,63.0,90,5581.0,square1,r,0.2049,0,V,8.0
V8,79.0,90.0,73.0,83.0,61.0,90,5671.0,square1,r,0.2615,0,V,8.0
V8,80.0,95.0,75.0,81.0,66.0,95,5766.0,square1,r,0.0608,0,V,8.0
V8,81.0,92.0,72.0,81.0,57.0,92,5858.0,square1,r,0.0779,0,V,8.0
V8,82.0,91.0,71.0,80.0,61.0,91,5949.0,square1,r,0.2004,0,V,8.0
V8,83.0,90.0,66.0,83.0,62.0,90,6039.0,square1,r,0.2296,0,V,8.0
V8,84.0,93.0,67.0,87.0,65.0,93,6132.0,square1,r,0.0198,0,V,8.0
V8,85.0,85.0,70.0,80.0,62.0,85,6217.0,square1,r,0.0192,0,V,8.0
V8,86.0,84.0,72.0,85.0,62.0,84,6301.0,square1,r,0.0614,0,V,8.0
V8,87.0,91.0,68.0,82.0,65.0,91,6392.0,square1,r,0.1451,0,V,8.0
V8,88.0,93.0,67.0,83.0,61.0,93,6485.0,square1,r,0.2299,0,V,8.0
V8,89.0,95.0,68.0,78.0,66.0,95,6580.0,square1,r,0.245,0,V,8.0
V8,90.0,91.0,73.0,80.0,60.0,91,6671.0,square1,r,0.1582,0,V,8.0
V8,91.0,93.0,68.0,81.0,64.0,93,6764.0,square1,r,0.244,0,V,8.0
V8,92.0,90.0,75.0,82.0,67.0,90,6854.0,square1,r,0.1731,0,V,8.0
V8,93.0,92.0,70.0,82.0,66.0,92,6946.0,square1,r,0.2302,0,V,8.0
V8,94.0,90.0,71.0,78.0,63.0,90,7036.0,square1,r,0.1435,0,V,8.0
V8,95.0,88.0,65.0,78.0,63.0,88,7124.0,square1,r,0.2153,0,V,8.0
V8,96.0,89.0,72.0,85.0,62.0,89,7213.0,square1,r,0.189,0,V,8.0
V8,97.0,92.0,72.0,77.0,67.0,77,7290.0,square3,j,0.3273,2,V,8.0
V8,98.0,86.0,63.0,82.0,62.0,86,7376.0,square1,r,0.1164,0,V,8.0
V8,99.0,90.0,66.0,75.0,61.0,66,7442.0,square2,i,0.4711,1,V,8.0
