block,Trial,square1,square2,square3,square4,currPoints,totalPoints,square,choiceKey.keys,choiceKey.rt,armNum,blockType,blockNum
prac,0.0,100.0,0.0,0.0,0.0,99999,0.0,invalid,,,-1,p,0.0
prac,1.0,100.0,0.0,0.0,0.0,100,100.0,square1,,,0,p,0.0
prac,2.0,100.0,0.0,0.0,0.0,0,100.0,square4,,,3,p,0.0
prac,3.0,100.0,0.0,0.0,0.0,100,200.0,square1,,,0,p,0.0
prac,4.0,100.0,0.0,0.0,0.0,0,200.0,square2,,,1,p,0.0
prac,5.0,100.0,0.0,0.0,0.0,0,200.0,square3,,,2,p,0.0
prac,6.0,100.0,0.0,0.0,0.0,100,300.0,square1,,,0,p,0.0
prac,7.0,100.0,0.0,0.0,0.0,100,400.0,square1,,,0,p,0.0
prac,8.0,100.0,0.0,0.0,0.0,100,500.0,square1,,,0,p,0.0
prac,9.0,100.0,0.0,0.0,0.0,100,600.0,square1,,,0,p,0.0
V10,0.0,28.0,21.0,37.0,46.0,21,21.0,square2,f,1.0296,1,V,10.0
V10,1.0,26.0,19.0,41.0,49.0,49,70.0,square4,r,0.8905,3,V,10.0
V10,2.0,29.0,20.0,43.0,48.0,29,99.0,square1,i,0.5235,0,V,10.0
V10,3.0,27.0,27.0,37.0,44.0,37,136.0,square3,j,0.3395,2,V,10.0
V10,4.0,28.0,16.0,36.0,47.0,47,183.0,square4,r,0.2424,3,V,10.0
V10,5.0,33.0,25.0,42.0,54.0,25,208.0,square2,f,1.5473,1,V,10.0
V10,6.0,28.0,19.0,35.0,45.0,45,253.0,square4,r,0.4748,3,V,10.0
V10,7.0,30.0,24.0,35.0,49.0,30,283.0,square1,i,0.2478,0,V,10.0
V10,8.0,37.0,29.0,41.0,47.0,41,324.0,square3,j,0.2804,2,V,10.0
V10,9.0,28.0,21.0,41.0,48.0,41,365.0,square3,j,0.3414,2,V,10.0
V10,10.0,27.0,22.0,39.0,42.0,39,404.0,square3,j,0.3328,2,V,10.0
V10,11.0,32.0,16.0,41.0,48.0,48,452.0,square4,r,0.3749,3,V,10.0
V10,12.0,34.0,15.0,33.0,49.0,15,467.0,square2,f,0.7911,1,V,10.0
V10,13.0,36.0,19.0,41.0,45.0,36,503.0,square1,i,0.262,0,V,10.0
V10,14.0,28.0,23.0,35.0,53.0,53,556.0,square4,r,0.2746,3,V,10.0
V10,15.0,26.0,28.0,40.0,50.0,50,606.0,square4,r,0.3133,3,V,10.0
V10,16.0,30.0,25.0,42.0,47.0,42,648.0,square3,j,0.2785,2,V,10.0
V10,17.0,31.0,19.0,38.0,50.0,50,698.0,square4,r,0.2159,3,V,10.0
V10,18.0,34.0,21.0,35.0,48.0,48,746.0,square4,r,0.1416,3,V,10.0
V10,19.0,31.0,24.0,39.0,46.0,46,792.0,square4,r,0.2841,3,V,10.0
V10,20.0,28.0,22.0,42.0,47.0,42,834.0,square3,j,0.2084,2,V,10.0
V10,21.0,24.0,20.0,41.0,47.0,20,854.0,square2,f,0.1163,1,V,10.0
V10,22.0,32.0,22.0,34.0,44.0,32,886.0,square1,i,0.0233,0,V,10.0
V10,23.0,29.0,23.0,37.0,47.0,47,933.0,square4,r,0.1919,3,V,10.0
V10,24.0,25.0,25.0,38.0,46.0,46,979.0,square4,r,0.011,3,V,10.0
V10,25.0,30.0,24.0,41.0,45.0,45,1024.0,square4,r,0.1467,3,V,10.0
V10,26.0,32.0,17.0,38.0,49.0,49,1073.0,square4,r,0.0352,3,V,10.0
V10,27.0,34.0,21.0,38.0,47.0,47,1120.0,square4,r,1.0084,3,V,10.0
V10,28.0,29.0,21.0,37.0,45.0,45,1165.0,square4,r,0.1732,3,V,10.0
V10,29.0,30.0,20.0,31.0,47.0,30,1195.0,square1,i,0.3622,0,V,10.0
V10,30.0,28.0,21.0,35.0,44.0,35,1230.0,square3,j,0.1914,2,V,10.0
V10,31.0,36.0,25.0,14.0,8.0,8,1238.0,square4,r,0.2324,3,V,10.0
V10,32.0,38.0,27.0,19.0,11.0,19,1257.0,square3,j,0.2749,2,V,10.0
V10,33.0,39.0,21.0,20.0,13.0,21,1278.0,square2,f,0.4121,1,V,10.0
V10,34.0,34.0,24.0,20.0,10.0,34,1312.0,square1,i,0.2241,0,V,10.0
V10,35.0,44.0,29.0,17.0,11.0,29,1341.0,square2,f,0.1972,1,V,10.0
V10,36.0,33.0,30.0,17.0,9.0,9,1350.0,square4,r,0.225,3,V,10.0
V10,37.0,31.0,27.0,12.0,6.0,12,1362.0,square3,j,0.5748,2,V,10.0
V10,38.0,34.0,29.0,15.0,10.0,29,1391.0,square2,f,0.3063,1,V,10.0
V10,39.0,35.0,21.0,19.0,5.0,21,1412.0,square2,f,0.2247,1,V,10.0
V10,40.0,32.0,26.0,18.0,6.0,26,1438.0,square2,f,0.3328,1,V,10.0
V10,41.0,34.0,32.0,13.0,9.0,34,1472.0,square1,i,0.0916,0,V,10.0
V10,42.0,35.0,30.0,16.0,8.0,35,1507.0,square1,i,0.2783,0,V,10.0
V10,43.0,38.0,32.0,16.0,8.0,38,1545.0,square1,i,0.079,0,V,10.0
V10,44.0,34.0,20.0,18.0,3.0,34,1579.0,square1,i,0.1174,0,V,10.0
V10,45.0,38.0,22.0,23.0,9.0,38,1617.0,square1,i,0.2467,0,V,10.0
V10,46.0,36.0,28.0,16.0,10.0,36,1653.0,square1,i,0.0453,0,V,10.0
V10,47.0,36.0,27.0,13.0,8.0,36,1689.0,square1,i,0.0005,0,V,10.0
V10,48.0,35.0,27.0,14.0,12.0,12,1701.0,square4,r,0.1513,3,V,10.0
V10,49.0,33.0,28.0,16.0,10.0,16,1717.0,square3,j,0.8966,2,V,10.0
V10,50.0,31.0,29.0,19.0,8.0,29,1746.0,square2,f,0.134,1,V,10.0
V10,51.0,32.0,21.0,20.0,12.0,32,1778.0,square1,i,0.3752,0,V,10.0
V10,52.0,29.0,25.0,21.0,10.0,25,1803.0,square2,f,0.4909,1,V,10.0
V10,53.0,39.0,29.0,23.0,2.0,39,1842.0,square1,i,0.2123,0,V,10.0
V10,54.0,33.0,28.0,19.0,7.0,33,1875.0,square1,i,0.2973,0,V,10.0
V10,55.0,34.0,24.0,15.0,8.0,34,1909.0,square1,i,0.3814,0,V,10.0
V10,56.0,35.0,20.0,21.0,9.0,35,1944.0,square1,i,0.263,0,V,10.0
V10,57.0,33.0,27.0,19.0,7.0,33,1977.0,square1,i,0.0472,0,V,10.0
V10,58.0,38.0,24.0,16.0,7.0,38,2015.0,square1,i,0.1416,0,V,10.0
V10,59.0,34.0,29.0,15.0,5.0,34,2049.0,square1,i,0.1293,0,V,10.0
V10,60.0,34.0,22.0,19.0,9.0,34,2083.0,square1,i,0.2499,0,V,10.0
V10,61.0,39.0,31.0,20.0,10.0,39,2122.0,square1,i,0.4255,0,V,10.0
V10,62.0,35.0,24.0,18.0,6.0,35,2157.0,square1,i,0.2421,0,V,10.0
V10,63.0,35.0,26.0,18.0,9.0,35,2192.0,square1,i,0.1384,0,V,10.0
V10,64.0,31.0,55.0,23.0,23.0,31,2223.0,square1,i,0.2406,0,V,10.0
V10,65.0,35.0,50.0,22.0,27.0,35,2258.0,square1,i,0.0077,0,V,10.0
V10,66.0,35.0,53.0,25.0,29.0,35,2293.0,square1,i,0.2956,0,V,10.0
V10,67.0,38.0,44.0,17.0,29.0,38,2331.0,square1,i,0.0816,0,V,10.0
V10,68.0,36.0,48.0,22.0,27.0,36,2367.0,square1,i,0.7109,0,V,10.0
V10,69.0,41.0,53.0,17.0,28.0,41,2408.0,square1,i,0.573,0,V,10.0
V10,70.0,40.0,48.0,23.0,28.0,40,2448.0,square1,i,0.2664,0,V,10.0
V10,71.0,39.0,43.0,24.0,20.0,39,2487.0,square1,i,0.2417,0,V,10.0
V10,72.0,36.0,49.0,19.0,25.0,36,2523.0,square1,i,0.1967,0,V,10.0
V10,73.0,39.0,49.0,23.0,32.0,39,2562.0,square1,i,0.0901,0,V,10.0
V10,74.0,36.0,44.0,17.0,29.0,36,2598.0,square1,i,0.0232,0,V,10.0
V10,75.0,37.0,46.0,20.0,30.0,37,2635.0,square1,i,0.2718,0,V,10.0
V10,76.0,38.0,47.0,23.0,30.0,38,2673.0,square1,i,0.0008,0,V,10.0
V10,77.0,36.0,49.0,22.0,32.0,36,2709.0,square1,i,0.0296,0,V,10.0
V10,78.0,41.0,44.0,19.0,27.0,41,2750.0,square1,i,0.0799,0,V,10.0
V10,79.0,41.0,48.0,22.0,27.0,41,2791.0,square1,i,0.0243,0,V,10.0
V10,80.0,34.0,44.0,26.0,29.0,34,2825.0,square1,i,0.1415,0,V,10.0
V10,81.0,38.0,47.0,18.0,29.0,38,2863.0,square1,i,0.0568,0,V,10.0
V10,82.0,43.0,43.0,23.0,28.0,43,2906.0,square1,i,0.0422,0,V,10.0
V10,83.0,34.0,51.0,23.0,26.0,34,2940.0,square1,i,0.0407,0,V,10.0
V10,84.0,36.0,46.0,18.0,25.0,36,2976.0,square1,i,0.0996,0,V,10.0
V10,85.0,39.0,46.0,25.0,26.0,26,3002.0,square4,r,0.0475,3,V,10.0
V10,86.0,39.0,50.0,27.0,27.0,50,3052.0,square2,f,0.281,1,V,10.0
V10,87.0,38.0,46.0,20.0,30.0,46,3098.0,square2,f,0.3116,1,V,10.0
V10,88.0,37.0,49.0,22.0,28.0,22,3120.0,square3,j,0.7789,2,V,10.0
V10,89.0,34.0,51.0,25.0,26.0,51,3171.0,square2,f,0.1589,1,V,10.0
V10,90.0,41.0,49.0,22.0,29.0,49,3220.0,square2,f,0.108,1,V,10.0
V10,91.0,37.0,45.0,26.0,32.0,45,3265.0,square2,f,0.0963,1,V,10.0
V10,92.0,42.0,42.0,27.0,28.0,42,3307.0,square2,f,0.0806,1,V,10.0
V10,93.0,41.0,48.0,19.0,36.0,48,3355.0,square2,f,0.0733,1,V,10.0
V10,94.0,43.0,49.0,23.0,31.0,49,3404.0,square2,f,0.2141,1,V,10.0
V10,95.0,39.0,46.0,18.0,27.0,46,3450.0,square2,f,0.2135,1,V,10.0
V10,96.0,37.0,48.0,24.0,27.0,48,3498.0,square2,f,0.004,1,V,10.0
V10,97.0,42.0,50.0,23.0,31.0,50,3548.0,square2,f,0.0007,1,V,10.0
V10,98.0,33.0,47.0,25.0,32.0,47,3595.0,square2,f,0.109,1,V,10.0
V10,99.0,39.0,48.0,23.0,32.0,48,3643.0,square2,f,0.9005,1,V,10.0
V2,0.0,33.0,24.0,43.0,18.0,99999,0.0,invalid,,,-1,V,2.0
V2,1.0,33.0,29.0,42.0,21.0,33,33.0,square1,f,0.3992,0,V,2.0
V2,2.0,37.0,26.0,45.0,22.0,26,59.0,square2,r,0.0681,1,V,2.0
V2,3.0,39.0,26.0,41.0,20.0,41,100.0,square3,i,0.0004,2,V,2.0
V2,4.0,29.0,32.0,45.0,19.0,19,119.0,square4,j,0.0225,3,V,2.0
V2,5.0,33.0,28.0,44.0,17.0,44,163.0,square3,i,0.0061,2,V,2.0
V2,6.0,32.0,24.0,49.0,20.0,24,187.0,square2,r,0.458,1,V,2.0
V2,7.0,32.0,21.0,42.0,13.0,32,219.0,square1,f,0.0345,0,V,2.0
V2,8.0,35.0,23.0,45.0,19.0,19,238.0,square4,j,0.258,3,V,2.0
V2,9.0,33.0,28.0,46.0,17.0,46,284.0,square3,i,0.1893,2,V,2.0
V2,10.0,39.0,27.0,45.0,21.0,45,329.0,square3,i,0.0817,2,V,2.0
V2,11.0,30.0,23.0,44.0,22.0,44,373.0,square3,i,0.0566,2,V,2.0
V2,12.0,31.0,26.0,43.0,16.0,43,416.0,square3,i,0.1626,2,V,2.0
V2,13.0,35.0,26.0,43.0,22.0,35,451.0,square1,f,0.0623,0,V,2.0
V2,14.0,35.0,29.0,46.0,19.0,29,480.0,square2,r,0.0802,1,V,2.0
V2,15.0,36.0,22.0,44.0,20.0,20,500.0,square4,j,0.6594,3,V,2.0
V2,16.0,33.0,27.0,45.0,19.0,45,545.0,square3,i,0.0007,2,V,2.0
V2,17.0,35.0,25.0,41.0,15.0,41,586.0,square3,i,0.197,2,V,2.0
V2,18.0,37.0,27.0,51.0,21.0,51,637.0,square3,i,0.0008,2,V,2.0
V2,19.0,33.0,25.0,43.0,18.0,43,680.0,square3,i,0.1082,2,V,2.0
V2,20.0,39.0,25.0,43.0,20.0,43,723.0,square3,i,0.1088,2,V,2.0
V2,21.0,27.0,32.0,43.0,24.0,43,766.0,square3,i,0.0918,2,V,2.0
V2,22.0,35.0,27.0,50.0,13.0,50,816.0,square3,i,0.0623,2,V,2.0
V2,23.0,36.0,25.0,39.0,17.0,39,855.0,square3,i,0.0652,2,V,2.0
V2,24.0,32.0,45.0,39.0,59.0,39,894.0,square3,i,0.0463,2,V,2.0
V2,25.0,26.0,43.0,37.0,55.0,43,937.0,square2,r,0.1468,1,V,2.0
V2,26.0,23.0,45.0,39.0,58.0,45,982.0,square2,r,0.2664,1,V,2.0
V2,27.0,30.0,44.0,40.0,56.0,44,1026.0,square2,r,0.0452,1,V,2.0
V2,28.0,34.0,48.0,41.0,54.0,48,1074.0,square2,r,0.0225,1,V,2.0
V2,29.0,29.0,42.0,35.0,54.0,42,1116.0,square2,r,0.1587,1,V,2.0
V2,30.0,22.0,39.0,39.0,55.0,39,1155.0,square2,r,0.2733,1,V,2.0
V2,31.0,32.0,48.0,35.0,50.0,32,1187.0,square1,f,0.1582,0,V,2.0
V2,32.0,27.0,47.0,40.0,58.0,58,1245.0,square4,j,0.2512,3,V,2.0
V2,33.0,28.0,46.0,31.0,54.0,54,1299.0,square4,j,0.273,3,V,2.0
V2,34.0,28.0,44.0,41.0,49.0,49,1348.0,square4,j,0.1453,3,V,2.0
V2,35.0,31.0,44.0,33.0,59.0,59,1407.0,square4,j,0.4482,3,V,2.0
V2,36.0,29.0,48.0,30.0,55.0,55,1462.0,square4,j,0.162,3,V,2.0
V2,37.0,25.0,45.0,32.0,51.0,51,1513.0,square4,j,0.1013,3,V,2.0
V2,38.0,29.0,48.0,33.0,54.0,54,1567.0,square4,j,0.007,3,V,2.0
V2,39.0,29.0,44.0,33.0,54.0,44,1611.0,square2,r,0.0134,1,V,2.0
V2,40.0,33.0,42.0,37.0,61.0,61,1672.0,square4,j,0.1117,3,V,2.0
V2,41.0,28.0,45.0,41.0,57.0,57,1729.0,square4,j,0.1287,3,V,2.0
V2,42.0,33.0,46.0,36.0,54.0,54,1783.0,square4,j,0.1173,3,V,2.0
V2,43.0,31.0,42.0,40.0,57.0,57,1840.0,square4,j,0.159,3,V,2.0
V2,44.0,27.0,45.0,38.0,56.0,56,1896.0,square4,j,0.1237,3,V,2.0
V2,45.0,27.0,44.0,32.0,51.0,32,1928.0,square3,i,0.1969,2,V,2.0
V2,46.0,28.0,44.0,39.0,57.0,57,1985.0,square4,j,0.0764,3,V,2.0
V2,47.0,30.0,45.0,36.0,56.0,56,2041.0,square4,j,0.18,3,V,2.0
V2,48.0,31.0,47.0,41.0,59.0,59,2100.0,square4,j,0.1949,3,V,2.0
V2,49.0,32.0,45.0,33.0,57.0,57,2157.0,square4,j,0.0621,3,V,2.0
V2,50.0,24.0,38.0,36.0,52.0,52,2209.0,square4,j,0.0567,3,V,2.0
V2,51.0,29.0,48.0,34.0,54.0,54,2263.0,square4,j,0.1614,3,V,2.0
V2,52.0,30.0,50.0,38.0,56.0,56,2319.0,square4,j,0.0054,3,V,2.0
V2,53.0,27.0,47.0,33.0,55.0,55,2374.0,square4,j,0.1123,3,V,2.0
V2,54.0,34.0,21.0,45.0,25.0,25,2399.0,square4,j,0.2084,3,V,2.0
V2,55.0,36.0,19.0,39.0,24.0,36,2435.0,square1,f,0.7289,0,V,2.0
V2,56.0,29.0,19.0,45.0,18.0,45,2480.0,square3,i,0.2137,2,V,2.0
V2,57.0,29.0,20.0,39.0,20.0,20,2500.0,square2,r,0.2969,1,V,2.0
V2,58.0,40.0,18.0,42.0,21.0,42,2542.0,square3,i,0.033,2,V,2.0
V2,59.0,31.0,17.0,44.0,23.0,44,2586.0,square3,i,0.1421,2,V,2.0
V2,60.0,31.0,19.0,42.0,20.0,42,2628.0,square3,i,0.1284,2,V,2.0
V2,61.0,34.0,16.0,41.0,25.0,41,2669.0,square3,i,0.1752,2,V,2.0
V2,62.0,28.0,12.0,41.0,22.0,41,2710.0,square3,i,0.0241,2,V,2.0
V2,63.0,32.0,14.0,45.0,26.0,45,2755.0,square3,i,0.2134,2,V,2.0
V2,64.0,36.0,21.0,41.0,25.0,41,2796.0,square3,i,0.0254,2,V,2.0
V2,65.0,32.0,13.0,39.0,24.0,39,2835.0,square3,i,0.0942,2,V,2.0
V2,66.0,35.0,15.0,42.0,20.0,35,2870.0,square1,f,0.0422,0,V,2.0
V2,67.0,30.0,23.0,47.0,27.0,23,2893.0,square2,r,0.2063,1,V,2.0
V2,68.0,31.0,17.0,43.0,24.0,24,2917.0,square4,j,0.132,3,V,2.0
V2,69.0,33.0,20.0,41.0,20.0,41,2958.0,square3,i,0.1817,2,V,2.0
V2,70.0,37.0,17.0,43.0,21.0,43,3001.0,square3,i,0.2247,2,V,2.0
V2,71.0,45.0,31.0,36.0,58.0,58,3059.0,square4,j,0.0309,3,V,2.0
V2,72.0,47.0,31.0,31.0,54.0,54,3113.0,square4,j,0.3924,3,V,2.0
V2,73.0,50.0,30.0,33.0,55.0,55,3168.0,square4,j,0.0452,3,V,2.0
V2,74.0,45.0,31.0,36.0,51.0,51,3219.0,square4,j,0.1129,3,V,2.0
V2,75.0,47.0,28.0,38.0,54.0,54,3273.0,square4,j,0.0412,3,V,2.0
V2,76.0,52.0,33.0,35.0,60.0,60,3333.0,square4,j,0.0617,3,V,2.0
V2,77.0,41.0,29.0,37.0,53.0,53,3386.0,square4,j,0.2236,3,V,2.0
V2,78.0,51.0,24.0,34.0,56.0,56,3442.0,square4,j,0.0909,3,V,2.0
V2,79.0,41.0,34.0,36.0,52.0,52,3494.0,square4,j,0.1799,3,V,2.0
V2,80.0,48.0,31.0,37.0,51.0,51,3545.0,square4,j,0.1252,3,V,2.0
V2,81.0,43.0,32.0,40.0,53.0,40,3585.0,square3,i,0.2996,2,V,2.0
V2,82.0,48.0,25.0,37.0,58.0,25,3610.0,square2,r,0.4492,1,V,2.0
V2,83.0,45.0,32.0,36.0,61.0,45,3655.0,square1,f,0.1618,0,V,2.0
V2,84.0,47.0,29.0,39.0,60.0,60,3715.0,square4,j,0.1288,3,V,2.0
V2,85.0,49.0,30.0,39.0,54.0,54,3769.0,square4,j,0.2748,3,V,2.0
V2,86.0,46.0,28.0,33.0,51.0,51,3820.0,square4,j,0.1336,3,V,2.0
V2,87.0,45.0,24.0,37.0,55.0,55,3875.0,square4,j,0.1627,3,V,2.0
V2,88.0,48.0,29.0,42.0,54.0,54,3929.0,square4,j,0.0124,3,V,2.0
V2,89.0,43.0,31.0,38.0,52.0,52,3981.0,square4,j,0.0726,3,V,2.0
V2,90.0,51.0,33.0,36.0,56.0,56,4037.0,square4,j,0.2231,3,V,2.0
V2,91.0,49.0,32.0,37.0,59.0,59,4096.0,square4,j,0.181,3,V,2.0
V2,92.0,47.0,29.0,37.0,56.0,56,4152.0,square4,j,0.3122,3,V,2.0
V2,93.0,45.0,27.0,35.0,56.0,56,4208.0,square4,j,0.078,3,V,2.0
V2,94.0,45.0,31.0,31.0,49.0,49,4257.0,square4,j,0.0896,3,V,2.0
V2,95.0,47.0,33.0,36.0,52.0,52,4309.0,square4,j,0.0134,3,V,2.0
V2,96.0,44.0,28.0,37.0,59.0,59,4368.0,square4,j,0.2055,3,V,2.0
V2,97.0,48.0,28.0,33.0,55.0,55,4423.0,square4,j,0.1298,3,V,2.0
V2,98.0,49.0,29.0,39.0,60.0,60,4483.0,square4,j,0.0956,3,V,2.0
V2,99.0,44.0,30.0,36.0,50.0,50,4533.0,square4,j,0.0452,3,V,2.0
V6,0.0,43.0,59.0,68.0,49.0,49,49.0,square4,r,1.0391,3,V,6.0
V6,1.0,43.0,62.0,71.0,50.0,71,120.0,square3,f,0.3995,2,V,6.0
V6,2.0,48.0,61.0,72.0,51.0,61,181.0,square2,i,0.3748,1,V,6.0
V6,3.0,46.0,55.0,71.0,51.0,46,227.0,square1,j,0.0011,0,V,6.0
V6,4.0,44.0,61.0,74.0,48.0,74,301.0,square3,f,0.4086,2,V,6.0
V6,5.0,45.0,62.0,70.0,51.0,70,371.0,square3,f,0.0323,2,V,6.0
V6,6.0,42.0,67.0,73.0,46.0,73,444.0,square3,f,0.1725,2,V,6.0
V6,7.0,44.0,63.0,71.0,53.0,71,515.0,square3,f,0.0726,2,V,6.0
V6,8.0,41.0,62.0,73.0,52.0,73,588.0,square3,f,0.2087,2,V,6.0
V6,9.0,46.0,59.0,72.0,54.0,72,660.0,square3,f,0.1144,2,V,6.0
V6,10.0,45.0,59.0,70.0,53.0,70,730.0,square3,f,0.1243,2,V,6.0
V6,11.0,45.0,60.0,70.0,49.0,70,800.0,square3,f,0.0806,2,V,6.0
V6,12.0,45.0,66.0,64.0,48.0,64,864.0,square3,f,0.0285,2,V,6.0
V6,13.0,45.0,61.0,69.0,47.0,69,933.0,square3,f,0.0645,2,V,6.0
V6,14.0,47.0,60.0,71.0,56.0,71,1004.0,square3,f,0.0962,2,V,6.0
V6,15.0,46.0,64.0,67.0,52.0,67,1071.0,square3,f,0.1789,2,V,6.0
V6,16.0,50.0,60.0,69.0,54.0,69,1140.0,square3,f,0.158,2,V,6.0
V6,17.0,43.0,60.0,70.0,53.0,70,1210.0,square3,f,0.2088,2,V,6.0
V6,18.0,46.0,63.0,72.0,55.0,72,1282.0,square3,f,0.0757,2,V,6.0
V6,19.0,46.0,65.0,73.0,51.0,73,1355.0,square3,f,0.1425,2,V,6.0
V6,20.0,44.0,63.0,66.0,51.0,66,1421.0,square3,f,0.3164,2,V,6.0
V6,21.0,43.0,63.0,70.0,49.0,70,1491.0,square3,f,0.3072,2,V,6.0
V6,22.0,45.0,63.0,71.0,50.0,71,1562.0,square3,f,0.0576,2,V,6.0
V6,23.0,45.0,38.0,28.0,60.0,28,1590.0,square3,f,0.006,2,V,6.0
V6,24.0,46.0,33.0,33.0,53.0,33,1623.0,square2,i,0.3153,1,V,6.0
V6,25.0,45.0,36.0,32.0,63.0,45,1668.0,square1,j,0.0481,0,V,6.0
V6,26.0,52.0,37.0,28.0,57.0,57,1725.0,square4,r,0.0973,3,V,6.0
V6,27.0,45.0,33.0,30.0,62.0,62,1787.0,square4,r,0.0628,3,V,6.0
V6,28.0,43.0,37.0,24.0,51.0,51,1838.0,square4,r,0.1003,3,V,6.0
V6,29.0,48.0,39.0,34.0,61.0,61,1899.0,square4,r,0.1675,3,V,6.0
V6,30.0,48.0,44.0,35.0,59.0,59,1958.0,square4,r,0.0811,3,V,6.0
V6,31.0,50.0,39.0,34.0,53.0,53,2011.0,square4,r,0.1343,3,V,6.0
V6,32.0,44.0,33.0,33.0,54.0,54,2065.0,square4,r,0.1745,3,V,6.0
V6,33.0,48.0,37.0,30.0,56.0,56,2121.0,square4,r,0.1491,3,V,6.0
V6,34.0,52.0,37.0,27.0,59.0,59,2180.0,square4,r,0.1622,3,V,6.0
V6,35.0,47.0,32.0,29.0,59.0,59,2239.0,square4,r,0.075,3,V,6.0
V6,36.0,45.0,37.0,27.0,56.0,56,2295.0,square4,r,0.0801,3,V,6.0
V6,37.0,39.0,37.0,31.0,57.0,57,2352.0,square4,r,0.1747,3,V,6.0
V6,38.0,50.0,38.0,29.0,56.0,56,2408.0,square4,r,0.0291,3,V,6.0
V6,39.0,48.0,37.0,27.0,57.0,57,2465.0,square4,r,0.0112,3,V,6.0
V6,40.0,53.0,37.0,29.0,57.0,53,2518.0,square1,j,0.2803,0,V,6.0
V6,41.0,41.0,34.0,33.0,58.0,33,2551.0,square3,f,0.0912,2,V,6.0
V6,42.0,50.0,37.0,31.0,57.0,37,2588.0,square2,i,0.1424,1,V,6.0
V6,43.0,48.0,34.0,30.0,58.0,58,2646.0,square4,r,0.0952,3,V,6.0
V6,44.0,44.0,37.0,33.0,60.0,60,2706.0,square4,r,0.0253,3,V,6.0
V6,45.0,44.0,32.0,33.0,55.0,55,2761.0,square4,r,0.1459,3,V,6.0
V6,46.0,44.0,36.0,33.0,59.0,59,2820.0,square4,r,0.173,3,V,6.0
V6,47.0,42.0,34.0,29.0,52.0,52,2872.0,square4,r,0.0007,3,V,6.0
V6,48.0,46.0,41.0,28.0,60.0,60,2932.0,square4,r,0.4157,3,V,6.0
V6,49.0,46.0,40.0,27.0,55.0,55,2987.0,square4,r,0.051,3,V,6.0
V6,50.0,46.0,41.0,32.0,55.0,55,3042.0,square4,r,0.0293,3,V,6.0
V6,51.0,41.0,39.0,30.0,55.0,55,3097.0,square4,r,0.1343,3,V,6.0
V6,52.0,47.0,37.0,31.0,55.0,55,3152.0,square4,r,0.0948,3,V,6.0
V6,53.0,57.0,36.0,30.0,58.0,58,3210.0,square4,r,0.0104,3,V,6.0
V6,54.0,42.0,38.0,28.0,50.0,50,3260.0,square4,r,0.1955,3,V,6.0
V6,55.0,56.0,42.0,67.0,46.0,46,3306.0,square4,r,0.0418,3,V,6.0
V6,56.0,54.0,37.0,68.0,46.0,46,3352.0,square4,r,0.1291,3,V,6.0
V6,57.0,57.0,40.0,64.0,52.0,52,3404.0,square4,r,0.142,3,V,6.0
V6,58.0,53.0,45.0,68.0,45.0,45,3449.0,square4,r,0.0729,3,V,6.0
V6,59.0,59.0,41.0,69.0,49.0,49,3498.0,square4,r,0.1917,3,V,6.0
V6,60.0,62.0,41.0,71.0,51.0,51,3549.0,square4,r,0.0634,3,V,6.0
V6,61.0,58.0,50.0,72.0,51.0,51,3600.0,square4,r,0.4252,3,V,6.0
V6,62.0,61.0,43.0,65.0,47.0,47,3647.0,square4,r,0.1578,3,V,6.0
V6,63.0,55.0,40.0,67.0,51.0,51,3698.0,square4,r,0.1154,3,V,6.0
V6,64.0,56.0,43.0,67.0,47.0,47,3745.0,square4,r,0.088,3,V,6.0
V6,65.0,62.0,46.0,67.0,48.0,48,3793.0,square4,r,0.7326,3,V,6.0
V6,66.0,55.0,44.0,67.0,48.0,67,3860.0,square3,f,0.3924,2,V,6.0
V6,67.0,61.0,46.0,70.0,49.0,70,3930.0,square3,f,0.149,2,V,6.0
V6,68.0,63.0,41.0,72.0,46.0,72,4002.0,square3,f,0.0459,2,V,6.0
V6,69.0,59.0,41.0,68.0,48.0,68,4070.0,square3,f,0.1813,2,V,6.0
V6,70.0,59.0,37.0,70.0,45.0,70,4140.0,square3,f,0.031,2,V,6.0
V6,71.0,83.0,64.0,56.0,70.0,56,4196.0,square3,f,0.2084,2,V,6.0
V6,72.0,82.0,59.0,53.0,75.0,53,4249.0,square3,f,0.0004,2,V,6.0
V6,73.0,85.0,67.0,58.0,73.0,85,4334.0,square1,j,0.5796,0,V,6.0
V6,74.0,79.0,67.0,61.0,73.0,79,4413.0,square1,j,0.2629,0,V,6.0
V6,75.0,84.0,62.0,53.0,69.0,84,4497.0,square1,j,0.1134,0,V,6.0
V6,76.0,81.0,60.0,55.0,76.0,81,4578.0,square1,j,0.2648,0,V,6.0
V6,77.0,84.0,61.0,60.0,72.0,84,4662.0,square1,j,0.0585,0,V,6.0
V6,78.0,90.0,61.0,54.0,74.0,90,4752.0,square1,j,0.3463,0,V,6.0
V6,79.0,80.0,64.0,51.0,75.0,80,4832.0,square1,j,0.0282,0,V,6.0
V6,80.0,85.0,62.0,56.0,78.0,85,4917.0,square1,j,0.2548,0,V,6.0
V6,81.0,86.0,65.0,58.0,69.0,86,5003.0,square1,j,0.0814,0,V,6.0
V6,82.0,83.0,62.0,58.0,77.0,83,5086.0,square1,j,0.0174,0,V,6.0
V6,83.0,87.0,61.0,59.0,70.0,87,5173.0,square1,j,0.2416,0,V,6.0
V6,84.0,89.0,65.0,54.0,78.0,89,5262.0,square1,j,0.324,0,V,6.0
V6,85.0,78.0,63.0,55.0,75.0,78,5340.0,square1,j,0.3512,0,V,6.0
V6,86.0,87.0,67.0,52.0,75.0,87,5427.0,square1,j,0.3083,0,V,6.0
V6,87.0,86.0,62.0,60.0,75.0,86,5513.0,square1,j,0.2757,0,V,6.0
V6,88.0,79.0,67.0,56.0,76.0,79,5592.0,square1,j,0.2953,0,V,6.0
V6,89.0,83.0,61.0,57.0,75.0,83,5675.0,square1,j,0.0886,0,V,6.0
V6,90.0,83.0,67.0,51.0,76.0,83,5758.0,square1,j,0.2011,0,V,6.0
V6,91.0,83.0,63.0,55.0,69.0,83,5841.0,square1,j,0.1251,0,V,6.0
V6,92.0,89.0,56.0,53.0,68.0,89,5930.0,square1,j,0.0587,0,V,6.0
V6,93.0,84.0,61.0,59.0,74.0,84,6014.0,square1,j,0.108,0,V,6.0
V6,94.0,77.0,58.0,58.0,76.0,77,6091.0,square1,j,0.285,0,V,6.0
V6,95.0,82.0,60.0,53.0,74.0,82,6173.0,square1,j,0.1675,0,V,6.0
V6,96.0,87.0,61.0,56.0,71.0,87,6260.0,square1,j,0.0505,0,V,6.0
V6,97.0,83.0,66.0,55.0,75.0,83,6343.0,square1,j,0.1327,0,V,6.0
V6,98.0,81.0,63.0,55.0,76.0,81,6424.0,square1,j,0.0748,0,V,6.0
V6,99.0,92.0,63.0,61.0,78.0,92,6516.0,square1,j,0.2245,0,V,6.0
S7,0.0,68.0,73.0,62.0,57.0,99999,0.0,invalid,,,-1,S,7.0
S7,1.0,74.0,67.0,66.0,59.0,59,59.0,square4,f,0.3578,3,S,7.0
S7,2.0,68.0,69.0,65.0,60.0,68,127.0,square1,r,0.2449,0,S,7.0
S7,3.0,74.0,68.0,65.0,63.0,68,195.0,square2,j,0.122,1,S,7.0
S7,4.0,68.0,74.0,67.0,63.0,67,262.0,square3,i,0.0826,2,S,7.0
S7,5.0,68.0,67.0,61.0,57.0,57,319.0,square4,f,0.1467,3,S,7.0
S7,6.0,72.0,64.0,65.0,51.0,72,391.0,square1,r,0.1283,0,S,7.0
S7,7.0,69.0,63.0,69.0,63.0,69,460.0,square3,i,0.333,2,S,7.0
S7,8.0,71.0,68.0,63.0,54.0,68,528.0,square2,j,0.2767,1,S,7.0
S7,9.0,81.0,66.0,68.0,62.0,62,590.0,square4,f,0.1754,3,S,7.0
S7,10.0,72.0,73.0,68.0,61.0,72,662.0,square1,r,0.1407,0,S,7.0
S7,11.0,72.0,72.0,62.0,58.0,72,734.0,square1,r,0.084,0,S,7.0
S7,12.0,66.0,66.0,62.0,61.0,66,800.0,square1,r,0.028,0,S,7.0
S7,13.0,73.0,75.0,75.0,68.0,73,873.0,square1,r,0.0393,0,S,7.0
S7,14.0,71.0,73.0,72.0,66.0,71,944.0,square1,r,0.1806,0,S,7.0
S7,15.0,75.0,68.0,68.0,65.0,75,1019.0,square1,r,0.0582,0,S,7.0
S7,16.0,67.0,65.0,62.0,56.0,67,1086.0,square1,r,0.0305,0,S,7.0
S7,17.0,72.0,67.0,63.0,64.0,63,1149.0,square3,i,0.1746,2,S,7.0
S7,18.0,73.0,69.0,66.0,65.0,69,1218.0,square2,j,0.1147,1,S,7.0
S7,19.0,75.0,70.0,62.0,58.0,58,1276.0,square4,f,0.023,3,S,7.0
S7,20.0,76.0,63.0,67.0,62.0,76,1352.0,square1,r,0.1919,0,S,7.0
S7,21.0,79.0,76.0,63.0,64.0,79,1431.0,square1,r,0.2221,0,S,7.0
S7,22.0,67.0,72.0,63.0,62.0,67,1498.0,square1,r,0.3118,0,S,7.0
S7,23.0,69.0,71.0,70.0,62.0,69,1567.0,square1,r,0.1248,0,S,7.0
S7,24.0,74.0,67.0,70.0,62.0,74,1641.0,square1,r,0.1745,0,S,7.0
S7,25.0,70.0,67.0,72.0,62.0,70,1711.0,square1,r,0.0453,0,S,7.0
S7,26.0,72.0,62.0,74.0,65.0,72,1783.0,square1,r,0.1807,0,S,7.0
S7,27.0,69.0,70.0,68.0,62.0,69,1852.0,square1,r,0.2302,0,S,7.0
S7,28.0,65.0,66.0,60.0,62.0,65,1917.0,square1,r,0.2789,0,S,7.0
S7,29.0,70.0,64.0,60.0,68.0,70,1987.0,square1,r,0.0962,0,S,7.0
S7,30.0,69.0,69.0,64.0,57.0,69,2056.0,square1,r,0.2085,0,S,7.0
S7,31.0,77.0,67.0,65.0,60.0,77,2133.0,square1,r,0.0004,0,S,7.0
S7,32.0,67.0,75.0,65.0,58.0,67,2200.0,square1,r,0.1584,0,S,7.0
S7,33.0,74.0,66.0,66.0,60.0,74,2274.0,square1,r,0.1924,0,S,7.0
S7,34.0,72.0,72.0,66.0,61.0,72,2346.0,square1,r,0.1325,0,S,7.0
S7,35.0,67.0,68.0,64.0,62.0,67,2413.0,square1,r,0.3135,0,S,7.0
S7,36.0,64.0,63.0,70.0,58.0,64,2477.0,square1,r,0.3144,0,S,7.0
S7,37.0,80.0,72.0,64.0,53.0,80,2557.0,square1,r,0.1088,0,S,7.0
S7,38.0,78.0,69.0,76.0,67.0,78,2635.0,square1,r,0.146,0,S,7.0
S7,39.0,69.0,66.0,60.0,67.0,69,2704.0,square1,r,0.2252,0,S,7.0
S7,40.0,72.0,71.0,63.0,66.0,72,2776.0,square1,r,0.0438,0,S,7.0
S7,41.0,80.0,73.0,65.0,63.0,65,2841.0,square3,i,0.0008,2,S,7.0
S7,42.0,77.0,60.0,65.0,59.0,60,2901.0,square2,j,0.2168,1,S,7.0
S7,43.0,70.0,72.0,70.0,63.0,63,2964.0,square4,f,0.0947,3,S,7.0
S7,44.0,77.0,70.0,66.0,58.0,77,3041.0,square1,r,0.1084,0,S,7.0
S7,45.0,75.0,69.0,73.0,58.0,75,3116.0,square1,r,0.2169,0,S,7.0
S7,46.0,74.0,71.0,63.0,63.0,74,3190.0,square1,r,0.1126,0,S,7.0
S7,47.0,73.0,75.0,71.0,64.0,73,3263.0,square1,r,0.0923,0,S,7.0
S7,48.0,78.0,79.0,64.0,58.0,78,3341.0,square1,r,0.1797,0,S,7.0
S7,49.0,75.0,72.0,66.0,72.0,75,3416.0,square1,r,0.2465,0,S,7.0
S9,0.0,36.0,36.0,32.0,32.0,32,32.0,square4,r,0.3442,3,S,9.0
S9,1.0,40.0,29.0,36.0,24.0,40,72.0,square1,i,0.0967,0,S,9.0
S9,2.0,31.0,43.0,22.0,29.0,22,94.0,square3,j,0.0349,2,S,9.0
S9,3.0,41.0,33.0,28.0,27.0,33,127.0,square2,f,0.091,1,S,9.0
S9,4.0,34.0,29.0,32.0,31.0,31,158.0,square4,r,0.0911,3,S,9.0
S9,5.0,41.0,32.0,22.0,29.0,22,180.0,square3,j,0.1239,2,S,9.0
S9,6.0,44.0,30.0,21.0,28.0,44,224.0,square1,i,0.0232,0,S,9.0
S9,7.0,39.0,37.0,26.0,24.0,37,261.0,square2,f,0.0988,1,S,9.0
S9,8.0,41.0,33.0,23.0,20.0,41,302.0,square1,i,0.1745,0,S,9.0
S9,9.0,30.0,35.0,24.0,27.0,30,332.0,square1,i,0.1316,0,S,9.0
S9,10.0,41.0,29.0,23.0,28.0,41,373.0,square1,i,0.1615,0,S,9.0
S9,11.0,37.0,38.0,22.0,33.0,37,410.0,square1,i,0.0468,0,S,9.0
S9,12.0,35.0,31.0,27.0,32.0,35,445.0,square1,i,0.164,0,S,9.0
S9,13.0,38.0,37.0,30.0,29.0,38,483.0,square1,i,0.125,0,S,9.0
S9,14.0,36.0,38.0,30.0,37.0,37,520.0,square4,r,0.0451,3,S,9.0
S9,15.0,40.0,29.0,27.0,24.0,29,549.0,square2,f,0.0049,1,S,9.0
S9,16.0,33.0,37.0,29.0,28.0,33,582.0,square1,i,0.142,0,S,9.0
S9,17.0,41.0,32.0,36.0,31.0,36,618.0,square3,j,0.1084,2,S,9.0
S9,18.0,39.0,26.0,16.0,35.0,35,653.0,square4,r,0.0726,3,S,9.0
S9,19.0,35.0,30.0,23.0,27.0,23,676.0,square3,j,0.0716,2,S,9.0
S9,20.0,39.0,34.0,23.0,29.0,29,705.0,square4,r,0.1082,3,S,9.0
S9,21.0,35.0,37.0,28.0,31.0,37,742.0,square2,f,0.1645,1,S,9.0
S9,22.0,37.0,30.0,23.0,38.0,37,779.0,square1,i,0.0765,0,S,9.0
S9,23.0,37.0,34.0,27.0,34.0,37,816.0,square1,i,0.0215,0,S,9.0
S9,24.0,31.0,34.0,26.0,27.0,31,847.0,square1,i,0.091,0,S,9.0
S9,25.0,38.0,40.0,29.0,24.0,38,885.0,square1,i,0.0715,0,S,9.0
S9,26.0,43.0,31.0,21.0,24.0,43,928.0,square1,i,0.0008,0,S,9.0
S9,27.0,30.0,31.0,23.0,28.0,30,958.0,square1,i,0.1615,0,S,9.0
S9,28.0,44.0,32.0,31.0,32.0,44,1002.0,square1,i,0.0955,0,S,9.0
S9,29.0,36.0,38.0,22.0,22.0,36,1038.0,square1,i,0.1158,0,S,9.0
S9,30.0,41.0,30.0,26.0,29.0,41,1079.0,square1,i,0.1079,0,S,9.0
S9,31.0,39.0,37.0,30.0,32.0,39,1118.0,square1,i,0.0003,0,S,9.0
S9,32.0,35.0,39.0,28.0,31.0,35,1153.0,square1,i,0.0986,0,S,9.0
S9,33.0,37.0,39.0,29.0,32.0,37,1190.0,square1,i,0.0714,0,S,9.0
S9,34.0,46.0,33.0,21.0,25.0,46,1236.0,square1,i,0.4346,0,S,9.0
S9,35.0,38.0,33.0,28.0,28.0,38,1274.0,square1,i,1.1676,0,S,9.0
S9,36.0,40.0,37.0,21.0,32.0,99999,1274.0,invalid,,,-1,S,9.0
S9,37.0,38.0,43.0,23.0,37.0,38,1312.0,square1,i,0.5576,0,S,9.0
S9,38.0,36.0,31.0,29.0,29.0,36,1348.0,square1,i,0.1571,0,S,9.0
S9,39.0,41.0,29.0,26.0,28.0,41,1389.0,square1,i,0.1307,0,S,9.0
S9,40.0,32.0,36.0,26.0,28.0,32,1421.0,square1,i,0.0138,0,S,9.0
S9,41.0,40.0,37.0,35.0,28.0,40,1461.0,square1,i,0.2623,0,S,9.0
S9,42.0,43.0,32.0,26.0,37.0,43,1504.0,square1,i,0.4738,0,S,9.0
S9,43.0,40.0,31.0,23.0,31.0,40,1544.0,square1,i,0.0503,0,S,9.0
S9,44.0,42.0,38.0,24.0,40.0,42,1586.0,square1,i,0.6905,0,S,9.0
S9,45.0,36.0,35.0,30.0,33.0,36,1622.0,square1,i,0.2339,0,S,9.0
S9,46.0,38.0,30.0,33.0,26.0,38,1660.0,square1,i,0.1504,0,S,9.0
S9,47.0,39.0,37.0,25.0,26.0,39,1699.0,square1,i,0.0614,0,S,9.0
S9,48.0,36.0,35.0,26.0,27.0,36,1735.0,square1,i,0.7476,0,S,9.0
S9,49.0,40.0,32.0,24.0,28.0,99999,1735.0,invalid,,,-1,S,9.0
S6,0.0,40.0,29.0,39.0,26.0,29,29.0,square2,r,0.7861,1,S,6.0
S6,1.0,34.0,40.0,31.0,25.0,34,63.0,square1,f,0.0054,0,S,6.0
S6,2.0,37.0,31.0,25.0,30.0,25,88.0,square3,i,0.1814,2,S,6.0
S6,3.0,39.0,37.0,30.0,27.0,27,115.0,square4,j,0.1129,3,S,6.0
S6,4.0,42.0,40.0,28.0,32.0,40,155.0,square2,r,0.1244,1,S,6.0
S6,5.0,35.0,35.0,39.0,29.0,35,190.0,square1,f,0.1781,0,S,6.0
S6,6.0,48.0,30.0,37.0,33.0,30,220.0,square2,r,0.1917,1,S,6.0
S6,7.0,47.0,34.0,31.0,29.0,29,249.0,square4,j,0.0786,3,S,6.0
S6,8.0,43.0,35.0,30.0,25.0,30,279.0,square3,i,0.0318,2,S,6.0
S6,9.0,36.0,38.0,35.0,35.0,35,314.0,square4,j,0.0662,3,S,6.0
S6,10.0,38.0,35.0,31.0,21.0,38,352.0,square1,f,0.088,0,S,6.0
S6,11.0,30.0,36.0,31.0,20.0,36,388.0,square2,r,0.0008,1,S,6.0
S6,12.0,37.0,40.0,33.0,22.0,37,425.0,square1,f,0.0038,0,S,6.0
S6,13.0,32.0,41.0,35.0,29.0,32,457.0,square1,f,0.0117,0,S,6.0
S6,14.0,41.0,29.0,30.0,32.0,41,498.0,square1,f,0.1129,0,S,6.0
S6,15.0,43.0,37.0,31.0,27.0,43,541.0,square1,f,0.0784,0,S,6.0
S6,16.0,34.0,34.0,35.0,31.0,34,575.0,square1,f,0.1335,0,S,6.0
S6,17.0,47.0,40.0,29.0,28.0,47,622.0,square1,f,0.062,0,S,6.0
S6,18.0,37.0,38.0,34.0,35.0,37,659.0,square1,f,0.0243,0,S,6.0
S6,19.0,36.0,39.0,31.0,26.0,36,695.0,square1,f,0.3077,0,S,6.0
S6,20.0,44.0,40.0,31.0,25.0,44,739.0,square1,f,0.2955,0,S,6.0
S6,21.0,39.0,41.0,35.0,24.0,39,778.0,square1,f,0.2961,0,S,6.0
S6,22.0,41.0,38.0,41.0,31.0,41,819.0,square1,f,0.0292,0,S,6.0
S6,23.0,37.0,31.0,30.0,32.0,37,856.0,square1,f,0.3473,0,S,6.0
S6,24.0,48.0,34.0,34.0,21.0,48,904.0,square1,f,0.1959,0,S,6.0
S6,25.0,42.0,45.0,26.0,29.0,42,946.0,square1,f,0.0657,0,S,6.0
S6,26.0,40.0,39.0,36.0,28.0,40,986.0,square1,f,0.0615,0,S,6.0
S6,27.0,42.0,33.0,29.0,29.0,42,1028.0,square1,f,0.0998,0,S,6.0
S6,28.0,41.0,30.0,29.0,29.0,41,1069.0,square1,f,0.0456,0,S,6.0
S6,29.0,42.0,40.0,32.0,27.0,42,1111.0,square1,f,0.9246,0,S,6.0
S6,30.0,42.0,36.0,30.0,26.0,42,1153.0,square1,f,0.241,0,S,6.0
S6,31.0,42.0,34.0,35.0,29.0,42,1195.0,square1,f,0.1924,0,S,6.0
S6,32.0,35.0,36.0,31.0,23.0,35,1230.0,square1,f,0.826,0,S,6.0
S6,33.0,35.0,31.0,35.0,30.0,35,1265.0,square1,f,0.1577,0,S,6.0
S6,34.0,40.0,38.0,31.0,27.0,40,1305.0,square1,f,0.0318,0,S,6.0
S6,35.0,42.0,37.0,34.0,34.0,42,1347.0,square1,f,0.0747,0,S,6.0
S6,36.0,37.0,46.0,31.0,34.0,37,1384.0,square1,f,0.1447,0,S,6.0
S6,37.0,38.0,40.0,30.0,26.0,38,1422.0,square1,f,0.0074,0,S,6.0
S6,38.0,36.0,34.0,31.0,33.0,34,1456.0,square2,r,0.2158,1,S,6.0
S6,39.0,44.0,37.0,33.0,31.0,44,1500.0,square1,f,0.0578,0,S,6.0
S6,40.0,40.0,38.0,31.0,25.0,40,1540.0,square1,f,0.3335,0,S,6.0
S6,41.0,49.0,35.0,35.0,28.0,35,1575.0,square3,i,0.3285,2,S,6.0
S6,42.0,44.0,40.0,32.0,28.0,28,1603.0,square4,j,1.258,3,S,6.0
S6,43.0,43.0,36.0,33.0,26.0,43,1646.0,square1,f,0.1915,0,S,6.0
S6,44.0,38.0,33.0,34.0,26.0,38,1684.0,square1,f,0.0109,0,S,6.0
S6,45.0,32.0,35.0,30.0,28.0,32,1716.0,square1,f,0.1758,0,S,6.0
S6,46.0,38.0,36.0,34.0,30.0,38,1754.0,square1,f,0.0644,0,S,6.0
S6,47.0,44.0,35.0,32.0,31.0,44,1798.0,square1,f,0.174,0,S,6.0
S6,48.0,40.0,40.0,31.0,33.0,40,1838.0,square1,f,0.1074,0,S,6.0
S6,49.0,41.0,29.0,29.0,29.0,41,1879.0,square1,f,0.198,0,S,6.0
S1,0.0,72.0,58.0,70.0,66.0,66,66.0,square4,r,0.7727,3,S,1.0
S1,1.0,75.0,64.0,66.0,69.0,64,130.0,square2,f,0.1911,1,S,1.0
S1,2.0,75.0,62.0,62.0,79.0,75,205.0,square1,i,0.2214,0,S,1.0
S1,3.0,68.0,62.0,63.0,69.0,63,268.0,square3,j,0.1789,2,S,1.0
S1,4.0,82.0,63.0,64.0,73.0,82,350.0,square1,i,0.0246,0,S,1.0
S1,5.0,66.0,70.0,65.0,73.0,66,416.0,square1,i,0.2165,0,S,1.0
S1,6.0,73.0,65.0,62.0,65.0,73,489.0,square1,i,0.2639,0,S,1.0
S1,7.0,70.0,61.0,65.0,66.0,70,559.0,square1,i,0.0335,0,S,1.0
S1,8.0,78.0,63.0,67.0,68.0,78,637.0,square1,i,0.2051,0,S,1.0
S1,9.0,74.0,67.0,66.0,68.0,74,711.0,square1,i,0.0903,0,S,1.0
S1,10.0,73.0,59.0,68.0,68.0,73,784.0,square1,i,0.2122,0,S,1.0
S1,11.0,76.0,65.0,62.0,81.0,76,860.0,square1,i,0.116,0,S,1.0
S1,12.0,77.0,66.0,69.0,63.0,77,937.0,square1,i,0.1246,0,S,1.0
S1,13.0,75.0,63.0,68.0,73.0,75,1012.0,square1,i,0.1575,0,S,1.0
S1,14.0,67.0,60.0,67.0,69.0,67,1079.0,square1,i,0.0819,0,S,1.0
S1,15.0,70.0,63.0,69.0,73.0,70,1149.0,square1,i,0.0492,0,S,1.0
S1,16.0,69.0,61.0,69.0,69.0,69,1218.0,square1,i,0.0161,0,S,1.0
S1,17.0,73.0,68.0,67.0,73.0,73,1291.0,square1,i,0.0394,0,S,1.0
S1,18.0,70.0,58.0,73.0,66.0,70,1361.0,square1,i,0.2297,0,S,1.0
S1,19.0,75.0,58.0,62.0,68.0,75,1436.0,square1,i,0.7245,0,S,1.0
S1,20.0,76.0,58.0,72.0,67.0,72,1508.0,square3,j,0.0849,2,S,1.0
S1,21.0,69.0,66.0,66.0,67.0,67,1575.0,square4,r,0.8084,3,S,1.0
S1,22.0,70.0,68.0,65.0,65.0,68,1643.0,square2,f,0.0106,1,S,1.0
S1,23.0,71.0,60.0,64.0,64.0,71,1714.0,square1,i,0.1082,0,S,1.0
S1,24.0,70.0,72.0,62.0,67.0,70,1784.0,square1,i,0.0785,0,S,1.0
S1,25.0,68.0,60.0,70.0,65.0,68,1852.0,square1,i,0.0004,0,S,1.0
S1,26.0,76.0,64.0,72.0,69.0,76,1928.0,square1,i,0.1441,0,S,1.0
S1,27.0,71.0,56.0,70.0,65.0,71,1999.0,square1,i,0.0572,0,S,1.0
S1,28.0,67.0,67.0,71.0,76.0,67,2066.0,square1,i,0.1647,0,S,1.0
S1,29.0,78.0,64.0,64.0,74.0,78,2144.0,square1,i,0.0416,0,S,1.0
S1,30.0,74.0,63.0,65.0,71.0,74,2218.0,square1,i,0.0004,0,S,1.0
S1,31.0,78.0,58.0,69.0,69.0,78,2296.0,square1,i,0.1642,0,S,1.0
S1,32.0,71.0,67.0,68.0,60.0,71,2367.0,square1,i,0.0505,0,S,1.0
S1,33.0,68.0,63.0,65.0,73.0,65,2432.0,square3,j,0.0822,2,S,1.0
S1,34.0,71.0,62.0,74.0,73.0,71,2503.0,square1,i,0.0575,0,S,1.0
S1,35.0,75.0,59.0,67.0,77.0,75,2578.0,square1,i,0.0228,0,S,1.0
S1,36.0,77.0,60.0,66.0,67.0,77,2655.0,square1,i,0.1798,0,S,1.0
S1,37.0,69.0,60.0,69.0,75.0,69,2724.0,square1,i,0.1288,0,S,1.0
S1,38.0,77.0,64.0,62.0,70.0,77,2801.0,square1,i,0.1285,0,S,1.0
S1,39.0,72.0,66.0,69.0,65.0,72,2873.0,square1,i,0.1617,0,S,1.0
S1,40.0,69.0,63.0,66.0,69.0,69,2942.0,square1,i,0.1785,0,S,1.0
S1,41.0,72.0,62.0,70.0,70.0,72,3014.0,square1,i,0.0883,0,S,1.0
S1,42.0,78.0,60.0,63.0,62.0,78,3092.0,square1,i,0.1117,0,S,1.0
S1,43.0,71.0,62.0,67.0,73.0,71,3163.0,square1,i,0.1074,0,S,1.0
S1,44.0,75.0,63.0,69.0,73.0,75,3238.0,square1,i,0.0234,0,S,1.0
S1,45.0,66.0,60.0,68.0,73.0,66,3304.0,square1,i,0.0008,0,S,1.0
S1,46.0,74.0,67.0,69.0,71.0,74,3378.0,square1,i,0.1811,0,S,1.0
S1,47.0,71.0,66.0,68.0,70.0,71,3449.0,square1,i,0.5158,0,S,1.0
S1,48.0,72.0,75.0,71.0,77.0,72,3521.0,square1,i,0.1578,0,S,1.0
S1,49.0,65.0,57.0,66.0,75.0,65,3586.0,square1,i,0.0617,0,S,1.0
S5,0.0,90.0,70.0,79.0,84.0,90,90.0,square1,r,0.6048,0,S,5.0
S5,1.0,92.0,77.0,83.0,81.0,83,173.0,square3,i,0.2283,2,S,5.0
S5,2.0,83.0,72.0,81.0,76.0,76,249.0,square4,f,0.0911,3,S,5.0
S5,3.0,87.0,72.0,79.0,81.0,72,321.0,square2,j,0.3797,1,S,5.0
S5,4.0,86.0,81.0,78.0,72.0,86,407.0,square1,r,0.43,0,S,5.0
S5,5.0,89.0,70.0,79.0,83.0,89,496.0,square1,r,0.3754,0,S,5.0
S5,6.0,86.0,69.0,81.0,81.0,86,582.0,square1,r,1.5145,0,S,5.0
S5,7.0,82.0,72.0,86.0,80.0,82,664.0,square1,r,0.0749,0,S,5.0
S5,8.0,84.0,67.0,80.0,77.0,84,748.0,square1,r,0.2243,0,S,5.0
S5,9.0,92.0,80.0,86.0,84.0,92,840.0,square1,r,0.1485,0,S,5.0
S5,10.0,82.0,71.0,80.0,80.0,82,922.0,square1,r,0.3323,0,S,5.0
S5,11.0,80.0,75.0,79.0,75.0,80,1002.0,square1,r,0.1254,0,S,5.0
S5,12.0,84.0,75.0,80.0,82.0,84,1086.0,square1,r,0.4333,0,S,5.0
S5,13.0,85.0,74.0,74.0,81.0,85,1171.0,square1,r,0.0665,0,S,5.0
S5,14.0,81.0,79.0,85.0,81.0,81,1252.0,square1,r,0.1803,0,S,5.0
S5,15.0,81.0,75.0,76.0,77.0,81,1333.0,square1,r,1.7295,0,S,5.0
S5,16.0,86.0,74.0,78.0,74.0,86,1419.0,square1,r,0.2117,0,S,5.0
S5,17.0,81.0,77.0,81.0,77.0,81,1500.0,square1,r,0.4698,0,S,5.0
S5,18.0,87.0,70.0,84.0,82.0,87,1587.0,square1,r,0.0653,0,S,5.0
S5,19.0,84.0,76.0,83.0,76.0,84,1671.0,square1,r,0.1145,0,S,5.0
S5,20.0,79.0,78.0,82.0,76.0,79,1750.0,square1,r,0.3581,0,S,5.0
S5,21.0,86.0,68.0,80.0,72.0,86,1836.0,square1,r,0.091,0,S,5.0
S5,22.0,93.0,80.0,85.0,84.0,93,1929.0,square1,r,0.506,0,S,5.0
S5,23.0,87.0,73.0,76.0,70.0,87,2016.0,square1,r,0.093,0,S,5.0
S5,24.0,85.0,69.0,81.0,78.0,85,2101.0,square1,r,0.1302,0,S,5.0
S5,25.0,89.0,77.0,77.0,76.0,89,2190.0,square1,r,0.3251,0,S,5.0
S5,26.0,84.0,71.0,81.0,75.0,84,2274.0,square1,r,0.2492,0,S,5.0
S5,27.0,84.0,75.0,82.0,71.0,84,2358.0,square1,r,0.3594,0,S,5.0
S5,28.0,83.0,72.0,82.0,78.0,83,2441.0,square1,r,0.0748,0,S,5.0
S5,29.0,91.0,67.0,79.0,74.0,99999,2441.0,invalid,,,-1,S,5.0
S5,30.0,82.0,69.0,81.0,77.0,82,2523.0,square1,r,0.2105,0,S,5.0
S5,31.0,82.0,72.0,80.0,78.0,82,2605.0,square1,r,0.2645,0,S,5.0
S5,32.0,83.0,73.0,91.0,80.0,83,2688.0,square1,r,0.391,0,S,5.0
S5,33.0,83.0,68.0,85.0,78.0,83,2771.0,square1,r,0.191,0,S,5.0
S5,34.0,89.0,79.0,83.0,77.0,89,2860.0,square1,r,0.2496,0,S,5.0
S5,35.0,88.0,72.0,79.0,80.0,88,2948.0,square1,r,1.8915,0,S,5.0
S5,36.0,90.0,74.0,84.0,76.0,90,3038.0,square1,r,0.1957,0,S,5.0
S5,37.0,85.0,75.0,80.0,82.0,85,3123.0,square1,r,0.0059,0,S,5.0
S5,38.0,78.0,74.0,85.0,79.0,78,3201.0,square1,r,0.8326,0,S,5.0
S5,39.0,87.0,73.0,87.0,85.0,87,3288.0,square1,r,0.9994,0,S,5.0
S5,40.0,83.0,67.0,81.0,80.0,83,3371.0,square1,r,0.2065,0,S,5.0
S5,41.0,82.0,69.0,88.0,80.0,82,3453.0,square1,r,0.0501,0,S,5.0
S5,42.0,85.0,78.0,91.0,80.0,85,3538.0,square1,r,0.0498,0,S,5.0
S5,43.0,89.0,74.0,78.0,74.0,89,3627.0,square1,r,0.1614,0,S,5.0
S5,44.0,90.0,74.0,77.0,85.0,90,3717.0,square1,r,0.0413,0,S,5.0
S5,45.0,89.0,68.0,81.0,78.0,89,3806.0,square1,r,1.679,0,S,5.0
S5,46.0,86.0,70.0,86.0,68.0,86,3892.0,square1,r,0.6621,0,S,5.0
S5,47.0,90.0,77.0,85.0,84.0,90,3982.0,square1,r,0.2455,0,S,5.0
S5,48.0,76.0,66.0,82.0,79.0,76,4058.0,square1,r,0.2123,0,S,5.0
S5,49.0,84.0,73.0,82.0,75.0,84,4142.0,square1,r,0.2454,0,S,5.0
S8,0.0,58.0,60.0,52.0,45.0,52,52.0,square3,r,1.1075,2,S,8.0
S8,1.0,55.0,57.0,56.0,52.0,57,109.0,square2,f,0.1005,1,S,8.0
S8,2.0,54.0,58.0,58.0,49.0,49,158.0,square4,i,0.0111,3,S,8.0
S8,3.0,55.0,62.0,52.0,53.0,55,213.0,square1,j,0.0749,0,S,8.0
S8,4.0,55.0,60.0,49.0,51.0,55,268.0,square1,j,0.0469,0,S,8.0
S8,5.0,48.0,63.0,61.0,49.0,48,316.0,square1,j,0.2965,0,S,8.0
S8,6.0,58.0,63.0,59.0,55.0,58,374.0,square1,j,0.2802,0,S,8.0
S8,7.0,56.0,53.0,49.0,51.0,56,430.0,square1,j,0.3246,0,S,8.0
S8,8.0,61.0,63.0,66.0,49.0,61,491.0,square1,j,0.4726,0,S,8.0
S8,9.0,60.0,59.0,53.0,47.0,60,551.0,square1,j,0.3581,0,S,8.0
S8,10.0,55.0,63.0,52.0,55.0,55,606.0,square1,j,0.1612,0,S,8.0
S8,11.0,62.0,60.0,54.0,50.0,62,668.0,square1,j,0.0449,0,S,8.0
S8,12.0,58.0,64.0,51.0,52.0,58,726.0,square1,j,0.5614,0,S,8.0
S8,13.0,62.0,59.0,53.0,53.0,62,788.0,square1,j,0.0475,0,S,8.0
S8,14.0,51.0,62.0,61.0,54.0,51,839.0,square1,j,0.2921,0,S,8.0
S8,15.0,56.0,68.0,56.0,50.0,56,895.0,square1,j,0.0911,0,S,8.0
S8,16.0,58.0,64.0,56.0,50.0,58,953.0,square1,j,0.4787,0,S,8.0
S8,17.0,64.0,63.0,60.0,42.0,64,1017.0,square1,j,1.4292,0,S,8.0
S8,18.0,54.0,64.0,57.0,55.0,54,1071.0,square1,j,0.3421,0,S,8.0
S8,19.0,56.0,53.0,57.0,53.0,56,1127.0,square1,j,0.0008,0,S,8.0
S8,20.0,59.0,64.0,56.0,49.0,59,1186.0,square1,j,0.0966,0,S,8.0
S8,21.0,54.0,59.0,55.0,48.0,54,1240.0,square1,j,0.6761,0,S,8.0
S8,22.0,63.0,63.0,59.0,49.0,63,1303.0,square1,j,0.3793,0,S,8.0
S8,23.0,59.0,60.0,48.0,52.0,59,1362.0,square1,j,1.931,0,S,8.0
S8,24.0,55.0,53.0,60.0,50.0,55,1417.0,square1,j,0.9073,0,S,8.0
S8,25.0,57.0,60.0,55.0,54.0,99999,1417.0,invalid,,,-1,S,8.0
S8,26.0,62.0,66.0,57.0,58.0,62,1479.0,square1,j,0.3413,0,S,8.0
S8,27.0,58.0,55.0,52.0,48.0,58,1537.0,square1,j,1.6462,0,S,8.0
S8,28.0,53.0,59.0,53.0,55.0,53,1590.0,square1,j,0.0004,0,S,8.0
S8,29.0,60.0,58.0,57.0,53.0,60,1650.0,square1,j,0.4321,0,S,8.0
S8,30.0,57.0,67.0,52.0,56.0,57,1707.0,square1,j,0.5574,0,S,8.0
S8,31.0,60.0,58.0,52.0,50.0,60,1767.0,square1,j,0.8892,0,S,8.0
S8,32.0,54.0,61.0,56.0,57.0,54,1821.0,square1,j,0.3519,0,S,8.0
S8,33.0,66.0,64.0,63.0,52.0,66,1887.0,square1,j,1.6483,0,S,8.0
S8,34.0,54.0,65.0,66.0,56.0,99999,1887.0,invalid,,,-1,S,8.0
S8,35.0,54.0,62.0,61.0,48.0,54,1941.0,square1,j,1.0475,0,S,8.0
S8,36.0,53.0,63.0,54.0,55.0,99999,1941.0,invalid,,,-1,S,8.0
S8,37.0,64.0,58.0,57.0,51.0,64,2005.0,square1,j,0.5802,0,S,8.0
S8,38.0,68.0,65.0,59.0,57.0,68,2073.0,square1,j,1.0242,0,S,8.0
S8,39.0,64.0,65.0,51.0,55.0,64,2137.0,square1,j,0.1796,0,S,8.0
S8,40.0,63.0,61.0,57.0,47.0,63,2200.0,square1,j,1.3984,0,S,8.0
S8,41.0,65.0,58.0,55.0,49.0,65,2265.0,square1,j,0.0007,0,S,8.0
S8,42.0,52.0,60.0,51.0,56.0,52,2317.0,square1,j,0.9543,0,S,8.0
S8,43.0,63.0,57.0,48.0,50.0,63,2380.0,square1,j,0.6752,0,S,8.0
S8,44.0,59.0,63.0,53.0,53.0,99999,2380.0,invalid,,,-1,S,8.0
S8,45.0,62.0,62.0,60.0,53.0,99999,2380.0,invalid,,,-1,S,8.0
S8,46.0,56.0,62.0,57.0,60.0,56,2436.0,square1,j,1.6988,0,S,8.0
S8,47.0,60.0,63.0,58.0,56.0,60,2496.0,square1,j,0.1249,0,S,8.0
S8,48.0,59.0,63.0,49.0,53.0,59,2555.0,square1,j,1.9253,0,S,8.0
S8,49.0,67.0,67.0,59.0,55.0,67,2622.0,square1,j,0.7078,0,S,8.0
