block,Trial,square1,square2,square3,square4,currPoints,totalPoints,square,choiceKey.keys,choiceKey.rt,armNum,blockType,blockNum
prac,0.0,100.0,0.0,0.0,0.0,0,0.0,square3,,,2,p,0.0
prac,1.0,100.0,0.0,0.0,0.0,100,100.0,square1,,,0,p,0.0
prac,2.0,100.0,0.0,0.0,0.0,0,100.0,square4,,,3,p,0.0
prac,3.0,100.0,0.0,0.0,0.0,100,200.0,square1,,,0,p,0.0
prac,4.0,100.0,0.0,0.0,0.0,0,200.0,square2,,,1,p,0.0
prac,5.0,100.0,0.0,0.0,0.0,100,300.0,square1,,,0,p,0.0
prac,6.0,100.0,0.0,0.0,0.0,100,400.0,square1,,,0,p,0.0
prac,7.0,100.0,0.0,0.0,0.0,100,500.0,square1,,,0,p,0.0
prac,8.0,100.0,0.0,0.0,0.0,100,600.0,square1,,,0,p,0.0
prac,9.0,100.0,0.0,0.0,0.0,100,700.0,square1,,,0,p,0.0
S6,0.0,40.0,29.0,39.0,26.0,29,29.0,square2,r,0.8302,1,S,6.0
S6,1.0,34.0,40.0,31.0,25.0,31,60.0,square3,f,0.2013,2,S,6.0
S6,2.0,37.0,31.0,25.0,30.0,30,90.0,square4,j,0.8164,3,S,6.0
S6,3.0,39.0,37.0,30.0,27.0,39,129.0,square1,i,0.3021,0,S,6.0
S6,4.0,42.0,40.0,28.0,32.0,42,171.0,square1,i,0.1413,0,S,6.0
S6,5.0,35.0,35.0,39.0,29.0,35,206.0,square1,i,0.9741,0,S,6.0
S6,6.0,48.0,30.0,37.0,33.0,48,254.0,square1,i,0.2552,0,S,6.0
S6,7.0,47.0,34.0,31.0,29.0,47,301.0,square1,i,0.271,0,S,6.0
S6,8.0,43.0,35.0,30.0,25.0,43,344.0,square1,i,0.2011,0,S,6.0
S6,9.0,36.0,38.0,35.0,35.0,35,379.0,square3,f,0.959,2,S,6.0
S6,10.0,38.0,35.0,31.0,21.0,38,417.0,square1,i,0.4522,0,S,6.0
S6,11.0,30.0,36.0,31.0,20.0,36,453.0,square2,r,0.1036,1,S,6.0
S6,12.0,37.0,40.0,33.0,22.0,37,490.0,square1,i,0.6341,0,S,6.0
S6,13.0,32.0,41.0,35.0,29.0,32,522.0,square1,i,0.1557,0,S,6.0
S6,14.0,41.0,29.0,30.0,32.0,41,563.0,square1,i,0.1065,0,S,6.0
S6,15.0,43.0,37.0,31.0,27.0,43,606.0,square1,i,1.0512,0,S,6.0
S6,16.0,34.0,34.0,35.0,31.0,34,640.0,square1,i,0.2761,0,S,6.0
S6,17.0,47.0,40.0,29.0,28.0,47,687.0,square1,i,0.0257,0,S,6.0
S6,18.0,37.0,38.0,34.0,35.0,37,724.0,square1,i,0.137,0,S,6.0
S6,19.0,36.0,39.0,31.0,26.0,36,760.0,square1,i,1.003,0,S,6.0
S6,20.0,44.0,40.0,31.0,25.0,44,804.0,square1,i,0.2687,0,S,6.0
S6,21.0,39.0,41.0,35.0,24.0,39,843.0,square1,i,0.9597,0,S,6.0
S6,22.0,41.0,38.0,41.0,31.0,41,884.0,square1,i,0.2201,0,S,6.0
S6,23.0,37.0,31.0,30.0,32.0,37,921.0,square1,i,0.2547,0,S,6.0
S6,24.0,48.0,34.0,34.0,21.0,48,969.0,square1,i,0.2347,0,S,6.0
S6,25.0,42.0,45.0,26.0,29.0,42,1011.0,square1,i,0.2411,0,S,6.0
S6,26.0,40.0,39.0,36.0,28.0,40,1051.0,square1,i,0.4599,0,S,6.0
S6,27.0,42.0,33.0,29.0,29.0,42,1093.0,square1,i,0.2198,0,S,6.0
S6,28.0,41.0,30.0,29.0,29.0,41,1134.0,square1,i,0.0058,0,S,6.0
S6,29.0,42.0,40.0,32.0,27.0,42,1176.0,square1,i,0.0032,0,S,6.0
S6,30.0,42.0,36.0,30.0,26.0,42,1218.0,square1,i,0.8535,0,S,6.0
S6,31.0,42.0,34.0,35.0,29.0,42,1260.0,square1,i,0.3021,0,S,6.0
S6,32.0,35.0,36.0,31.0,23.0,35,1295.0,square1,i,1.1899,0,S,6.0
S6,33.0,35.0,31.0,35.0,30.0,30,1325.0,square4,j,0.4386,3,S,6.0
S6,34.0,40.0,38.0,31.0,27.0,40,1365.0,square1,i,0.296,0,S,6.0
S6,35.0,42.0,37.0,34.0,34.0,42,1407.0,square1,i,0.4751,0,S,6.0
S6,36.0,37.0,46.0,31.0,34.0,46,1453.0,square2,r,0.2841,1,S,6.0
S6,37.0,38.0,40.0,30.0,26.0,38,1491.0,square1,i,0.2453,0,S,6.0
S6,38.0,36.0,34.0,31.0,33.0,34,1525.0,square2,r,0.5436,1,S,6.0
S6,39.0,44.0,37.0,33.0,31.0,44,1569.0,square1,i,0.4913,0,S,6.0
S6,40.0,40.0,38.0,31.0,25.0,38,1607.0,square2,r,0.0432,1,S,6.0
S6,41.0,49.0,35.0,35.0,28.0,49,1656.0,square1,i,0.6043,0,S,6.0
S6,42.0,44.0,40.0,32.0,28.0,44,1700.0,square1,i,0.8386,0,S,6.0
S6,43.0,43.0,36.0,33.0,26.0,43,1743.0,square1,i,0.2429,0,S,6.0
S6,44.0,38.0,33.0,34.0,26.0,34,1777.0,square3,f,0.0111,2,S,6.0
S6,45.0,32.0,35.0,30.0,28.0,35,1812.0,square2,r,0.6201,1,S,6.0
S6,46.0,38.0,36.0,34.0,30.0,38,1850.0,square1,i,0.1884,0,S,6.0
S6,47.0,44.0,35.0,32.0,31.0,44,1894.0,square1,i,0.2293,0,S,6.0
S6,48.0,40.0,40.0,31.0,33.0,40,1934.0,square1,i,0.2733,0,S,6.0
S6,49.0,41.0,29.0,29.0,29.0,29,1963.0,square2,r,0.2746,1,S,6.0
S12,0.0,38.0,42.0,30.0,42.0,42,42.0,square4,r,1.8648,3,S,12.0
S12,1.0,30.0,42.0,28.0,37.0,42,84.0,square2,f,0.0447,1,S,12.0
S12,2.0,34.0,41.0,38.0,43.0,34,118.0,square1,j,0.3693,0,S,12.0
S12,3.0,38.0,51.0,38.0,38.0,38,156.0,square3,i,0.0116,2,S,12.0
S12,4.0,32.0,37.0,33.0,45.0,45,201.0,square4,r,0.3998,3,S,12.0
S12,5.0,38.0,52.0,36.0,35.0,52,253.0,square2,f,0.003,1,S,12.0
S12,6.0,30.0,43.0,30.0,38.0,43,296.0,square2,f,0.5686,1,S,12.0
S12,7.0,38.0,39.0,30.0,39.0,39,335.0,square2,f,0.2321,1,S,12.0
S12,8.0,37.0,49.0,35.0,38.0,49,384.0,square2,f,0.2756,1,S,12.0
S12,9.0,37.0,44.0,29.0,38.0,38,422.0,square4,r,0.2847,3,S,12.0
S12,10.0,35.0,42.0,30.0,45.0,42,464.0,square2,f,0.2411,1,S,12.0
S12,11.0,34.0,45.0,36.0,32.0,45,509.0,square2,f,0.121,1,S,12.0
S12,12.0,33.0,45.0,35.0,42.0,45,554.0,square2,f,0.2457,1,S,12.0
S12,13.0,36.0,36.0,29.0,40.0,36,590.0,square2,f,0.1779,1,S,12.0
S12,14.0,36.0,49.0,32.0,42.0,49,639.0,square2,f,0.003,1,S,12.0
S12,15.0,35.0,43.0,35.0,46.0,43,682.0,square2,f,0.2332,1,S,12.0
S12,16.0,39.0,48.0,41.0,43.0,48,730.0,square2,f,0.0357,1,S,12.0
S12,17.0,35.0,47.0,27.0,38.0,47,777.0,square2,f,0.1224,1,S,12.0
S12,18.0,37.0,51.0,33.0,33.0,51,828.0,square2,f,0.1555,1,S,12.0
S12,19.0,41.0,42.0,33.0,36.0,42,870.0,square2,f,0.0021,1,S,12.0
S12,20.0,34.0,44.0,26.0,41.0,44,914.0,square2,f,0.079,1,S,12.0
S12,21.0,35.0,37.0,29.0,35.0,37,951.0,square2,f,0.2245,1,S,12.0
S12,22.0,37.0,48.0,31.0,41.0,48,999.0,square2,f,0.0538,1,S,12.0
S12,23.0,36.0,43.0,27.0,45.0,43,1042.0,square2,f,0.0028,1,S,12.0
S12,24.0,39.0,48.0,38.0,38.0,48,1090.0,square2,f,0.1971,1,S,12.0
S12,25.0,31.0,43.0,30.0,40.0,43,1133.0,square2,f,0.238,1,S,12.0
S12,26.0,35.0,48.0,34.0,33.0,48,1181.0,square2,f,0.1168,1,S,12.0
S12,27.0,46.0,46.0,28.0,38.0,46,1227.0,square2,f,0.0523,1,S,12.0
S12,28.0,32.0,37.0,32.0,40.0,37,1264.0,square2,f,0.1273,1,S,12.0
S12,29.0,38.0,41.0,32.0,44.0,41,1305.0,square2,f,0.1344,1,S,12.0
S12,30.0,32.0,48.0,29.0,42.0,48,1353.0,square2,f,0.1243,1,S,12.0
S12,31.0,34.0,46.0,30.0,42.0,46,1399.0,square2,f,0.158,1,S,12.0
S12,32.0,39.0,43.0,41.0,40.0,43,1442.0,square2,f,0.1891,1,S,12.0
S12,33.0,36.0,47.0,33.0,46.0,47,1489.0,square2,f,0.2054,1,S,12.0
S12,34.0,36.0,41.0,34.0,41.0,41,1530.0,square2,f,0.254,1,S,12.0
S12,35.0,34.0,42.0,31.0,43.0,42,1572.0,square2,f,0.0169,1,S,12.0
S12,36.0,39.0,43.0,26.0,33.0,43,1615.0,square2,f,0.0229,1,S,12.0
S12,37.0,39.0,49.0,30.0,42.0,49,1664.0,square2,f,0.0262,1,S,12.0
S12,38.0,33.0,47.0,36.0,41.0,47,1711.0,square2,f,0.0474,1,S,12.0
S12,39.0,29.0,46.0,35.0,36.0,46,1757.0,square2,f,0.2374,1,S,12.0
S12,40.0,39.0,39.0,29.0,36.0,39,1796.0,square2,f,0.2381,1,S,12.0
S12,41.0,33.0,44.0,31.0,40.0,44,1840.0,square2,f,0.2554,1,S,12.0
S12,42.0,34.0,46.0,25.0,37.0,46,1886.0,square2,f,0.2395,1,S,12.0
S12,43.0,37.0,42.0,30.0,42.0,42,1928.0,square2,f,1.3595,1,S,12.0
S12,44.0,33.0,49.0,36.0,39.0,49,1977.0,square2,f,0.2526,1,S,12.0
S12,45.0,35.0,40.0,30.0,47.0,40,2017.0,square2,f,0.2015,1,S,12.0
S12,46.0,40.0,41.0,29.0,35.0,41,2058.0,square2,f,0.2042,1,S,12.0
S12,47.0,32.0,42.0,28.0,43.0,42,2100.0,square2,f,0.0617,1,S,12.0
S12,48.0,43.0,47.0,31.0,38.0,47,2147.0,square2,f,0.2239,1,S,12.0
S12,49.0,37.0,41.0,35.0,40.0,41,2188.0,square2,f,0.0886,1,S,12.0
S2,0.0,62.0,57.0,71.0,74.0,99999,0.0,invalid,,,-1,S,2.0
S2,1.0,64.0,59.0,72.0,67.0,72,72.0,square3,f,0.6799,2,S,2.0
S2,2.0,68.0,57.0,75.0,68.0,68,140.0,square4,j,0.2421,3,S,2.0
S2,3.0,69.0,57.0,80.0,70.0,57,197.0,square2,r,0.2896,1,S,2.0
S2,4.0,66.0,60.0,74.0,68.0,66,263.0,square1,i,0.1568,0,S,2.0
S2,5.0,63.0,62.0,77.0,72.0,77,340.0,square3,f,0.4897,2,S,2.0
S2,6.0,69.0,61.0,75.0,74.0,74,414.0,square4,j,0.0083,3,S,2.0
S2,7.0,74.0,66.0,79.0,72.0,79,493.0,square3,f,0.2237,2,S,2.0
S2,8.0,81.0,65.0,76.0,72.0,72,565.0,square4,j,0.6781,3,S,2.0
S2,9.0,70.0,66.0,78.0,70.0,78,643.0,square3,f,0.7346,2,S,2.0
S2,10.0,70.0,72.0,70.0,74.0,70,713.0,square3,f,0.2591,2,S,2.0
S2,11.0,64.0,66.0,72.0,67.0,72,785.0,square3,f,0.2623,2,S,2.0
S2,12.0,66.0,57.0,70.0,67.0,70,855.0,square3,f,0.2422,2,S,2.0
S2,13.0,68.0,68.0,71.0,73.0,71,926.0,square3,f,0.1045,2,S,2.0
S2,14.0,70.0,63.0,77.0,71.0,77,1003.0,square3,f,0.2042,2,S,2.0
S2,15.0,64.0,66.0,75.0,66.0,75,1078.0,square3,f,0.0271,2,S,2.0
S2,16.0,67.0,61.0,73.0,70.0,73,1151.0,square3,f,0.0126,2,S,2.0
S2,17.0,65.0,58.0,71.0,75.0,71,1222.0,square3,f,0.6389,2,S,2.0
S2,18.0,72.0,64.0,81.0,61.0,81,1303.0,square3,f,0.518,2,S,2.0
S2,19.0,60.0,63.0,72.0,65.0,72,1375.0,square3,f,0.5402,2,S,2.0
S2,20.0,68.0,56.0,71.0,70.0,71,1446.0,square3,f,0.3037,2,S,2.0
S2,21.0,65.0,65.0,74.0,71.0,74,1520.0,square3,f,0.3024,2,S,2.0
S2,22.0,69.0,62.0,77.0,72.0,77,1597.0,square3,f,0.2788,2,S,2.0
S2,23.0,64.0,71.0,74.0,65.0,74,1671.0,square3,f,0.2074,2,S,2.0
S2,24.0,66.0,62.0,78.0,70.0,78,1749.0,square3,f,0.1756,2,S,2.0
S2,25.0,67.0,69.0,76.0,66.0,76,1825.0,square3,f,0.2287,2,S,2.0
S2,26.0,65.0,63.0,74.0,69.0,74,1899.0,square3,f,0.2586,2,S,2.0
S2,27.0,68.0,64.0,67.0,68.0,67,1966.0,square3,f,0.2357,2,S,2.0
S2,28.0,61.0,52.0,71.0,68.0,71,2037.0,square3,f,0.2404,2,S,2.0
S2,29.0,67.0,64.0,73.0,69.0,73,2110.0,square3,f,0.2736,2,S,2.0
S2,30.0,67.0,53.0,77.0,67.0,77,2187.0,square3,f,0.2994,2,S,2.0
S2,31.0,67.0,69.0,69.0,68.0,69,2256.0,square3,f,0.3076,2,S,2.0
S2,32.0,71.0,63.0,73.0,70.0,63,2319.0,square2,r,0.3009,1,S,2.0
S2,33.0,61.0,65.0,68.0,71.0,68,2387.0,square3,f,0.2971,2,S,2.0
S2,34.0,66.0,55.0,78.0,68.0,78,2465.0,square3,f,0.3192,2,S,2.0
S2,35.0,60.0,57.0,66.0,66.0,66,2531.0,square3,f,0.2566,2,S,2.0
S2,36.0,64.0,63.0,73.0,72.0,73,2604.0,square3,f,0.4188,2,S,2.0
S2,37.0,65.0,62.0,75.0,68.0,75,2679.0,square3,f,0.2678,2,S,2.0
S2,38.0,69.0,57.0,71.0,62.0,71,2750.0,square3,f,0.2707,2,S,2.0
S2,39.0,72.0,66.0,74.0,74.0,74,2824.0,square3,f,0.2932,2,S,2.0
S2,40.0,66.0,63.0,76.0,59.0,76,2900.0,square3,f,0.2239,2,S,2.0
S2,41.0,74.0,64.0,67.0,76.0,67,2967.0,square3,f,0.2593,2,S,2.0
S2,42.0,62.0,67.0,72.0,68.0,72,3039.0,square3,f,0.1997,2,S,2.0
S2,43.0,69.0,63.0,75.0,71.0,75,3114.0,square3,f,0.1231,2,S,2.0
S2,44.0,72.0,60.0,74.0,67.0,74,3188.0,square3,f,0.1244,2,S,2.0
S2,45.0,69.0,63.0,76.0,73.0,76,3264.0,square3,f,0.0594,2,S,2.0
S2,46.0,64.0,71.0,75.0,72.0,75,3339.0,square3,f,0.0037,2,S,2.0
S2,47.0,75.0,62.0,75.0,69.0,75,3414.0,square3,f,0.0036,2,S,2.0
S2,48.0,66.0,65.0,74.0,68.0,74,3488.0,square3,f,0.0631,2,S,2.0
S2,49.0,67.0,64.0,72.0,76.0,72,3560.0,square3,f,0.0952,2,S,2.0
S3,0.0,38.0,48.0,42.0,57.0,57,57.0,square4,r,1.0142,3,S,3.0
S3,1.0,29.0,43.0,51.0,57.0,29,86.0,square1,f,0.2713,0,S,3.0
S3,2.0,41.0,49.0,46.0,49.0,46,132.0,square3,j,0.2224,2,S,3.0
S3,3.0,44.0,50.0,45.0,52.0,50,182.0,square2,i,0.1432,1,S,3.0
S3,4.0,37.0,51.0,45.0,58.0,58,240.0,square4,r,0.3716,3,S,3.0
S3,5.0,47.0,43.0,42.0,49.0,43,283.0,square2,i,0.2897,1,S,3.0
S3,6.0,44.0,53.0,51.0,58.0,58,341.0,square4,r,0.2748,3,S,3.0
S3,7.0,39.0,47.0,46.0,54.0,39,380.0,square1,f,0.3016,0,S,3.0
S3,8.0,43.0,53.0,41.0,52.0,41,421.0,square3,j,0.2008,2,S,3.0
S3,9.0,42.0,46.0,41.0,53.0,53,474.0,square4,r,0.2456,3,S,3.0
S3,10.0,37.0,49.0,49.0,55.0,55,529.0,square4,r,0.153,3,S,3.0
S3,11.0,40.0,47.0,36.0,59.0,59,588.0,square4,r,0.1515,3,S,3.0
S3,12.0,46.0,51.0,39.0,56.0,56,644.0,square4,r,0.2764,3,S,3.0
S3,13.0,39.0,48.0,45.0,57.0,57,701.0,square4,r,0.3433,3,S,3.0
S3,14.0,39.0,55.0,43.0,47.0,47,748.0,square4,r,0.1063,3,S,3.0
S3,15.0,46.0,46.0,47.0,52.0,52,800.0,square4,r,0.0897,3,S,3.0
S3,16.0,42.0,49.0,50.0,55.0,55,855.0,square4,r,0.1529,3,S,3.0
S3,17.0,45.0,45.0,56.0,47.0,47,902.0,square4,r,0.0056,3,S,3.0
S3,18.0,46.0,43.0,45.0,50.0,50,952.0,square4,r,0.4205,3,S,3.0
S3,19.0,41.0,47.0,50.0,55.0,55,1007.0,square4,r,0.287,3,S,3.0
S3,20.0,45.0,52.0,49.0,52.0,52,1059.0,square4,r,0.2471,3,S,3.0
S3,21.0,40.0,43.0,47.0,46.0,46,1105.0,square4,r,0.2271,3,S,3.0
S3,22.0,45.0,46.0,44.0,47.0,47,1152.0,square4,r,0.2281,3,S,3.0
S3,23.0,36.0,50.0,42.0,46.0,46,1198.0,square4,r,0.2014,3,S,3.0
S3,24.0,42.0,54.0,49.0,55.0,55,1253.0,square4,r,0.0836,3,S,3.0
S3,25.0,43.0,51.0,44.0,54.0,54,1307.0,square4,r,0.1637,3,S,3.0
S3,26.0,49.0,50.0,52.0,52.0,52,1359.0,square4,r,0.2093,3,S,3.0
S3,27.0,47.0,52.0,44.0,50.0,50,1409.0,square4,r,0.069,3,S,3.0
S3,28.0,37.0,48.0,40.0,47.0,47,1456.0,square4,r,0.2903,3,S,3.0
S3,29.0,50.0,43.0,50.0,57.0,57,1513.0,square4,r,0.6402,3,S,3.0
S3,30.0,50.0,50.0,46.0,47.0,50,1563.0,square2,i,0.2286,1,S,3.0
S3,31.0,37.0,53.0,49.0,56.0,56,1619.0,square4,r,0.5118,3,S,3.0
S3,32.0,42.0,50.0,43.0,58.0,50,1669.0,square2,i,0.2886,1,S,3.0
S3,33.0,44.0,49.0,46.0,59.0,59,1728.0,square4,r,0.2461,3,S,3.0
S3,34.0,42.0,50.0,50.0,58.0,50,1778.0,square2,i,0.3531,1,S,3.0
S3,35.0,43.0,46.0,45.0,50.0,50,1828.0,square4,r,0.2961,3,S,3.0
S3,36.0,46.0,52.0,50.0,48.0,52,1880.0,square2,i,0.0853,1,S,3.0
S3,37.0,48.0,50.0,49.0,52.0,52,1932.0,square4,r,0.4838,3,S,3.0
S3,38.0,39.0,43.0,50.0,55.0,43,1975.0,square2,i,0.3711,1,S,3.0
S3,39.0,50.0,53.0,46.0,57.0,57,2032.0,square4,r,0.1611,3,S,3.0
S3,40.0,41.0,46.0,48.0,55.0,55,2087.0,square4,r,0.3268,3,S,3.0
S3,41.0,49.0,49.0,40.0,56.0,56,2143.0,square4,r,0.2511,3,S,3.0
S3,42.0,47.0,49.0,43.0,48.0,47,2190.0,square1,f,0.3222,0,S,3.0
S3,43.0,46.0,43.0,41.0,58.0,58,2248.0,square4,r,0.0615,3,S,3.0
S3,44.0,46.0,52.0,51.0,55.0,55,2303.0,square4,r,0.2053,3,S,3.0
S3,45.0,46.0,41.0,46.0,49.0,49,2352.0,square4,r,0.1946,3,S,3.0
S3,46.0,32.0,56.0,40.0,50.0,32,2384.0,square1,f,0.5098,0,S,3.0
S3,47.0,42.0,49.0,44.0,51.0,51,2435.0,square4,r,0.2824,3,S,3.0
S3,48.0,36.0,45.0,38.0,50.0,50,2485.0,square4,r,0.428,3,S,3.0
S3,49.0,45.0,48.0,47.0,52.0,52,2537.0,square4,r,0.2534,3,S,3.0
S10,0.0,72.0,76.0,80.0,64.0,99999,0.0,invalid,,,-1,S,10.0
S10,1.0,76.0,75.0,74.0,65.0,75,75.0,square2,r,1.8701,1,S,10.0
S10,2.0,70.0,72.0,79.0,74.0,79,154.0,square3,f,0.0487,2,S,10.0
S10,3.0,69.0,77.0,76.0,68.0,68,222.0,square4,j,0.1387,3,S,10.0
S10,4.0,72.0,79.0,77.0,70.0,72,294.0,square1,i,0.1193,0,S,10.0
S10,5.0,68.0,74.0,72.0,64.0,74,368.0,square2,r,0.1086,1,S,10.0
S10,6.0,70.0,77.0,72.0,62.0,72,440.0,square3,f,0.1564,2,S,10.0
S10,7.0,78.0,81.0,80.0,74.0,81,521.0,square2,r,0.69,1,S,10.0
S10,8.0,78.0,78.0,82.0,66.0,82,603.0,square3,f,0.1485,2,S,10.0
S10,9.0,69.0,76.0,77.0,65.0,76,679.0,square2,r,0.2773,1,S,10.0
S10,10.0,72.0,78.0,72.0,75.0,72,751.0,square3,f,0.2654,2,S,10.0
S10,11.0,71.0,76.0,78.0,66.0,66,817.0,square4,j,0.2223,3,S,10.0
S10,12.0,73.0,83.0,79.0,69.0,73,890.0,square1,i,0.0884,0,S,10.0
S10,13.0,68.0,77.0,65.0,65.0,68,958.0,square1,i,0.4737,0,S,10.0
S10,14.0,69.0,84.0,79.0,65.0,69,1027.0,square1,i,0.1976,0,S,10.0
S10,15.0,72.0,84.0,70.0,71.0,72,1099.0,square1,i,0.2253,0,S,10.0
S10,16.0,79.0,80.0,82.0,67.0,80,1179.0,square2,r,0.2427,1,S,10.0
S10,17.0,69.0,83.0,75.0,70.0,83,1262.0,square2,r,0.0259,1,S,10.0
S10,18.0,69.0,75.0,69.0,68.0,75,1337.0,square2,r,0.3093,1,S,10.0
S10,19.0,70.0,83.0,73.0,66.0,73,1410.0,square3,f,0.3227,2,S,10.0
S10,20.0,69.0,83.0,75.0,66.0,75,1485.0,square3,f,0.0374,2,S,10.0
S10,21.0,77.0,70.0,75.0,70.0,75,1560.0,square3,f,0.0269,2,S,10.0
S10,22.0,73.0,77.0,81.0,69.0,81,1641.0,square3,f,0.2251,2,S,10.0
S10,23.0,73.0,78.0,70.0,65.0,70,1711.0,square3,f,0.0801,2,S,10.0
S10,24.0,70.0,80.0,75.0,66.0,75,1786.0,square3,f,0.3103,2,S,10.0
S10,25.0,70.0,80.0,73.0,72.0,72,1858.0,square4,j,0.0981,3,S,10.0
S10,26.0,73.0,75.0,73.0,75.0,75,1933.0,square4,j,0.1359,3,S,10.0
S10,27.0,77.0,81.0,83.0,66.0,66,1999.0,square4,j,0.3436,3,S,10.0
S10,28.0,73.0,79.0,79.0,73.0,79,2078.0,square2,r,0.2622,1,S,10.0
S10,29.0,73.0,79.0,72.0,69.0,79,2157.0,square2,r,0.0114,1,S,10.0
S10,30.0,71.0,85.0,79.0,69.0,85,2242.0,square2,r,0.4074,1,S,10.0
S10,31.0,71.0,85.0,83.0,66.0,85,2327.0,square2,r,0.4408,1,S,10.0
S10,32.0,78.0,79.0,77.0,65.0,79,2406.0,square2,r,0.3635,1,S,10.0
S10,33.0,83.0,79.0,72.0,68.0,79,2485.0,square2,r,0.2942,1,S,10.0
S10,34.0,68.0,74.0,79.0,72.0,74,2559.0,square2,r,0.21,1,S,10.0
S10,35.0,70.0,83.0,79.0,67.0,83,2642.0,square2,r,0.2155,1,S,10.0
S10,36.0,67.0,76.0,75.0,72.0,76,2718.0,square2,r,0.2083,1,S,10.0
S10,37.0,76.0,82.0,79.0,60.0,82,2800.0,square2,r,0.1088,1,S,10.0
S10,38.0,72.0,75.0,69.0,68.0,75,2875.0,square2,r,0.4236,1,S,10.0
S10,39.0,73.0,78.0,76.0,70.0,78,2953.0,square2,r,0.045,1,S,10.0
S10,40.0,76.0,77.0,66.0,60.0,77,3030.0,square2,r,0.0413,1,S,10.0
S10,41.0,74.0,83.0,73.0,67.0,83,3113.0,square2,r,0.004,1,S,10.0
S10,42.0,72.0,69.0,80.0,63.0,69,3182.0,square2,r,0.2773,1,S,10.0
S10,43.0,69.0,74.0,72.0,68.0,74,3256.0,square2,r,0.191,1,S,10.0
S10,44.0,67.0,76.0,70.0,65.0,76,3332.0,square2,r,0.0023,1,S,10.0
S10,45.0,76.0,81.0,74.0,72.0,81,3413.0,square2,r,0.1626,1,S,10.0
S10,46.0,76.0,79.0,76.0,66.0,79,3492.0,square2,r,0.7126,1,S,10.0
S10,47.0,67.0,81.0,84.0,60.0,81,3573.0,square2,r,0.4085,1,S,10.0
S10,48.0,73.0,83.0,75.0,66.0,83,3656.0,square2,r,0.4705,1,S,10.0
S10,49.0,66.0,77.0,74.0,71.0,77,3733.0,square2,r,0.0117,1,S,10.0
S7,0.0,68.0,73.0,62.0,57.0,57,57.0,square4,r,0.5868,3,S,7.0
S7,1.0,74.0,67.0,66.0,59.0,74,131.0,square1,f,0.0392,0,S,7.0
S7,2.0,68.0,69.0,65.0,60.0,65,196.0,square3,j,0.4184,2,S,7.0
S7,3.0,74.0,68.0,65.0,63.0,68,264.0,square2,i,0.2019,1,S,7.0
S7,4.0,68.0,74.0,67.0,63.0,68,332.0,square1,f,0.0584,0,S,7.0
S7,5.0,68.0,67.0,61.0,57.0,68,400.0,square1,f,0.1559,0,S,7.0
S7,6.0,72.0,64.0,65.0,51.0,51,451.0,square4,r,0.0294,3,S,7.0
S7,7.0,69.0,63.0,69.0,63.0,69,520.0,square1,f,0.2132,0,S,7.0
S7,8.0,71.0,68.0,63.0,54.0,63,583.0,square3,j,0.1228,2,S,7.0
S7,9.0,81.0,66.0,68.0,62.0,66,649.0,square2,i,0.0072,1,S,7.0
S7,10.0,72.0,73.0,68.0,61.0,72,721.0,square1,f,0.0592,0,S,7.0
S7,11.0,72.0,72.0,62.0,58.0,72,793.0,square1,f,0.2187,0,S,7.0
S7,12.0,66.0,66.0,62.0,61.0,66,859.0,square1,f,0.0238,0,S,7.0
S7,13.0,73.0,75.0,75.0,68.0,73,932.0,square1,f,0.0579,0,S,7.0
S7,14.0,71.0,73.0,72.0,66.0,71,1003.0,square1,f,0.1564,0,S,7.0
S7,15.0,75.0,68.0,68.0,65.0,75,1078.0,square1,f,0.0024,0,S,7.0
S7,16.0,67.0,65.0,62.0,56.0,67,1145.0,square1,f,0.524,0,S,7.0
S7,17.0,72.0,67.0,63.0,64.0,72,1217.0,square1,f,0.377,0,S,7.0
S7,18.0,73.0,69.0,66.0,65.0,73,1290.0,square1,f,0.1951,0,S,7.0
S7,19.0,75.0,70.0,62.0,58.0,75,1365.0,square1,f,0.2593,0,S,7.0
S7,20.0,76.0,63.0,67.0,62.0,76,1441.0,square1,f,0.2784,0,S,7.0
S7,21.0,79.0,76.0,63.0,64.0,79,1520.0,square1,f,0.219,0,S,7.0
S7,22.0,67.0,72.0,63.0,62.0,67,1587.0,square1,f,0.2761,0,S,7.0
S7,23.0,69.0,71.0,70.0,62.0,69,1656.0,square1,f,0.5054,0,S,7.0
S7,24.0,74.0,67.0,70.0,62.0,74,1730.0,square1,f,0.459,0,S,7.0
S7,25.0,70.0,67.0,72.0,62.0,70,1800.0,square1,f,0.5901,0,S,7.0
S7,26.0,72.0,62.0,74.0,65.0,72,1872.0,square1,f,0.4547,0,S,7.0
S7,27.0,69.0,70.0,68.0,62.0,69,1941.0,square1,f,0.2911,0,S,7.0
S7,28.0,65.0,66.0,60.0,62.0,65,2006.0,square1,f,0.4095,0,S,7.0
S7,29.0,70.0,64.0,60.0,68.0,70,2076.0,square1,f,0.3575,0,S,7.0
S7,30.0,69.0,69.0,64.0,57.0,69,2145.0,square1,f,0.4188,0,S,7.0
S7,31.0,77.0,67.0,65.0,60.0,60,2205.0,square4,r,0.5197,3,S,7.0
S7,32.0,67.0,75.0,65.0,58.0,67,2272.0,square1,f,0.2529,0,S,7.0
S7,33.0,74.0,66.0,66.0,60.0,74,2346.0,square1,f,0.2926,0,S,7.0
S7,34.0,72.0,72.0,66.0,61.0,72,2418.0,square1,f,0.2005,0,S,7.0
S7,35.0,67.0,68.0,64.0,62.0,67,2485.0,square1,f,0.1729,0,S,7.0
S7,36.0,64.0,63.0,70.0,58.0,64,2549.0,square1,f,0.0949,0,S,7.0
S7,37.0,80.0,72.0,64.0,53.0,64,2613.0,square3,j,0.087,2,S,7.0
S7,38.0,78.0,69.0,76.0,67.0,76,2689.0,square3,j,0.27,2,S,7.0
S7,39.0,69.0,66.0,60.0,67.0,60,2749.0,square3,j,0.2909,2,S,7.0
S7,40.0,72.0,71.0,63.0,66.0,63,2812.0,square3,j,0.2028,2,S,7.0
S7,41.0,80.0,73.0,65.0,63.0,65,2877.0,square3,j,0.2292,2,S,7.0
S7,42.0,77.0,60.0,65.0,59.0,77,2954.0,square1,f,0.3085,0,S,7.0
S7,43.0,70.0,72.0,70.0,63.0,70,3024.0,square1,f,0.9104,0,S,7.0
S7,44.0,77.0,70.0,66.0,58.0,70,3094.0,square2,i,0.4275,1,S,7.0
S7,45.0,75.0,69.0,73.0,58.0,69,3163.0,square2,i,0.3735,1,S,7.0
S7,46.0,74.0,71.0,63.0,63.0,71,3234.0,square2,i,0.2104,1,S,7.0
S7,47.0,73.0,75.0,71.0,64.0,75,3309.0,square2,i,0.2758,1,S,7.0
S7,48.0,78.0,79.0,64.0,58.0,79,3388.0,square2,i,0.2564,1,S,7.0
S7,49.0,75.0,72.0,66.0,72.0,72,3460.0,square2,i,0.2927,1,S,7.0
V9,0.0,20.0,29.0,37.0,45.0,37,37.0,square3,r,1.2223,2,V,9.0
V9,1.0,21.0,32.0,39.0,45.0,39,76.0,square3,r,0.1248,2,V,9.0
V9,2.0,16.0,27.0,41.0,48.0,27,103.0,square2,f,0.1766,1,V,9.0
V9,3.0,20.0,30.0,42.0,50.0,20,123.0,square1,j,0.1582,0,V,9.0
V9,4.0,22.0,34.0,37.0,47.0,47,170.0,square4,i,0.189,3,V,9.0
V9,5.0,17.0,32.0,38.0,49.0,38,208.0,square3,r,0.3174,2,V,9.0
V9,6.0,17.0,25.0,39.0,47.0,47,255.0,square4,i,0.2172,3,V,9.0
V9,7.0,22.0,28.0,33.0,48.0,48,303.0,square4,i,0.0913,3,V,9.0
V9,8.0,20.0,24.0,34.0,41.0,41,344.0,square4,i,0.1216,3,V,9.0
V9,9.0,20.0,33.0,30.0,51.0,51,395.0,square4,i,0.4732,3,V,9.0
V9,10.0,21.0,35.0,38.0,50.0,50,445.0,square4,i,0.9409,3,V,9.0
V9,11.0,19.0,29.0,44.0,45.0,19,464.0,square1,j,0.3431,0,V,9.0
V9,12.0,27.0,24.0,38.0,54.0,24,488.0,square2,f,0.2734,1,V,9.0
V9,13.0,15.0,26.0,37.0,50.0,37,525.0,square3,r,0.2625,2,V,9.0
V9,14.0,24.0,26.0,39.0,42.0,42,567.0,square4,i,0.2304,3,V,9.0
V9,15.0,26.0,27.0,43.0,49.0,49,616.0,square4,i,0.2197,3,V,9.0
V9,16.0,19.0,30.0,42.0,49.0,49,665.0,square4,i,0.1255,3,V,9.0
V9,17.0,21.0,30.0,34.0,49.0,49,714.0,square4,i,0.0948,3,V,9.0
V9,18.0,25.0,33.0,41.0,51.0,51,765.0,square4,i,0.3055,3,V,9.0
V9,19.0,17.0,31.0,41.0,45.0,41,806.0,square3,r,0.2524,2,V,9.0
V9,20.0,19.0,31.0,34.0,49.0,31,837.0,square2,f,0.4284,1,V,9.0
V9,21.0,23.0,29.0,37.0,48.0,23,860.0,square1,j,0.2665,0,V,9.0
V9,22.0,15.0,32.0,36.0,48.0,48,908.0,square4,i,0.1903,3,V,9.0
V9,23.0,25.0,33.0,39.0,47.0,47,955.0,square4,i,0.2578,3,V,9.0
V9,24.0,21.0,30.0,38.0,52.0,52,1007.0,square4,i,0.306,3,V,9.0
V9,25.0,25.0,29.0,42.0,48.0,48,1055.0,square4,i,0.1705,3,V,9.0
V9,26.0,22.0,29.0,39.0,47.0,47,1102.0,square4,i,0.0184,3,V,9.0
V9,27.0,17.0,31.0,45.0,41.0,41,1143.0,square4,i,0.0185,3,V,9.0
V9,28.0,29.0,28.0,43.0,43.0,43,1186.0,square4,i,0.287,3,V,9.0
V9,29.0,20.0,31.0,43.0,49.0,49,1235.0,square4,i,0.0054,3,V,9.0
V9,30.0,23.0,33.0,39.0,48.0,48,1283.0,square4,i,0.1515,3,V,9.0
V9,31.0,20.0,27.0,38.0,53.0,53,1336.0,square4,i,0.1066,3,V,9.0
V9,32.0,23.0,29.0,37.0,49.0,49,1385.0,square4,i,0.2569,3,V,9.0
V9,33.0,24.0,33.0,37.0,49.0,49,1434.0,square4,i,0.1401,3,V,9.0
V9,34.0,43.0,58.0,48.0,30.0,30,1464.0,square4,i,0.1439,3,V,9.0
V9,35.0,48.0,59.0,45.0,34.0,45,1509.0,square3,r,0.0047,2,V,9.0
V9,36.0,39.0,56.0,54.0,32.0,56,1565.0,square2,f,0.4698,1,V,9.0
V9,37.0,40.0,57.0,50.0,35.0,40,1605.0,square1,j,0.0773,0,V,9.0
V9,38.0,49.0,62.0,51.0,33.0,62,1667.0,square2,f,0.4172,1,V,9.0
V9,39.0,45.0,61.0,48.0,34.0,34,1701.0,square4,i,0.2052,3,V,9.0
V9,40.0,40.0,65.0,51.0,29.0,65,1766.0,square2,f,0.1759,1,V,9.0
V9,41.0,44.0,57.0,50.0,38.0,57,1823.0,square2,f,0.0143,1,V,9.0
V9,42.0,40.0,57.0,49.0,33.0,57,1880.0,square2,f,0.1388,1,V,9.0
V9,43.0,42.0,64.0,54.0,35.0,64,1944.0,square2,f,0.3434,1,V,9.0
V9,44.0,44.0,55.0,49.0,39.0,55,1999.0,square2,f,0.0704,1,V,9.0
V9,45.0,37.0,66.0,51.0,35.0,66,2065.0,square2,f,0.0372,1,V,9.0
V9,46.0,40.0,59.0,51.0,32.0,59,2124.0,square2,f,0.2678,1,V,9.0
V9,47.0,38.0,62.0,57.0,31.0,62,2186.0,square2,f,0.7105,1,V,9.0
V9,48.0,43.0,61.0,54.0,34.0,61,2247.0,square2,f,0.2897,1,V,9.0
V9,49.0,43.0,61.0,49.0,40.0,61,2308.0,square2,f,0.0515,1,V,9.0
V9,50.0,37.0,58.0,51.0,32.0,58,2366.0,square2,f,0.3069,1,V,9.0
V9,51.0,44.0,63.0,48.0,39.0,63,2429.0,square2,f,0.027,1,V,9.0
V9,52.0,35.0,65.0,48.0,30.0,65,2494.0,square2,f,0.2253,1,V,9.0
V9,53.0,43.0,59.0,48.0,39.0,59,2553.0,square2,f,0.0443,1,V,9.0
V9,54.0,43.0,59.0,52.0,30.0,59,2612.0,square2,f,0.058,1,V,9.0
V9,55.0,41.0,58.0,51.0,34.0,58,2670.0,square2,f,0.4736,1,V,9.0
V9,56.0,44.0,63.0,50.0,33.0,63,2733.0,square2,f,0.1866,1,V,9.0
V9,57.0,42.0,60.0,49.0,32.0,60,2793.0,square2,f,0.021,1,V,9.0
V9,58.0,44.0,62.0,57.0,30.0,62,2855.0,square2,f,0.152,1,V,9.0
V9,59.0,45.0,61.0,45.0,31.0,61,2916.0,square2,f,0.2725,1,V,9.0
V9,60.0,43.0,63.0,53.0,33.0,63,2979.0,square2,f,0.1531,1,V,9.0
V9,61.0,39.0,56.0,55.0,31.0,56,3035.0,square2,f,0.3563,1,V,9.0
V9,62.0,39.0,61.0,50.0,34.0,61,3096.0,square2,f,0.2005,1,V,9.0
V9,63.0,44.0,57.0,48.0,36.0,57,3153.0,square2,f,0.2875,1,V,9.0
V9,64.0,40.0,60.0,58.0,35.0,60,3213.0,square2,f,0.3561,1,V,9.0
V9,65.0,42.0,60.0,54.0,38.0,60,3273.0,square2,f,0.0028,1,V,9.0
V9,66.0,41.0,60.0,54.0,37.0,60,3333.0,square2,f,0.325,1,V,9.0
V9,67.0,43.0,61.0,54.0,40.0,61,3394.0,square2,f,0.4431,1,V,9.0
V9,68.0,45.0,40.0,26.0,18.0,40,3434.0,square2,f,0.0739,1,V,9.0
V9,69.0,50.0,41.0,29.0,20.0,50,3484.0,square1,j,0.4759,0,V,9.0
V9,70.0,43.0,36.0,27.0,15.0,27,3511.0,square3,r,0.418,2,V,9.0
V9,71.0,44.0,40.0,28.0,18.0,18,3529.0,square4,i,0.1731,3,V,9.0
V9,72.0,42.0,38.0,27.0,18.0,42,3571.0,square1,j,0.3061,0,V,9.0
V9,73.0,46.0,33.0,25.0,19.0,46,3617.0,square1,j,0.138,0,V,9.0
V9,74.0,47.0,40.0,28.0,20.0,40,3657.0,square2,f,0.2685,1,V,9.0
V9,75.0,39.0,39.0,27.0,25.0,39,3696.0,square1,j,0.221,0,V,9.0
V9,76.0,50.0,31.0,29.0,23.0,31,3727.0,square2,f,0.0747,1,V,9.0
V9,77.0,44.0,37.0,28.0,13.0,44,3771.0,square1,j,0.2938,0,V,9.0
V9,78.0,43.0,36.0,23.0,17.0,43,3814.0,square1,j,0.3536,0,V,9.0
V9,79.0,42.0,36.0,28.0,24.0,36,3850.0,square2,f,0.1236,1,V,9.0
V9,80.0,47.0,35.0,30.0,14.0,47,3897.0,square1,j,0.1059,0,V,9.0
V9,81.0,46.0,33.0,29.0,18.0,46,3943.0,square1,j,0.0992,0,V,9.0
V9,82.0,46.0,35.0,28.0,18.0,46,3989.0,square1,j,0.3201,0,V,9.0
V9,83.0,47.0,41.0,32.0,15.0,47,4036.0,square1,j,0.0293,0,V,9.0
V9,84.0,45.0,38.0,31.0,18.0,45,4081.0,square1,j,0.1242,0,V,9.0
V9,85.0,42.0,35.0,30.0,21.0,42,4123.0,square1,j,0.0556,0,V,9.0
V9,86.0,49.0,39.0,23.0,18.0,49,4172.0,square1,j,0.0583,0,V,9.0
V9,87.0,49.0,39.0,27.0,16.0,49,4221.0,square1,j,0.0957,0,V,9.0
V9,88.0,45.0,38.0,25.0,14.0,45,4266.0,square1,j,0.0757,0,V,9.0
V9,89.0,45.0,32.0,28.0,19.0,45,4311.0,square1,j,0.0761,0,V,9.0
V9,90.0,44.0,35.0,29.0,20.0,44,4355.0,square1,j,0.1871,0,V,9.0
V9,91.0,42.0,38.0,32.0,16.0,42,4397.0,square1,j,0.0294,0,V,9.0
V9,92.0,45.0,36.0,23.0,20.0,45,4442.0,square1,j,0.2217,0,V,9.0
V9,93.0,45.0,35.0,26.0,18.0,45,4487.0,square1,j,0.2299,0,V,9.0
V9,94.0,44.0,37.0,27.0,13.0,44,4531.0,square1,j,0.0405,0,V,9.0
V9,95.0,46.0,36.0,25.0,20.0,46,4577.0,square1,j,0.2933,0,V,9.0
V9,96.0,43.0,39.0,27.0,16.0,43,4620.0,square1,j,0.2426,0,V,9.0
V9,97.0,48.0,39.0,30.0,16.0,48,4668.0,square1,j,0.3206,0,V,9.0
V9,98.0,49.0,40.0,26.0,20.0,49,4717.0,square1,j,0.1405,0,V,9.0
V9,99.0,49.0,41.0,27.0,18.0,49,4766.0,square1,j,0.1279,0,V,9.0
V5,0.0,46.0,21.0,37.0,28.0,99999,0.0,invalid,,,-1,V,5.0
V5,1.0,43.0,27.0,36.0,31.0,27,27.0,square2,r,0.442,1,V,5.0
V5,2.0,50.0,18.0,43.0,32.0,32,59.0,square4,f,0.0458,3,V,5.0
V5,3.0,53.0,23.0,36.0,34.0,36,95.0,square3,j,0.6691,2,V,5.0
V5,4.0,52.0,19.0,38.0,34.0,52,147.0,square1,i,0.2079,0,V,5.0
V5,5.0,50.0,22.0,41.0,29.0,50,197.0,square1,i,0.2539,0,V,5.0
V5,6.0,52.0,19.0,40.0,33.0,19,216.0,square2,r,0.3099,1,V,5.0
V5,7.0,48.0,24.0,36.0,27.0,48,264.0,square1,i,0.1275,0,V,5.0
V5,8.0,50.0,24.0,35.0,33.0,50,314.0,square1,i,0.3074,0,V,5.0
V5,9.0,48.0,25.0,39.0,34.0,48,362.0,square1,i,0.254,0,V,5.0
V5,10.0,52.0,19.0,32.0,34.0,52,414.0,square1,i,0.3085,0,V,5.0
V5,11.0,48.0,22.0,32.0,32.0,48,462.0,square1,i,0.2749,0,V,5.0
V5,12.0,47.0,17.0,43.0,29.0,47,509.0,square1,i,0.3713,0,V,5.0
V5,13.0,46.0,21.0,42.0,29.0,46,555.0,square1,i,0.1055,0,V,5.0
V5,14.0,47.0,28.0,42.0,28.0,47,602.0,square1,i,0.3084,0,V,5.0
V5,15.0,50.0,29.0,38.0,36.0,50,652.0,square1,i,0.2922,0,V,5.0
V5,16.0,49.0,24.0,36.0,34.0,49,701.0,square1,i,0.0978,0,V,5.0
V5,17.0,50.0,20.0,38.0,35.0,50,751.0,square1,i,0.3137,0,V,5.0
V5,18.0,49.0,22.0,46.0,29.0,49,800.0,square1,i,0.1917,0,V,5.0
V5,19.0,46.0,23.0,40.0,31.0,46,846.0,square1,i,0.3404,0,V,5.0
V5,20.0,51.0,22.0,41.0,28.0,51,897.0,square1,i,0.2681,0,V,5.0
V5,21.0,51.0,26.0,36.0,31.0,51,948.0,square1,i,0.1904,0,V,5.0
V5,22.0,47.0,18.0,41.0,28.0,47,995.0,square1,i,0.2374,0,V,5.0
V5,23.0,52.0,20.0,36.0,29.0,52,1047.0,square1,i,0.1958,0,V,5.0
V5,24.0,51.0,21.0,41.0,34.0,51,1098.0,square1,i,0.3905,0,V,5.0
V5,25.0,50.0,20.0,41.0,27.0,50,1148.0,square1,i,0.1707,0,V,5.0
V5,26.0,49.0,29.0,37.0,28.0,49,1197.0,square1,i,0.4734,0,V,5.0
V5,27.0,10.0,13.0,42.0,32.0,10,1207.0,square1,i,0.287,0,V,5.0
V5,28.0,9.0,19.0,40.0,27.0,40,1247.0,square3,j,0.6043,2,V,5.0
V5,29.0,17.0,17.0,38.0,29.0,29,1276.0,square4,f,0.6448,3,V,5.0
V5,30.0,8.0,18.0,36.0,29.0,18,1294.0,square2,r,0.1938,1,V,5.0
V5,31.0,16.0,24.0,34.0,29.0,34,1328.0,square3,j,0.1248,2,V,5.0
V5,32.0,9.0,17.0,35.0,31.0,35,1363.0,square3,j,0.1594,2,V,5.0
V5,33.0,11.0,19.0,36.0,28.0,36,1399.0,square3,j,0.3089,2,V,5.0
V5,34.0,10.0,19.0,38.0,28.0,38,1437.0,square3,j,0.425,2,V,5.0
V5,35.0,5.0,23.0,40.0,34.0,40,1477.0,square3,j,0.2192,2,V,5.0
V5,36.0,17.0,20.0,36.0,31.0,36,1513.0,square3,j,0.5864,2,V,5.0
V5,37.0,12.0,13.0,36.0,30.0,36,1549.0,square3,j,0.2518,2,V,5.0
V5,38.0,14.0,24.0,35.0,27.0,35,1584.0,square3,j,0.1551,2,V,5.0
V5,39.0,13.0,20.0,39.0,32.0,39,1623.0,square3,j,0.0268,2,V,5.0
V5,40.0,9.0,15.0,37.0,24.0,37,1660.0,square3,j,0.0129,2,V,5.0
V5,41.0,9.0,14.0,38.0,31.0,38,1698.0,square3,j,0.2056,2,V,5.0
V5,42.0,14.0,17.0,43.0,31.0,43,1741.0,square3,j,0.2569,2,V,5.0
V5,43.0,10.0,18.0,39.0,23.0,39,1780.0,square3,j,0.2268,2,V,5.0
V5,44.0,10.0,20.0,33.0,32.0,33,1813.0,square3,j,0.2214,2,V,5.0
V5,45.0,16.0,17.0,37.0,29.0,37,1850.0,square3,j,0.0883,2,V,5.0
V5,46.0,9.0,22.0,37.0,25.0,37,1887.0,square3,j,0.0421,2,V,5.0
V5,47.0,10.0,22.0,35.0,26.0,35,1922.0,square3,j,0.0756,2,V,5.0
V5,48.0,11.0,16.0,39.0,23.0,39,1961.0,square3,j,0.0712,2,V,5.0
V5,49.0,13.0,16.0,33.0,27.0,33,1994.0,square3,j,0.0022,2,V,5.0
V5,50.0,12.0,16.0,39.0,24.0,39,2033.0,square3,j,0.3379,2,V,5.0
V5,51.0,10.0,21.0,43.0,28.0,43,2076.0,square3,j,0.2014,2,V,5.0
V5,52.0,8.0,15.0,36.0,28.0,36,2112.0,square3,j,0.2681,2,V,5.0
V5,53.0,38.0,20.0,31.0,54.0,31,2143.0,square3,j,0.2438,2,V,5.0
V5,54.0,39.0,20.0,35.0,51.0,35,2178.0,square3,j,0.8756,2,V,5.0
V5,55.0,41.0,21.0,27.0,50.0,27,2205.0,square3,j,0.3369,2,V,5.0
V5,56.0,39.0,23.0,28.0,49.0,39,2244.0,square1,i,0.424,0,V,5.0
V5,57.0,36.0,28.0,29.0,59.0,99999,2244.0,invalid,,,-1,V,5.0
V5,58.0,38.0,22.0,28.0,49.0,22,2266.0,square2,r,0.2586,1,V,5.0
V5,59.0,44.0,23.0,30.0,51.0,51,2317.0,square4,f,0.1925,3,V,5.0
V5,60.0,43.0,21.0,31.0,48.0,48,2365.0,square4,f,0.0412,3,V,5.0
V5,61.0,39.0,24.0,35.0,50.0,50,2415.0,square4,f,0.2067,3,V,5.0
V5,62.0,38.0,25.0,31.0,52.0,52,2467.0,square4,f,0.114,3,V,5.0
V5,63.0,41.0,14.0,31.0,52.0,52,2519.0,square4,f,0.042,3,V,5.0
V5,64.0,43.0,23.0,30.0,51.0,43,2562.0,square1,i,0.0886,0,V,5.0
V5,65.0,41.0,23.0,35.0,52.0,52,2614.0,square4,f,0.1893,3,V,5.0
V5,66.0,41.0,17.0,33.0,47.0,47,2661.0,square4,f,0.3443,3,V,5.0
V5,67.0,44.0,23.0,32.0,49.0,49,2710.0,square4,f,0.3086,3,V,5.0
V5,68.0,44.0,24.0,31.0,44.0,44,2754.0,square4,f,0.2458,3,V,5.0
V5,69.0,43.0,28.0,27.0,48.0,48,2802.0,square4,f,0.4063,3,V,5.0
V5,70.0,38.0,22.0,26.0,50.0,50,2852.0,square4,f,0.2878,3,V,5.0
V5,71.0,41.0,29.0,26.0,53.0,53,2905.0,square4,f,0.356,3,V,5.0
V5,72.0,40.0,20.0,28.0,51.0,51,2956.0,square4,f,0.0565,3,V,5.0
V5,73.0,59.0,44.0,51.0,35.0,35,2991.0,square4,f,0.346,3,V,5.0
V5,74.0,60.0,38.0,55.0,43.0,43,3034.0,square4,f,0.0424,3,V,5.0
V5,75.0,63.0,45.0,50.0,37.0,37,3071.0,square4,f,0.433,3,V,5.0
V5,76.0,62.0,42.0,50.0,37.0,37,3108.0,square4,f,0.5364,3,V,5.0
V5,77.0,57.0,37.0,52.0,35.0,52,3160.0,square3,j,0.1554,2,V,5.0
V5,78.0,66.0,45.0,54.0,37.0,54,3214.0,square3,j,0.2272,2,V,5.0
V5,79.0,64.0,37.0,48.0,35.0,48,3262.0,square3,j,0.2256,2,V,5.0
V5,80.0,63.0,40.0,56.0,38.0,56,3318.0,square3,j,0.013,2,V,5.0
V5,81.0,62.0,41.0,54.0,32.0,41,3359.0,square2,r,0.5385,1,V,5.0
V5,82.0,58.0,41.0,59.0,39.0,59,3418.0,square3,j,0.2591,2,V,5.0
V5,83.0,66.0,46.0,54.0,35.0,54,3472.0,square3,j,0.2589,2,V,5.0
V5,84.0,67.0,44.0,52.0,33.0,67,3539.0,square1,i,0.0022,0,V,5.0
V5,85.0,67.0,45.0,46.0,36.0,67,3606.0,square1,i,0.3468,0,V,5.0
V5,86.0,65.0,44.0,51.0,38.0,65,3671.0,square1,i,0.1562,0,V,5.0
V5,87.0,64.0,49.0,48.0,35.0,64,3735.0,square1,i,0.3385,0,V,5.0
V5,88.0,68.0,47.0,56.0,36.0,68,3803.0,square1,i,0.3272,0,V,5.0
V5,89.0,60.0,42.0,57.0,32.0,60,3863.0,square1,i,0.0237,0,V,5.0
V5,90.0,59.0,43.0,53.0,34.0,34,3897.0,square4,f,0.2518,3,V,5.0
V5,91.0,64.0,43.0,51.0,34.0,64,3961.0,square1,i,0.6739,0,V,5.0
V5,92.0,65.0,41.0,57.0,38.0,65,4026.0,square1,i,0.0837,0,V,5.0
V5,93.0,59.0,48.0,54.0,40.0,59,4085.0,square1,i,0.0295,0,V,5.0
V5,94.0,66.0,44.0,53.0,43.0,66,4151.0,square1,i,0.2937,0,V,5.0
V5,95.0,63.0,43.0,50.0,40.0,63,4214.0,square1,i,0.1514,0,V,5.0
V5,96.0,62.0,44.0,50.0,33.0,62,4276.0,square1,i,0.1109,0,V,5.0
V5,97.0,64.0,49.0,55.0,37.0,49,4325.0,square2,r,0.2356,1,V,5.0
V5,98.0,65.0,44.0,53.0,36.0,53,4378.0,square3,j,0.2755,2,V,5.0
V5,99.0,65.0,42.0,55.0,35.0,99999,4378.0,invalid,,,-1,V,5.0
V8,0.0,49.0,55.0,64.0,74.0,99999,0.0,invalid,,,-1,V,8.0
V8,1.0,51.0,54.0,70.0,81.0,70,70.0,square3,r,0.2925,2,V,8.0
V8,2.0,46.0,62.0,70.0,77.0,62,132.0,square2,f,0.1196,1,V,8.0
V8,3.0,46.0,56.0,67.0,75.0,46,178.0,square1,j,0.0421,0,V,8.0
V8,4.0,50.0,59.0,67.0,83.0,83,261.0,square4,i,0.2236,3,V,8.0
V8,5.0,51.0,54.0,65.0,78.0,78,339.0,square4,i,0.2921,3,V,8.0
V8,6.0,45.0,57.0,66.0,80.0,80,419.0,square4,i,0.2572,3,V,8.0
V8,7.0,46.0,64.0,68.0,77.0,77,496.0,square4,i,0.2857,3,V,8.0
V8,8.0,50.0,57.0,66.0,73.0,73,569.0,square4,i,0.2361,3,V,8.0
V8,9.0,46.0,56.0,71.0,72.0,72,641.0,square4,i,0.2571,3,V,8.0
V8,10.0,56.0,58.0,67.0,75.0,75,716.0,square4,i,0.2741,3,V,8.0
V8,11.0,50.0,61.0,69.0,74.0,74,790.0,square4,i,0.2542,3,V,8.0
V8,12.0,59.0,59.0,69.0,77.0,77,867.0,square4,i,0.2576,3,V,8.0
V8,13.0,50.0,56.0,72.0,77.0,77,944.0,square4,i,0.0887,3,V,8.0
V8,14.0,48.0,55.0,65.0,80.0,80,1024.0,square4,i,0.0038,3,V,8.0
V8,15.0,48.0,58.0,65.0,76.0,76,1100.0,square4,i,0.7469,3,V,8.0
V8,16.0,49.0,58.0,67.0,75.0,67,1167.0,square3,r,0.071,2,V,8.0
V8,17.0,51.0,56.0,68.0,76.0,76,1243.0,square4,i,0.4582,3,V,8.0
V8,18.0,52.0,63.0,69.0,80.0,80,1323.0,square4,i,0.0553,3,V,8.0
V8,19.0,54.0,54.0,71.0,79.0,79,1402.0,square4,i,0.7149,3,V,8.0
V8,20.0,48.0,53.0,62.0,77.0,77,1479.0,square4,i,0.4089,3,V,8.0
V8,21.0,44.0,61.0,66.0,77.0,77,1556.0,square4,i,0.2749,3,V,8.0
V8,22.0,52.0,58.0,64.0,78.0,78,1634.0,square4,i,0.2384,3,V,8.0
V8,23.0,50.0,49.0,67.0,79.0,79,1713.0,square4,i,0.422,3,V,8.0
V8,24.0,49.0,59.0,69.0,74.0,74,1787.0,square4,i,0.1876,3,V,8.0
V8,25.0,46.0,61.0,65.0,81.0,81,1868.0,square4,i,0.1856,3,V,8.0
V8,26.0,49.0,58.0,63.0,35.0,63,1931.0,square3,r,0.3101,2,V,8.0
V8,27.0,48.0,51.0,66.0,41.0,41,1972.0,square4,i,0.3581,3,V,8.0
V8,28.0,46.0,55.0,65.0,38.0,65,2037.0,square3,r,0.3536,2,V,8.0
V8,29.0,47.0,58.0,69.0,40.0,58,2095.0,square2,f,0.0021,1,V,8.0
V8,30.0,42.0,55.0,67.0,43.0,42,2137.0,square1,j,0.3051,0,V,8.0
V8,31.0,49.0,56.0,64.0,36.0,64,2201.0,square3,r,0.1087,2,V,8.0
V8,32.0,49.0,55.0,69.0,38.0,69,2270.0,square3,r,0.2533,2,V,8.0
V8,33.0,44.0,52.0,65.0,48.0,65,2335.0,square3,r,0.4195,2,V,8.0
V8,34.0,44.0,57.0,70.0,45.0,70,2405.0,square3,r,0.2702,2,V,8.0
V8,35.0,44.0,54.0,68.0,38.0,68,2473.0,square3,r,0.2838,2,V,8.0
V8,36.0,45.0,56.0,64.0,40.0,64,2537.0,square3,r,0.1229,2,V,8.0
V8,37.0,47.0,57.0,66.0,37.0,66,2603.0,square3,r,0.2741,2,V,8.0
V8,38.0,49.0,50.0,66.0,37.0,66,2669.0,square3,r,0.184,2,V,8.0
V8,39.0,51.0,56.0,61.0,39.0,61,2730.0,square3,r,0.04,2,V,8.0
V8,40.0,47.0,59.0,66.0,41.0,66,2796.0,square3,r,0.0031,2,V,8.0
V8,41.0,42.0,56.0,69.0,42.0,69,2865.0,square3,r,0.2946,2,V,8.0
V8,42.0,47.0,57.0,72.0,35.0,72,2937.0,square3,r,0.0297,2,V,8.0
V8,43.0,47.0,57.0,63.0,44.0,63,3000.0,square3,r,0.0387,2,V,8.0
V8,44.0,45.0,58.0,67.0,42.0,67,3067.0,square3,r,0.1741,2,V,8.0
V8,45.0,44.0,56.0,66.0,43.0,66,3133.0,square3,r,0.2649,2,V,8.0
V8,46.0,46.0,53.0,70.0,37.0,70,3203.0,square3,r,0.7806,2,V,8.0
V8,47.0,54.0,53.0,71.0,41.0,41,3244.0,square4,i,0.4258,3,V,8.0
V8,48.0,49.0,53.0,69.0,37.0,69,3313.0,square3,r,0.3075,2,V,8.0
V8,49.0,39.0,57.0,65.0,47.0,65,3378.0,square3,r,0.2053,2,V,8.0
V8,50.0,48.0,55.0,65.0,41.0,65,3443.0,square3,r,0.0295,2,V,8.0
V8,51.0,45.0,61.0,68.0,43.0,68,3511.0,square3,r,0.0569,2,V,8.0
V8,52.0,53.0,52.0,68.0,37.0,68,3579.0,square3,r,0.0567,2,V,8.0
V8,53.0,47.0,55.0,66.0,46.0,66,3645.0,square3,r,0.0018,2,V,8.0
V8,54.0,49.0,53.0,61.0,39.0,61,3706.0,square3,r,0.0233,2,V,8.0
V8,55.0,53.0,70.0,55.0,72.0,55,3761.0,square3,r,0.2428,2,V,8.0
V8,56.0,57.0,63.0,48.0,73.0,63,3824.0,square2,f,0.0924,1,V,8.0
V8,57.0,53.0,71.0,45.0,80.0,53,3877.0,square1,j,0.3802,0,V,8.0
V8,58.0,57.0,69.0,52.0,73.0,69,3946.0,square2,f,0.4584,1,V,8.0
V8,59.0,58.0,67.0,54.0,73.0,73,4019.0,square4,i,0.1262,3,V,8.0
V8,60.0,55.0,66.0,47.0,76.0,76,4095.0,square4,i,0.3261,3,V,8.0
V8,61.0,56.0,65.0,54.0,72.0,72,4167.0,square4,i,0.3681,3,V,8.0
V8,62.0,56.0,65.0,49.0,75.0,75,4242.0,square4,i,0.5355,3,V,8.0
V8,63.0,61.0,65.0,44.0,78.0,78,4320.0,square4,i,0.2682,3,V,8.0
V8,64.0,54.0,66.0,48.0,75.0,75,4395.0,square4,i,0.2985,3,V,8.0
V8,65.0,59.0,65.0,46.0,79.0,79,4474.0,square4,i,0.2435,3,V,8.0
V8,66.0,51.0,62.0,46.0,73.0,73,4547.0,square4,i,0.1745,3,V,8.0
V8,67.0,60.0,70.0,45.0,76.0,76,4623.0,square4,i,0.7911,3,V,8.0
V8,68.0,63.0,64.0,47.0,73.0,73,4696.0,square4,i,1.4717,3,V,8.0
V8,69.0,58.0,66.0,43.0,77.0,77,4773.0,square4,i,0.1148,3,V,8.0
V8,70.0,59.0,65.0,49.0,73.0,73,4846.0,square4,i,0.2782,3,V,8.0
V8,71.0,60.0,64.0,49.0,79.0,79,4925.0,square4,i,0.1608,3,V,8.0
V8,72.0,96.0,68.0,78.0,67.0,67,4992.0,square4,i,0.1544,3,V,8.0
V8,73.0,96.0,68.0,79.0,64.0,64,5056.0,square4,i,0.3104,3,V,8.0
V8,74.0,92.0,67.0,81.0,62.0,81,5137.0,square3,r,0.1731,2,V,8.0
V8,75.0,96.0,72.0,83.0,62.0,83,5220.0,square3,r,0.0427,2,V,8.0
V8,76.0,94.0,70.0,77.0,57.0,94,5314.0,square1,j,0.2784,0,V,8.0
V8,77.0,91.0,68.0,81.0,59.0,91,5405.0,square1,j,0.0404,0,V,8.0
V8,78.0,90.0,73.0,80.0,63.0,73,5478.0,square2,f,0.2923,1,V,8.0
V8,79.0,90.0,73.0,83.0,61.0,90,5568.0,square1,j,0.1733,0,V,8.0
V8,80.0,95.0,75.0,81.0,66.0,95,5663.0,square1,j,0.3016,0,V,8.0
V8,81.0,92.0,72.0,81.0,57.0,92,5755.0,square1,j,0.178,0,V,8.0
V8,82.0,91.0,71.0,80.0,61.0,91,5846.0,square1,j,0.1691,0,V,8.0
V8,83.0,90.0,66.0,83.0,62.0,90,5936.0,square1,j,0.1605,0,V,8.0
V8,84.0,93.0,67.0,87.0,65.0,93,6029.0,square1,j,0.1368,0,V,8.0
V8,85.0,85.0,70.0,80.0,62.0,85,6114.0,square1,j,0.1714,0,V,8.0
V8,86.0,84.0,72.0,85.0,62.0,84,6198.0,square1,j,0.2369,0,V,8.0
V8,87.0,91.0,68.0,82.0,65.0,82,6280.0,square3,r,0.1417,2,V,8.0
V8,88.0,93.0,67.0,83.0,61.0,61,6341.0,square4,i,0.0694,3,V,8.0
V8,89.0,95.0,68.0,78.0,66.0,68,6409.0,square2,f,0.2742,1,V,8.0
V8,90.0,91.0,73.0,80.0,60.0,91,6500.0,square1,j,0.1869,0,V,8.0
V8,91.0,93.0,68.0,81.0,64.0,93,6593.0,square1,j,0.3911,0,V,8.0
V8,92.0,90.0,75.0,82.0,67.0,90,6683.0,square1,j,0.0578,0,V,8.0
V8,93.0,92.0,70.0,82.0,66.0,92,6775.0,square1,j,0.0402,0,V,8.0
V8,94.0,90.0,71.0,78.0,63.0,90,6865.0,square1,j,0.2824,0,V,8.0
V8,95.0,88.0,65.0,78.0,63.0,88,6953.0,square1,j,0.4963,0,V,8.0
V8,96.0,89.0,72.0,85.0,62.0,89,7042.0,square1,j,0.8046,0,V,8.0
V8,97.0,92.0,72.0,77.0,67.0,92,7134.0,square1,j,0.0021,0,V,8.0
V8,98.0,86.0,63.0,82.0,62.0,86,7220.0,square1,j,0.8339,0,V,8.0
V8,99.0,90.0,66.0,75.0,61.0,90,7310.0,square1,j,0.2386,0,V,8.0
