block,Trial,square1,square2,square3,square4,currPoints,totalPoints,square,choiceKey.keys,choiceKey.rt,armNum,blockType,blockNum
prac,0.0,100.0,0.0,0.0,0.0,0.0,0.0,square2,,,1,p,0.0
prac,1.0,100.0,0.0,0.0,0.0,100.0,100.0,square1,,,0,p,0.0
prac,2.0,100.0,0.0,0.0,0.0,0.0,100.0,square3,,,2,p,0.0
prac,3.0,100.0,0.0,0.0,0.0,0.0,100.0,square4,,,3,p,0.0
prac,4.0,100.0,0.0,0.0,0.0,100.0,200.0,square1,,,0,p,0.0
prac,5.0,100.0,0.0,0.0,0.0,100.0,300.0,square1,,,0,p,0.0
prac,6.0,100.0,0.0,0.0,0.0,100.0,400.0,square1,,,0,p,0.0
prac,7.0,100.0,0.0,0.0,0.0,100.0,500.0,square1,,,0,p,0.0
prac,8.0,100.0,0.0,0.0,0.0,100.0,600.0,square1,,,0,p,0.0
prac,9.0,100.0,0.0,0.0,0.0,100.0,700.0,square1,,,0,p,0.0
NS8,0.0,61.0,62.0,34.0,32.0,62.0,62.0,square2,i,0.9724,1,N,8.0
NS8,1.0,57.0,56.0,38.0,27.0,57.0,119.0,square1,j,0.4091,0,N,8.0
NS8,2.0,66.0,55.0,42.0,28.0,42.0,161.0,square3,f,0.3193,2,N,8.0
NS8,3.0,67.0,51.0,37.0,28.0,28.0,189.0,square4,r,0.284,3,N,8.0
NS8,4.0,65.0,53.0,38.0,32.0,53.0,242.0,square2,i,0.0946,1,N,8.0
NS8,5.0,67.0,52.0,43.0,33.0,52.0,294.0,square2,i,0.2112,1,N,8.0
NS8,6.0,56.0,47.0,41.0,36.0,56.0,350.0,square1,j,0.2113,0,N,8.0
NS8,7.0,58.0,46.0,37.0,31.0,37.0,387.0,square3,f,0.0989,2,N,8.0
NS8,8.0,60.0,58.0,36.0,35.0,58.0,445.0,square2,i,0.0478,1,N,8.0
NS8,9.0,60.0,66.0,41.0,39.0,66.0,511.0,square2,i,0.0239,1,N,8.0
NS8,10.0,60.0,60.0,36.0,33.0,60.0,571.0,square2,i,0.0004,1,N,8.0
NS8,11.0,53.0,63.0,32.0,35.0,53.0,624.0,square1,j,0.317,0,N,8.0
NS8,12.0,51.0,60.0,32.0,29.0,32.0,656.0,square3,f,0.1535,2,N,8.0
NS8,13.0,53.0,65.0,30.0,32.0,65.0,721.0,square2,i,0.115,1,N,8.0
NS8,14.0,56.0,69.0,25.0,33.0,69.0,790.0,square2,i,0.188,1,N,8.0
NS8,15.0,57.0,71.0,29.0,35.0,35.0,825.0,square4,r,0.2057,3,N,8.0
NS8,16.0,55.0,64.0,31.0,33.0,64.0,889.0,square2,i,0.109,1,N,8.0
NS8,17.0,48.0,65.0,29.0,32.0,65.0,954.0,square2,i,0.1877,1,N,8.0
NS8,18.0,44.0,64.0,28.0,34.0,64.0,1018.0,square2,i,0.1879,1,N,8.0
NS8,19.0,46.0,60.0,26.0,33.0,60.0,1078.0,square2,i,0.1636,1,N,8.0
NS8,20.0,41.0,58.0,29.0,35.0,41.0,1119.0,square1,j,0.1638,0,N,8.0
NS8,21.0,45.0,57.0,29.0,35.0,29.0,1148.0,square3,f,0.0178,2,N,8.0
NS8,22.0,47.0,53.0,32.0,32.0,32.0,1180.0,square4,r,0.0734,3,N,8.0
NS8,23.0,49.0,52.0,33.0,35.0,52.0,1232.0,square2,i,0.0443,1,N,8.0
NS8,24.0,56.0,53.0,30.0,37.0,53.0,1285.0,square2,i,0.1761,1,N,8.0
NS8,25.0,57.0,48.0,28.0,42.0,48.0,1333.0,square2,i,0.1038,1,N,8.0
NS8,26.0,52.0,48.0,33.0,43.0,48.0,1381.0,square2,i,0.0883,1,N,8.0
NS8,27.0,53.0,45.0,28.0,47.0,53.0,1434.0,square1,j,0.1949,0,N,8.0
NS8,28.0,50.0,43.0,27.0,41.0,50.0,1484.0,square1,j,0.1112,0,N,8.0
NS8,29.0,53.0,52.0,29.0,43.0,29.0,1513.0,square3,f,0.1516,2,N,8.0
NS8,30.0,54.0,51.0,30.0,41.0,54.0,1567.0,square1,j,0.6398,0,N,8.0
NS8,31.0,50.0,50.0,31.0,42.0,50.0,1617.0,square1,j,0.2429,0,N,8.0
NS8,32.0,50.0,50.0,35.0,43.0,50.0,1667.0,square1,j,0.1968,0,N,8.0
NS8,33.0,46.0,48.0,39.0,41.0,46.0,1713.0,square1,j,0.1365,0,N,8.0
NS8,34.0,47.0,46.0,41.0,40.0,46.0,1759.0,square2,i,0.1848,1,N,8.0
NS8,35.0,57.0,45.0,36.0,37.0,37.0,1796.0,square4,r,0.0799,3,N,8.0
NS8,36.0,53.0,49.0,41.0,38.0,53.0,1849.0,square1,j,0.0003,0,N,8.0
NS8,37.0,57.0,50.0,41.0,39.0,57.0,1906.0,square1,j,0.1333,0,N,8.0
NS8,38.0,61.0,51.0,39.0,43.0,61.0,1967.0,square1,j,0.1721,0,N,8.0
NS8,39.0,59.0,54.0,41.0,36.0,59.0,2026.0,square1,j,0.1839,0,N,8.0
NS8,40.0,53.0,55.0,47.0,40.0,53.0,2079.0,square1,j,0.1635,0,N,8.0
NS8,41.0,53.0,55.0,43.0,39.0,55.0,2134.0,square2,i,0.1637,1,N,8.0
NS8,42.0,59.0,55.0,45.0,40.0,55.0,2189.0,square2,i,0.0699,1,N,8.0
NS8,43.0,54.0,46.0,51.0,37.0,46.0,2235.0,square2,i,0.3473,1,N,8.0
NS8,44.0,56.0,44.0,50.0,35.0,56.0,2291.0,square1,j,0.1054,0,N,8.0
NS8,45.0,51.0,46.0,41.0,37.0,51.0,2342.0,square1,j,0.2,0,N,8.0
NS8,46.0,52.0,43.0,44.0,34.0,52.0,2394.0,square1,j,0.1942,0,N,8.0
NS8,47.0,46.0,41.0,36.0,37.0,46.0,2440.0,square1,j,0.1928,0,N,8.0
NS8,48.0,47.0,46.0,39.0,37.0,39.0,2479.0,square3,f,0.0874,2,N,8.0
NS8,49.0,48.0,36.0,38.0,40.0,36.0,2515.0,square2,i,0.3807,1,N,8.0
NS8,50.0,51.0,37.0,36.0,46.0,46.0,2561.0,square4,r,0.2205,3,N,8.0
NS8,51.0,53.0,38.0,40.0,43.0,43.0,2604.0,square4,r,0.1546,3,N,8.0
NS8,52.0,47.0,32.0,37.0,44.0,47.0,2651.0,square1,j,0.1111,0,N,8.0
NS8,53.0,52.0,31.0,38.0,46.0,52.0,2703.0,square1,j,0.2126,0,N,8.0
NS8,54.0,44.0,34.0,40.0,45.0,44.0,2747.0,square1,j,0.098,0,N,8.0
NS8,55.0,46.0,26.0,37.0,41.0,26.0,2773.0,square2,i,0.2277,1,N,8.0
NS8,56.0,42.0,29.0,36.0,40.0,42.0,2815.0,square1,j,0.0365,0,N,8.0
NS8,57.0,39.0,21.0,39.0,40.0,39.0,2854.0,square3,f,0.1414,2,N,8.0
NS8,58.0,42.0,18.0,39.0,40.0,40.0,2894.0,square4,r,0.116,3,N,8.0
NS8,59.0,46.0,16.0,41.0,39.0,46.0,2940.0,square1,j,0.0501,0,N,8.0
NS8,60.0,45.0,20.0,40.0,39.0,45.0,2985.0,square1,j,0.2393,0,N,8.0
NS8,61.0,45.0,26.0,42.0,39.0,45.0,3030.0,square1,j,0.1274,0,N,8.0
NS8,62.0,46.0,21.0,45.0,37.0,46.0,3076.0,square1,j,0.1948,0,N,8.0
NS8,63.0,50.0,23.0,40.0,38.0,50.0,3126.0,square1,j,0.1759,0,N,8.0
NS8,64.0,46.0,24.0,41.0,33.0,46.0,3172.0,square1,j,0.1695,0,N,8.0
NS8,65.0,48.0,28.0,42.0,32.0,28.0,3200.0,square2,i,0.2128,1,N,8.0
NS8,66.0,47.0,20.0,40.0,35.0,35.0,3235.0,square4,r,0.0543,3,N,8.0
NS8,67.0,49.0,25.0,46.0,34.0,46.0,3281.0,square3,f,0.074,2,N,8.0
NS8,68.0,47.0,24.0,45.0,33.0,45.0,3326.0,square3,f,0.0788,2,N,8.0
NS8,69.0,45.0,21.0,47.0,35.0,47.0,3373.0,square3,f,0.2135,2,N,8.0
NS8,70.0,44.0,21.0,47.0,37.0,47.0,3420.0,square3,f,0.1517,2,N,8.0
NS8,71.0,44.0,15.0,41.0,38.0,41.0,3461.0,square3,f,0.0796,2,N,8.0
NS8,72.0,47.0,19.0,49.0,40.0,49.0,3510.0,square3,f,0.1332,2,N,8.0
NS8,73.0,39.0,21.0,53.0,38.0,39.0,3549.0,square1,j,0.1355,0,N,8.0
NS8,74.0,42.0,19.0,53.0,35.0,53.0,3602.0,square3,f,0.0971,2,N,8.0
NS8,75.0,37.0,18.0,43.0,35.0,43.0,3645.0,square3,f,0.206,2,N,8.0
NS8,76.0,35.0,14.0,42.0,38.0,14.0,3659.0,square2,i,0.0642,1,N,8.0
NS8,77.0,38.0,19.0,47.0,44.0,44.0,3703.0,square4,r,0.0181,3,N,8.0
NS8,78.0,38.0,18.0,50.0,46.0,38.0,3741.0,square1,j,0.0688,0,N,8.0
NS8,79.0,33.0,22.0,54.0,44.0,54.0,3795.0,square3,f,0.7062,2,N,8.0
NS8,80.0,38.0,21.0,56.0,52.0,56.0,3851.0,square3,f,0.1855,2,N,8.0
NS8,81.0,37.0,22.0,56.0,43.0,56.0,3907.0,square3,f,0.1151,2,N,8.0
NS8,82.0,30.0,26.0,60.0,42.0,60.0,3967.0,square3,f,0.1351,2,N,8.0
NS8,83.0,38.0,22.0,54.0,46.0,54.0,4021.0,square3,f,0.0871,2,N,8.0
NS8,84.0,33.0,18.0,52.0,46.0,52.0,4073.0,square3,f,0.1772,2,N,8.0
NS8,85.0,42.0,12.0,57.0,48.0,57.0,4130.0,square3,f,0.1272,2,N,8.0
NS8,86.0,45.0,19.0,58.0,42.0,58.0,4188.0,square3,f,0.0664,2,N,8.0
NS8,87.0,46.0,10.0,65.0,44.0,65.0,4253.0,square3,f,0.1631,2,N,8.0
NS8,88.0,45.0,11.0,59.0,45.0,59.0,4312.0,square3,f,0.0789,2,N,8.0
NS8,89.0,42.0,11.0,60.0,47.0,60.0,4372.0,square3,f,0.153,2,N,8.0
NS8,90.0,40.0,7.0,64.0,49.0,64.0,4436.0,square3,f,0.0634,2,N,8.0
NS8,91.0,42.0,11.0,64.0,48.0,64.0,4500.0,square3,f,0.024,2,N,8.0
NS8,92.0,43.0,13.0,60.0,43.0,60.0,4560.0,square3,f,0.945,2,N,8.0
NS8,93.0,44.0,12.0,64.0,45.0,64.0,4624.0,square3,f,0.2086,2,N,8.0
NS8,94.0,45.0,16.0,65.0,49.0,65.0,4689.0,square3,f,0.1915,2,N,8.0
NS8,95.0,45.0,24.0,66.0,42.0,66.0,4755.0,square3,f,0.2177,2,N,8.0
NS8,96.0,53.0,27.0,67.0,44.0,67.0,4822.0,square3,f,0.0731,2,N,8.0
NS8,97.0,50.0,29.0,68.0,43.0,68.0,4890.0,square3,f,0.0966,2,N,8.0
NS8,98.0,52.0,29.0,66.0,37.0,66.0,4956.0,square3,f,0.0817,2,N,8.0
NS8,99.0,53.0,32.0,65.0,37.0,65.0,5021.0,square3,f,1.6067,2,N,8.0
NS5,0.0,26.0,19.0,54.0,39.0,26.0,26.0,square1,r,0.4803,0,N,5.0
NS5,1.0,21.0,17.0,51.0,42.0,51.0,77.0,square3,j,0.5427,2,N,5.0
NS5,2.0,19.0,17.0,52.0,42.0,42.0,119.0,square4,i,0.3537,3,N,5.0
NS5,3.0,21.0,16.0,55.0,38.0,16.0,135.0,square2,f,0.2728,1,N,5.0
NS5,4.0,14.0,26.0,52.0,44.0,52.0,187.0,square3,j,0.2087,2,N,5.0
NS5,5.0,18.0,25.0,47.0,42.0,47.0,234.0,square3,j,0.2119,2,N,5.0
NS5,6.0,23.0,21.0,54.0,38.0,54.0,288.0,square3,j,0.2847,2,N,5.0
NS5,7.0,18.0,27.0,56.0,39.0,56.0,344.0,square3,j,0.3227,2,N,5.0
NS5,8.0,18.0,28.0,57.0,40.0,57.0,401.0,square3,j,0.2181,2,N,5.0
NS5,9.0,15.0,29.0,53.0,38.0,53.0,454.0,square3,j,0.2765,2,N,5.0
NS5,10.0,13.0,26.0,56.0,41.0,56.0,510.0,square3,j,0.4504,2,N,5.0
NS5,11.0,11.0,25.0,58.0,41.0,58.0,568.0,square3,j,0.2559,2,N,5.0
NS5,12.0,9.0,22.0,53.0,40.0,53.0,621.0,square3,j,0.1894,2,N,5.0
NS5,13.0,11.0,21.0,55.0,39.0,55.0,676.0,square3,j,0.2199,2,N,5.0
NS5,14.0,12.0,17.0,49.0,38.0,49.0,725.0,square3,j,0.1725,2,N,5.0
NS5,15.0,18.0,19.0,52.0,37.0,37.0,762.0,square4,i,0.1599,3,N,5.0
NS5,16.0,18.0,20.0,49.0,40.0,49.0,811.0,square3,j,0.0605,2,N,5.0
NS5,17.0,16.0,16.0,50.0,41.0,16.0,827.0,square2,f,0.1577,1,N,5.0
NS5,18.0,16.0,18.0,51.0,43.0,16.0,843.0,square1,r,0.0302,0,N,5.0
NS5,19.0,14.0,20.0,44.0,45.0,44.0,887.0,square3,j,0.0486,2,N,5.0
NS5,20.0,19.0,21.0,42.0,48.0,42.0,929.0,square3,j,0.1892,2,N,5.0
NS5,21.0,19.0,22.0,43.0,47.0,43.0,972.0,square3,j,0.2002,2,N,5.0
NS5,22.0,17.0,15.0,43.0,47.0,43.0,1015.0,square3,j,0.1821,2,N,5.0
NS5,23.0,16.0,28.0,37.0,47.0,37.0,1052.0,square3,j,0.0073,2,N,5.0
NS5,24.0,20.0,21.0,38.0,49.0,38.0,1090.0,square3,j,0.0004,2,N,5.0
NS5,25.0,22.0,17.0,34.0,46.0,46.0,1136.0,square4,i,0.2323,3,N,5.0
NS5,26.0,30.0,16.0,32.0,50.0,50.0,1186.0,square4,i,0.1782,3,N,5.0
NS5,27.0,21.0,20.0,35.0,42.0,42.0,1228.0,square4,i,0.1696,3,N,5.0
NS5,28.0,20.0,23.0,39.0,42.0,23.0,1251.0,square2,f,0.2241,1,N,5.0
NS5,29.0,21.0,18.0,39.0,41.0,41.0,1292.0,square4,i,0.5816,3,N,5.0
NS5,30.0,20.0,11.0,41.0,44.0,41.0,1333.0,square3,j,0.1236,2,N,5.0
NS5,31.0,20.0,9.0,36.0,43.0,36.0,1369.0,square3,j,0.1835,2,N,5.0
NS5,32.0,21.0,13.0,35.0,46.0,46.0,1415.0,square4,i,0.2178,3,N,5.0
NS5,33.0,16.0,22.0,32.0,44.0,44.0,1459.0,square4,i,0.2086,3,N,5.0
NS5,34.0,20.0,20.0,33.0,37.0,37.0,1496.0,square4,i,0.1397,3,N,5.0
NS5,35.0,19.0,27.0,34.0,40.0,40.0,1536.0,square4,i,0.1275,3,N,5.0
NS5,36.0,20.0,23.0,31.0,37.0,20.0,1556.0,square1,r,0.1935,0,N,5.0
NS5,37.0,15.0,28.0,41.0,40.0,41.0,1597.0,square3,j,0.0954,2,N,5.0
NS5,38.0,18.0,21.0,45.0,37.0,45.0,1642.0,square3,j,0.2057,2,N,5.0
NS5,39.0,23.0,22.0,40.0,34.0,40.0,1682.0,square3,j,0.1826,2,N,5.0
NS5,40.0,22.0,25.0,44.0,26.0,44.0,1726.0,square3,j,0.2301,2,N,5.0
NS5,41.0,28.0,25.0,39.0,29.0,39.0,1765.0,square3,j,0.1795,2,N,5.0
NS5,42.0,27.0,27.0,42.0,35.0,42.0,1807.0,square3,j,0.1218,2,N,5.0
NS5,43.0,25.0,25.0,49.0,38.0,49.0,1856.0,square3,j,0.195,2,N,5.0
NS5,44.0,24.0,26.0,42.0,30.0,42.0,1898.0,square3,j,0.2014,2,N,5.0
NS5,45.0,33.0,22.0,43.0,37.0,43.0,1941.0,square3,j,0.1638,2,N,5.0
NS5,46.0,32.0,24.0,50.0,38.0,50.0,1991.0,square3,j,0.1516,2,N,5.0
NS5,47.0,39.0,25.0,52.0,29.0,52.0,2043.0,square3,j,0.2087,2,N,5.0
NS5,48.0,42.0,22.0,46.0,33.0,46.0,2089.0,square3,j,0.2555,2,N,5.0
NS5,49.0,40.0,26.0,40.0,33.0,33.0,2122.0,square4,i,0.1943,3,N,5.0
NS5,50.0,34.0,19.0,47.0,33.0,47.0,2169.0,square3,j,0.0304,2,N,5.0
NS5,51.0,29.0,25.0,45.0,29.0,45.0,2214.0,square3,j,0.1817,2,N,5.0
NS5,52.0,29.0,24.0,48.0,35.0,24.0,2238.0,square2,f,0.1706,1,N,5.0
NS5,53.0,24.0,25.0,45.0,40.0,45.0,2283.0,square3,j,0.0682,2,N,5.0
NS5,54.0,26.0,25.0,51.0,36.0,51.0,2334.0,square3,j,0.206,2,N,5.0
NS5,55.0,25.0,28.0,56.0,34.0,56.0,2390.0,square3,j,0.1403,2,N,5.0
NS5,56.0,23.0,27.0,54.0,36.0,54.0,2444.0,square3,j,0.1528,2,N,5.0
NS5,57.0,19.0,25.0,51.0,31.0,51.0,2495.0,square3,j,0.1771,2,N,5.0
NS5,58.0,20.0,30.0,53.0,29.0,53.0,2548.0,square3,j,0.1953,2,N,5.0
NS5,59.0,17.0,30.0,52.0,28.0,52.0,2600.0,square3,j,0.1779,2,N,5.0
NS5,60.0,15.0,30.0,55.0,30.0,55.0,2655.0,square3,j,1.0484,2,N,5.0
NS5,61.0,22.0,29.0,54.0,30.0,54.0,2709.0,square3,j,0.0752,2,N,5.0
NS5,62.0,18.0,31.0,55.0,32.0,55.0,2764.0,square3,j,0.0864,2,N,5.0
NS5,63.0,19.0,31.0,51.0,37.0,51.0,2815.0,square3,j,0.1298,2,N,5.0
NS5,64.0,20.0,30.0,45.0,35.0,45.0,2860.0,square3,j,0.1578,2,N,5.0
NS5,65.0,24.0,21.0,55.0,38.0,55.0,2915.0,square3,j,0.1939,2,N,5.0
NS5,66.0,22.0,29.0,58.0,36.0,58.0,2973.0,square3,j,0.1194,2,N,5.0
NS5,67.0,22.0,26.0,51.0,36.0,51.0,3024.0,square3,j,0.1063,2,N,5.0
NS5,68.0,20.0,28.0,52.0,36.0,52.0,3076.0,square3,j,0.1332,2,N,5.0
NS5,69.0,18.0,27.0,52.0,40.0,52.0,3128.0,square3,j,0.0545,2,N,5.0
NS5,70.0,22.0,34.0,55.0,39.0,55.0,3183.0,square3,j,0.0363,2,N,5.0
NS5,71.0,27.0,37.0,59.0,41.0,59.0,3242.0,square3,j,0.0614,2,N,5.0
NS5,72.0,27.0,37.0,57.0,40.0,57.0,3299.0,square3,j,0.1294,2,N,5.0
NS5,73.0,35.0,36.0,55.0,38.0,55.0,3354.0,square3,j,0.1183,2,N,5.0
NS5,74.0,27.0,36.0,52.0,36.0,52.0,3406.0,square3,j,0.1048,2,N,5.0
NS5,75.0,31.0,40.0,53.0,38.0,53.0,3459.0,square3,j,0.1064,2,N,5.0
NS5,76.0,33.0,41.0,59.0,35.0,59.0,3518.0,square3,j,0.1116,2,N,5.0
NS5,77.0,33.0,42.0,56.0,38.0,56.0,3574.0,square3,j,0.1515,2,N,5.0
NS5,78.0,30.0,42.0,53.0,37.0,53.0,3627.0,square3,j,0.1108,2,N,5.0
NS5,79.0,27.0,49.0,51.0,44.0,51.0,3678.0,square3,j,0.032,2,N,5.0
NS5,80.0,31.0,49.0,45.0,44.0,45.0,3723.0,square3,j,0.0724,2,N,5.0
NS5,81.0,33.0,51.0,48.0,43.0,48.0,3771.0,square3,j,0.1483,2,N,5.0
NS5,82.0,31.0,54.0,41.0,43.0,41.0,3812.0,square3,j,0.11,2,N,5.0
NS5,83.0,25.0,57.0,42.0,40.0,42.0,3854.0,square3,j,0.1582,2,N,5.0
NS5,84.0,36.0,57.0,45.0,38.0,45.0,3899.0,square3,j,0.0678,2,N,5.0
NS5,85.0,36.0,62.0,44.0,42.0,44.0,3943.0,square3,j,0.1106,2,N,5.0
NS5,86.0,33.0,55.0,48.0,43.0,48.0,3991.0,square3,j,0.1483,2,N,5.0
NS5,87.0,37.0,53.0,44.0,46.0,46.0,4037.0,square4,i,0.1579,3,N,5.0
NS5,88.0,36.0,54.0,41.0,48.0,48.0,4085.0,square4,i,0.1086,3,N,5.0
NS5,89.0,39.0,62.0,47.0,47.0,47.0,4132.0,square4,i,0.1782,3,N,5.0
NS5,90.0,37.0,62.0,51.0,48.0,48.0,4180.0,square4,i,0.1059,3,N,5.0
NS5,91.0,40.0,64.0,48.0,53.0,53.0,4233.0,square4,i,0.1393,3,N,5.0
NS5,92.0,42.0,64.0,51.0,55.0,51.0,4284.0,square3,j,0.1892,2,N,5.0
NS5,93.0,39.0,63.0,51.0,53.0,53.0,4337.0,square4,i,0.0922,3,N,5.0
NS5,94.0,41.0,60.0,50.0,58.0,50.0,4387.0,square3,j,0.135,2,N,5.0
NS5,95.0,36.0,55.0,53.0,52.0,52.0,4439.0,square4,i,0.0241,3,N,5.0
NS5,96.0,36.0,56.0,55.0,56.0,56.0,4495.0,square4,i,0.1393,3,N,5.0
NS5,97.0,28.0,52.0,57.0,53.0,53.0,4548.0,square4,i,0.0908,3,N,5.0
NS5,98.0,29.0,53.0,53.0,43.0,43.0,4591.0,square4,i,0.145,3,N,5.0
NS5,99.0,25.0,55.0,53.0,46.0,53.0,4644.0,square3,j,0.2124,2,N,5.0
NS2,0.0,44.0,66.0,42.0,38.0,38.0,38.0,square4,j,0.9695,3,N,2.0
NS2,1.0,44.0,66.0,47.0,43.0,66.0,104.0,square2,r,0.4926,1,N,2.0
NS2,2.0,42.0,62.0,53.0,43.0,62.0,166.0,square2,r,0.2164,1,N,2.0
NS2,3.0,46.0,58.0,48.0,46.0,48.0,214.0,square3,f,0.1909,2,N,2.0
NS2,4.0,47.0,61.0,51.0,42.0,47.0,261.0,square1,i,0.2137,0,N,2.0
NS2,5.0,51.0,58.0,50.0,50.0,58.0,319.0,square2,r,0.1728,1,N,2.0
NS2,6.0,52.0,58.0,43.0,48.0,58.0,377.0,square2,r,0.1738,1,N,2.0
NS2,7.0,50.0,52.0,43.0,50.0,52.0,429.0,square2,r,0.0961,1,N,2.0
NS2,8.0,54.0,58.0,41.0,46.0,58.0,487.0,square2,r,0.1417,1,N,2.0
NS2,9.0,52.0,59.0,42.0,46.0,59.0,546.0,square2,r,0.1536,1,N,2.0
NS2,10.0,50.0,52.0,37.0,48.0,52.0,598.0,square2,r,0.1,1,N,2.0
NS2,11.0,45.0,56.0,38.0,43.0,56.0,654.0,square2,r,0.0888,1,N,2.0
NS2,12.0,50.0,56.0,37.0,48.0,56.0,710.0,square2,r,0.1455,1,N,2.0
NS2,13.0,47.0,63.0,36.0,49.0,63.0,773.0,square2,r,0.1712,1,N,2.0
NS2,14.0,51.0,56.0,39.0,49.0,56.0,829.0,square2,r,0.122,1,N,2.0
NS2,15.0,46.0,64.0,39.0,50.0,64.0,893.0,square2,r,0.1938,1,N,2.0
NS2,16.0,51.0,61.0,37.0,47.0,61.0,954.0,square2,r,0.0788,1,N,2.0
NS2,17.0,59.0,68.0,46.0,53.0,68.0,1022.0,square2,r,0.0968,1,N,2.0
NS2,18.0,53.0,65.0,42.0,49.0,65.0,1087.0,square2,r,0.104,1,N,2.0
NS2,19.0,52.0,67.0,47.0,49.0,67.0,1154.0,square2,r,0.0695,1,N,2.0
NS2,20.0,56.0,64.0,45.0,48.0,64.0,1218.0,square2,r,0.0302,1,N,2.0
NS2,21.0,57.0,73.0,46.0,44.0,73.0,1291.0,square2,r,0.2105,1,N,2.0
NS2,22.0,54.0,76.0,36.0,47.0,76.0,1367.0,square2,r,0.0625,1,N,2.0
NS2,23.0,55.0,77.0,35.0,42.0,77.0,1444.0,square2,r,0.1397,1,N,2.0
NS2,24.0,53.0,68.0,35.0,46.0,68.0,1512.0,square2,r,0.0734,1,N,2.0
NS2,25.0,55.0,73.0,29.0,45.0,73.0,1585.0,square2,r,0.0875,1,N,2.0
NS2,26.0,52.0,69.0,30.0,49.0,69.0,1654.0,square2,r,0.093,1,N,2.0
NS2,27.0,52.0,62.0,33.0,52.0,62.0,1716.0,square2,r,0.0332,1,N,2.0
NS2,28.0,58.0,62.0,33.0,47.0,62.0,1778.0,square2,r,0.1222,1,N,2.0
NS2,29.0,56.0,65.0,38.0,46.0,65.0,1843.0,square2,r,0.0146,1,N,2.0
NS2,30.0,56.0,66.0,37.0,50.0,66.0,1909.0,square2,r,0.0004,1,N,2.0
NS2,31.0,50.0,64.0,35.0,45.0,64.0,1973.0,square2,r,0.0155,1,N,2.0
NS2,32.0,56.0,62.0,38.0,45.0,62.0,2035.0,square2,r,0.2009,1,N,2.0
NS2,33.0,59.0,58.0,34.0,48.0,58.0,2093.0,square2,r,0.1165,1,N,2.0
NS2,34.0,55.0,59.0,36.0,48.0,59.0,2152.0,square2,r,0.0749,1,N,2.0
NS2,35.0,54.0,57.0,33.0,48.0,57.0,2209.0,square2,r,0.1418,1,N,2.0
NS2,36.0,53.0,58.0,34.0,51.0,58.0,2267.0,square2,r,0.0636,1,N,2.0
NS2,37.0,46.0,53.0,32.0,55.0,53.0,2320.0,square2,r,0.1458,1,N,2.0
NS2,38.0,46.0,59.0,37.0,49.0,59.0,2379.0,square2,r,0.1152,1,N,2.0
NS2,39.0,53.0,59.0,36.0,48.0,59.0,2438.0,square2,r,0.0181,1,N,2.0
NS2,40.0,46.0,60.0,37.0,42.0,60.0,2498.0,square2,r,0.1029,1,N,2.0
NS2,41.0,51.0,57.0,42.0,41.0,57.0,2555.0,square2,r,0.1294,1,N,2.0
NS2,42.0,49.0,53.0,46.0,41.0,53.0,2608.0,square2,r,0.0138,1,N,2.0
NS2,43.0,49.0,57.0,43.0,39.0,57.0,2665.0,square2,r,0.1456,1,N,2.0
NS2,44.0,48.0,55.0,48.0,37.0,55.0,2720.0,square2,r,0.0316,1,N,2.0
NS2,45.0,49.0,52.0,34.0,36.0,52.0,2772.0,square2,r,0.0543,1,N,2.0
NS2,46.0,50.0,46.0,39.0,34.0,46.0,2818.0,square2,r,0.0325,1,N,2.0
NS2,47.0,55.0,48.0,39.0,26.0,48.0,2866.0,square2,r,0.1635,1,N,2.0
NS2,48.0,55.0,42.0,41.0,31.0,42.0,2908.0,square2,r,0.085,1,N,2.0
NS2,49.0,55.0,41.0,36.0,36.0,41.0,2949.0,square2,r,0.1571,1,N,2.0
NS2,50.0,50.0,43.0,43.0,36.0,43.0,2992.0,square3,f,0.1334,2,N,2.0
NS2,51.0,49.0,40.0,44.0,32.0,49.0,3041.0,square1,i,0.017,0,N,2.0
NS2,52.0,54.0,45.0,40.0,32.0,54.0,3095.0,square1,i,0.1549,0,N,2.0
NS2,53.0,55.0,44.0,42.0,38.0,55.0,3150.0,square1,i,0.1698,0,N,2.0
NS2,54.0,57.0,44.0,42.0,37.0,57.0,3207.0,square1,i,0.0707,0,N,2.0
NS2,55.0,56.0,47.0,35.0,29.0,56.0,3263.0,square1,i,0.1828,0,N,2.0
NS2,56.0,56.0,45.0,31.0,36.0,56.0,3319.0,square1,i,0.1601,0,N,2.0
NS2,57.0,48.0,43.0,33.0,36.0,48.0,3367.0,square1,i,0.103,0,N,2.0
NS2,58.0,46.0,44.0,30.0,40.0,46.0,3413.0,square1,i,0.1004,0,N,2.0
NS2,59.0,45.0,36.0,33.0,37.0,45.0,3458.0,square1,i,0.06,0,N,2.0
NS2,60.0,45.0,37.0,32.0,38.0,37.0,3495.0,square2,r,0.0005,1,N,2.0
NS2,61.0,47.0,37.0,31.0,37.0,31.0,3526.0,square3,f,0.0327,2,N,2.0
NS2,62.0,46.0,36.0,28.0,34.0,34.0,3560.0,square4,j,0.0265,3,N,2.0
NS2,63.0,53.0,36.0,26.0,43.0,53.0,3613.0,square1,i,0.0333,0,N,2.0
NS2,64.0,53.0,37.0,24.0,45.0,53.0,3666.0,square1,i,0.1212,0,N,2.0
NS2,65.0,49.0,34.0,27.0,49.0,49.0,3715.0,square1,i,0.0672,0,N,2.0
NS2,66.0,50.0,30.0,26.0,57.0,50.0,3765.0,square1,i,0.0845,0,N,2.0
NS2,67.0,49.0,28.0,32.0,55.0,49.0,3814.0,square1,i,0.1006,0,N,2.0
NS2,68.0,53.0,23.0,35.0,55.0,53.0,3867.0,square1,i,0.0397,0,N,2.0
NS2,69.0,49.0,29.0,33.0,51.0,49.0,3916.0,square1,i,0.0197,0,N,2.0
NS2,70.0,54.0,27.0,30.0,60.0,54.0,3970.0,square1,i,0.03,0,N,2.0
NS2,71.0,57.0,28.0,31.0,59.0,57.0,4027.0,square1,i,0.0704,0,N,2.0
NS2,72.0,55.0,25.0,29.0,61.0,55.0,4082.0,square1,i,0.1093,0,N,2.0
NS2,73.0,63.0,29.0,31.0,56.0,63.0,4145.0,square1,i,0.1943,0,N,2.0
NS2,74.0,59.0,34.0,34.0,58.0,59.0,4204.0,square1,i,0.0142,0,N,2.0
NS2,75.0,58.0,37.0,31.0,53.0,58.0,4262.0,square1,i,0.051,0,N,2.0
NS2,76.0,62.0,41.0,25.0,53.0,62.0,4324.0,square1,i,0.003,0,N,2.0
NS2,77.0,60.0,37.0,30.0,52.0,60.0,4384.0,square1,i,1.406,0,N,2.0
NS2,78.0,63.0,37.0,37.0,50.0,63.0,4447.0,square1,i,0.0607,0,N,2.0
NS2,79.0,66.0,44.0,32.0,47.0,66.0,4513.0,square1,i,0.0542,0,N,2.0
NS2,80.0,65.0,41.0,30.0,45.0,65.0,4578.0,square1,i,0.0425,0,N,2.0
NS2,81.0,60.0,37.0,26.0,49.0,60.0,4638.0,square1,i,0.0545,0,N,2.0
NS2,82.0,68.0,38.0,28.0,46.0,68.0,4706.0,square1,i,0.0485,0,N,2.0
NS2,83.0,63.0,42.0,30.0,49.0,63.0,4769.0,square1,i,0.0309,0,N,2.0
NS2,84.0,71.0,41.0,37.0,51.0,71.0,4840.0,square1,i,1.0388,0,N,2.0
NS2,85.0,63.0,47.0,29.0,40.0,63.0,4903.0,square1,i,0.0668,0,N,2.0
NS2,86.0,67.0,42.0,36.0,44.0,67.0,4970.0,square1,i,0.7119,0,N,2.0
NS2,87.0,62.0,45.0,31.0,41.0,62.0,5032.0,square1,i,0.8008,0,N,2.0
NS2,88.0,63.0,39.0,32.0,44.0,63.0,5095.0,square1,i,0.0787,0,N,2.0
NS2,89.0,66.0,39.0,37.0,39.0,66.0,5161.0,square1,i,0.0121,0,N,2.0
NS2,90.0,53.0,38.0,35.0,40.0,53.0,5214.0,square1,i,0.0613,0,N,2.0
NS2,91.0,57.0,39.0,38.0,43.0,57.0,5271.0,square1,i,0.018,0,N,2.0
NS2,92.0,53.0,36.0,40.0,47.0,53.0,5324.0,square1,i,0.0817,0,N,2.0
NS2,93.0,47.0,39.0,43.0,38.0,47.0,5371.0,square1,i,0.0873,0,N,2.0
NS2,94.0,45.0,33.0,46.0,40.0,33.0,5404.0,square2,r,0.0737,1,N,2.0
NS2,95.0,49.0,38.0,53.0,36.0,53.0,5457.0,square3,f,0.4329,2,N,2.0
NS2,96.0,50.0,39.0,46.0,34.0,46.0,5503.0,square3,f,0.1725,2,N,2.0
NS2,97.0,57.0,37.0,44.0,41.0,44.0,5547.0,square3,f,0.1773,2,N,2.0
NS2,98.0,55.0,43.0,39.0,43.0,55.0,5602.0,square1,i,0.5647,0,N,2.0
NS2,99.0,56.0,46.0,41.0,41.0,56.0,5658.0,square1,i,0.3821,0,N,2.0
V3,0.0,62.0,45.0,70.0,53.0,53.0,53.0,square4,r,0.4797,3,V,3.0
V3,1.0,63.0,47.0,76.0,60.0,47.0,100.0,square2,f,0.2245,1,V,3.0
V3,2.0,65.0,54.0,73.0,57.0,65.0,165.0,square1,j,0.1645,0,V,3.0
V3,3.0,68.0,51.0,71.0,51.0,68.0,233.0,square1,j,0.1755,0,V,3.0
V3,4.0,61.0,49.0,75.0,53.0,61.0,294.0,square1,j,0.1939,0,V,3.0
V3,5.0,65.0,47.0,74.0,50.0,74.0,368.0,square3,i,0.1607,2,V,3.0
V3,6.0,61.0,51.0,72.0,57.0,72.0,440.0,square3,i,0.2035,2,V,3.0
V3,7.0,67.0,49.0,75.0,55.0,75.0,515.0,square3,i,0.2789,2,V,3.0
V3,8.0,64.0,48.0,76.0,56.0,76.0,591.0,square3,i,0.0798,2,V,3.0
V3,9.0,67.0,49.0,71.0,56.0,71.0,662.0,square3,i,0.1873,2,V,3.0
V3,10.0,65.0,50.0,71.0,56.0,71.0,733.0,square3,i,0.1877,2,V,3.0
V3,11.0,63.0,43.0,78.0,58.0,58.0,791.0,square4,r,0.1333,3,V,3.0
V3,12.0,66.0,53.0,73.0,54.0,66.0,857.0,square1,j,0.0978,0,V,3.0
V3,13.0,64.0,46.0,78.0,51.0,51.0,908.0,square4,r,0.1054,3,V,3.0
V3,14.0,67.0,51.0,71.0,58.0,51.0,959.0,square2,f,0.0728,1,V,3.0
V3,15.0,61.0,50.0,73.0,54.0,73.0,1032.0,square3,i,0.0846,2,V,3.0
V3,16.0,64.0,52.0,74.0,54.0,74.0,1106.0,square3,i,0.1749,2,V,3.0
V3,17.0,61.0,48.0,74.0,55.0,74.0,1180.0,square3,i,0.1577,2,V,3.0
V3,18.0,65.0,50.0,70.0,59.0,70.0,1250.0,square3,i,0.1028,2,V,3.0
V3,19.0,64.0,52.0,76.0,56.0,76.0,1326.0,square3,i,0.1064,2,V,3.0
V3,20.0,64.0,50.0,69.0,58.0,69.0,1395.0,square3,i,0.1418,2,V,3.0
V3,21.0,66.0,50.0,72.0,56.0,72.0,1467.0,square3,i,0.0204,2,V,3.0
V3,22.0,43.0,48.0,40.0,62.0,40.0,1507.0,square3,i,0.1412,2,V,3.0
V3,23.0,41.0,51.0,35.0,59.0,35.0,1542.0,square3,i,0.2122,2,V,3.0
V3,24.0,51.0,51.0,37.0,60.0,37.0,1579.0,square3,i,0.1223,2,V,3.0
V3,25.0,45.0,53.0,36.0,57.0,45.0,1624.0,square1,j,0.0687,0,V,3.0
V3,26.0,44.0,51.0,38.0,59.0,59.0,1683.0,square4,r,0.1266,3,V,3.0
V3,27.0,43.0,51.0,34.0,66.0,66.0,1749.0,square4,r,0.1843,3,V,3.0
V3,28.0,47.0,51.0,40.0,67.0,67.0,1816.0,square4,r,0.2073,3,V,3.0
V3,29.0,42.0,55.0,35.0,65.0,65.0,1881.0,square4,r,0.1332,3,V,3.0
V3,30.0,49.0,54.0,36.0,62.0,62.0,1943.0,square4,r,0.2141,3,V,3.0
V3,31.0,50.0,53.0,42.0,66.0,66.0,2009.0,square4,r,0.151,3,V,3.0
V3,32.0,47.0,53.0,34.0,58.0,58.0,2067.0,square4,r,0.1779,3,V,3.0
V3,33.0,45.0,56.0,34.0,62.0,62.0,2129.0,square4,r,0.1725,3,V,3.0
V3,34.0,48.0,54.0,38.0,64.0,64.0,2193.0,square4,r,0.1207,3,V,3.0
V3,35.0,39.0,55.0,42.0,65.0,65.0,2258.0,square4,r,0.1396,3,V,3.0
V3,36.0,46.0,57.0,41.0,63.0,63.0,2321.0,square4,r,0.099,3,V,3.0
V3,37.0,43.0,54.0,41.0,65.0,65.0,2386.0,square4,r,0.0607,3,V,3.0
V3,38.0,47.0,52.0,37.0,63.0,63.0,2449.0,square4,r,0.1967,3,V,3.0
V3,39.0,47.0,53.0,38.0,55.0,55.0,2504.0,square4,r,0.1454,3,V,3.0
V3,40.0,41.0,54.0,39.0,64.0,54.0,2558.0,square2,f,0.1471,1,V,3.0
V3,41.0,48.0,52.0,38.0,64.0,52.0,2610.0,square2,f,0.134,1,V,3.0
V3,42.0,45.0,50.0,34.0,63.0,63.0,2673.0,square4,r,0.1302,3,V,3.0
V3,43.0,44.0,50.0,34.0,62.0,62.0,2735.0,square4,r,0.1879,3,V,3.0
V3,44.0,47.0,55.0,39.0,65.0,65.0,2800.0,square4,r,0.1708,3,V,3.0
V3,45.0,45.0,55.0,31.0,63.0,63.0,2863.0,square4,r,0.1337,3,V,3.0
V3,46.0,42.0,52.0,38.0,64.0,64.0,2927.0,square4,r,0.1405,3,V,3.0
V3,47.0,44.0,53.0,37.0,55.0,44.0,2971.0,square1,j,0.1821,0,V,3.0
V3,48.0,44.0,49.0,37.0,58.0,37.0,3008.0,square3,i,0.0974,2,V,3.0
V3,49.0,48.0,58.0,35.0,54.0,54.0,3062.0,square4,r,0.0999,3,V,3.0
V3,50.0,42.0,28.0,30.0,52.0,28.0,3090.0,square2,f,0.0371,1,V,3.0
V3,51.0,46.0,29.0,32.0,51.0,51.0,3141.0,square4,r,0.0381,3,V,3.0
V3,52.0,37.0,20.0,36.0,50.0,50.0,3191.0,square4,r,0.1402,3,V,3.0
V3,53.0,44.0,22.0,34.0,55.0,55.0,3246.0,square4,r,0.1114,3,V,3.0
V3,54.0,37.0,27.0,26.0,50.0,50.0,3296.0,square4,r,0.1827,3,V,3.0
V3,55.0,41.0,21.0,39.0,53.0,53.0,3349.0,square4,r,0.0057,3,V,3.0
V3,56.0,40.0,20.0,38.0,51.0,51.0,3400.0,square4,r,0.1576,3,V,3.0
V3,57.0,44.0,28.0,31.0,57.0,57.0,3457.0,square4,r,0.0453,3,V,3.0
V3,58.0,46.0,20.0,28.0,49.0,49.0,3506.0,square4,r,0.1107,3,V,3.0
V3,59.0,44.0,24.0,30.0,55.0,44.0,3550.0,square1,j,0.1818,0,V,3.0
V3,60.0,42.0,29.0,29.0,51.0,51.0,3601.0,square4,r,0.0062,3,V,3.0
V3,61.0,41.0,21.0,30.0,46.0,46.0,3647.0,square4,r,0.0786,3,V,3.0
V3,62.0,41.0,27.0,31.0,49.0,49.0,3696.0,square4,r,0.0974,3,V,3.0
V3,63.0,42.0,27.0,34.0,51.0,51.0,3747.0,square4,r,0.115,3,V,3.0
V3,64.0,41.0,24.0,30.0,47.0,30.0,3777.0,square3,i,0.179,2,V,3.0
V3,65.0,36.0,18.0,34.0,48.0,48.0,3825.0,square4,r,0.634,3,V,3.0
V3,66.0,39.0,28.0,35.0,45.0,39.0,3864.0,square1,j,0.1993,0,V,3.0
V3,67.0,42.0,21.0,32.0,46.0,46.0,3910.0,square4,r,0.1038,3,V,3.0
V3,68.0,40.0,24.0,35.0,53.0,24.0,3934.0,square2,f,0.1383,1,V,3.0
V3,69.0,48.0,23.0,34.0,50.0,50.0,3984.0,square4,r,0.0264,3,V,3.0
V3,70.0,40.0,27.0,31.0,49.0,49.0,4033.0,square4,r,0.1884,3,V,3.0
V3,71.0,41.0,23.0,28.0,51.0,51.0,4084.0,square4,r,0.2316,3,V,3.0
V3,72.0,42.0,25.0,33.0,55.0,55.0,4139.0,square4,r,0.1336,3,V,3.0
V3,73.0,41.0,24.0,35.0,55.0,55.0,4194.0,square4,r,0.1206,3,V,3.0
V3,74.0,38.0,26.0,28.0,53.0,53.0,4247.0,square4,r,0.1303,3,V,3.0
V3,75.0,54.0,39.0,69.0,50.0,50.0,4297.0,square4,r,0.1761,3,V,3.0
V3,76.0,55.0,42.0,64.0,53.0,53.0,4350.0,square4,r,0.164,3,V,3.0
V3,77.0,59.0,37.0,66.0,44.0,44.0,4394.0,square4,r,0.2061,3,V,3.0
V3,78.0,58.0,38.0,60.0,46.0,46.0,4440.0,square4,r,0.1108,3,V,3.0
V3,79.0,54.0,35.0,66.0,49.0,49.0,4489.0,square4,r,0.1029,3,V,3.0
V3,80.0,60.0,36.0,68.0,44.0,44.0,4533.0,square4,r,0.2545,3,V,3.0
V3,81.0,55.0,38.0,66.0,51.0,51.0,4584.0,square4,r,0.0734,3,V,3.0
V3,82.0,57.0,47.0,64.0,50.0,50.0,4634.0,square4,r,0.088,3,V,3.0
V3,83.0,57.0,37.0,63.0,45.0,57.0,4691.0,square1,j,0.1543,0,V,3.0
V3,84.0,54.0,40.0,65.0,53.0,54.0,4745.0,square1,j,0.2153,0,V,3.0
V3,85.0,58.0,41.0,63.0,48.0,58.0,4803.0,square1,j,0.2453,0,V,3.0
V3,86.0,53.0,38.0,57.0,49.0,53.0,4856.0,square1,j,0.1764,0,V,3.0
V3,87.0,49.0,42.0,60.0,43.0,49.0,4905.0,square1,j,0.1822,0,V,3.0
V3,88.0,56.0,35.0,70.0,46.0,56.0,4961.0,square1,j,0.206,0,V,3.0
V3,89.0,58.0,39.0,63.0,52.0,58.0,5019.0,square1,j,0.2058,0,V,3.0
V3,90.0,59.0,43.0,63.0,45.0,59.0,5078.0,square1,j,0.0521,0,V,3.0
V3,91.0,54.0,37.0,69.0,49.0,54.0,5132.0,square1,j,0.2006,0,V,3.0
V3,92.0,56.0,41.0,61.0,47.0,56.0,5188.0,square1,j,0.103,0,V,3.0
V3,93.0,58.0,35.0,68.0,47.0,58.0,5246.0,square1,j,0.1761,0,V,3.0
V3,94.0,61.0,37.0,67.0,51.0,61.0,5307.0,square1,j,0.141,0,V,3.0
V3,95.0,57.0,32.0,64.0,47.0,57.0,5364.0,square1,j,0.052,0,V,3.0
V3,96.0,53.0,38.0,63.0,48.0,53.0,5417.0,square1,j,0.0462,0,V,3.0
V3,97.0,57.0,44.0,71.0,50.0,57.0,5474.0,square1,j,0.0788,0,V,3.0
V3,98.0,56.0,39.0,70.0,47.0,56.0,5530.0,square1,j,0.1344,0,V,3.0
V3,99.0,62.0,40.0,67.0,49.0,62.0,5592.0,square1,j,0.0924,0,V,3.0
V8,0.0,49.0,55.0,64.0,74.0,64.0,64.0,square3,j,0.9084,2,V,8.0
V8,1.0,51.0,54.0,70.0,81.0,70.0,134.0,square3,j,0.2973,2,V,8.0
V8,2.0,46.0,62.0,70.0,77.0,70.0,204.0,square3,j,0.2729,2,V,8.0
V8,3.0,46.0,56.0,67.0,75.0,67.0,271.0,square3,j,0.1897,2,V,8.0
V8,4.0,50.0,59.0,67.0,83.0,67.0,338.0,square3,j,0.2222,2,V,8.0
V8,5.0,51.0,54.0,65.0,78.0,78.0,416.0,square4,f,0.2238,3,V,8.0
V8,6.0,45.0,57.0,66.0,80.0,45.0,461.0,square1,r,0.194,0,V,8.0
V8,7.0,46.0,64.0,68.0,77.0,64.0,525.0,square2,i,0.2035,1,V,8.0
V8,8.0,50.0,57.0,66.0,73.0,73.0,598.0,square4,f,0.1577,3,V,8.0
V8,9.0,46.0,56.0,71.0,72.0,72.0,670.0,square4,f,0.0849,3,V,8.0
V8,10.0,56.0,58.0,67.0,75.0,67.0,737.0,square3,j,0.1822,2,V,8.0
V8,11.0,50.0,61.0,69.0,74.0,74.0,811.0,square4,f,0.0911,3,V,8.0
V8,12.0,59.0,59.0,69.0,77.0,77.0,888.0,square4,f,0.1893,3,V,8.0
V8,13.0,50.0,56.0,72.0,77.0,77.0,965.0,square4,f,0.1936,3,V,8.0
V8,14.0,48.0,55.0,65.0,80.0,80.0,1045.0,square4,f,0.1395,3,V,8.0
V8,15.0,48.0,58.0,65.0,76.0,76.0,1121.0,square4,f,0.1576,3,V,8.0
V8,16.0,49.0,58.0,67.0,75.0,75.0,1196.0,square4,f,0.0545,3,V,8.0
V8,17.0,51.0,56.0,68.0,76.0,76.0,1272.0,square4,f,0.0726,3,V,8.0
V8,18.0,52.0,63.0,69.0,80.0,80.0,1352.0,square4,f,0.0483,3,V,8.0
V8,19.0,54.0,54.0,71.0,79.0,79.0,1431.0,square4,f,0.0924,3,V,8.0
V8,20.0,48.0,53.0,62.0,77.0,77.0,1508.0,square4,f,0.2425,3,V,8.0
V8,21.0,44.0,61.0,66.0,77.0,77.0,1585.0,square4,f,0.1815,3,V,8.0
V8,22.0,52.0,58.0,64.0,78.0,78.0,1663.0,square4,f,0.0846,3,V,8.0
V8,23.0,50.0,49.0,67.0,79.0,79.0,1742.0,square4,f,0.1344,3,V,8.0
V8,24.0,49.0,59.0,69.0,74.0,74.0,1816.0,square4,f,0.0861,3,V,8.0
V8,25.0,46.0,61.0,65.0,81.0,81.0,1897.0,square4,f,0.1699,3,V,8.0
V8,26.0,49.0,58.0,63.0,35.0,35.0,1932.0,square4,f,0.1704,3,V,8.0
V8,27.0,48.0,51.0,66.0,41.0,66.0,1998.0,square3,j,0.2275,2,V,8.0
V8,28.0,46.0,55.0,65.0,38.0,65.0,2063.0,square3,j,0.1893,2,V,8.0
V8,29.0,47.0,58.0,69.0,40.0,69.0,2132.0,square3,j,0.1173,2,V,8.0
V8,30.0,42.0,55.0,67.0,43.0,67.0,2199.0,square3,j,0.1332,2,V,8.0
V8,31.0,49.0,56.0,64.0,36.0,64.0,2263.0,square3,j,0.1574,2,V,8.0
V8,32.0,49.0,55.0,69.0,38.0,49.0,2312.0,square1,r,0.0713,0,V,8.0
V8,33.0,44.0,52.0,65.0,48.0,52.0,2364.0,square2,i,0.1474,1,V,8.0
V8,34.0,44.0,57.0,70.0,45.0,45.0,2409.0,square4,f,0.0515,3,V,8.0
V8,35.0,44.0,54.0,68.0,38.0,68.0,2477.0,square3,j,0.1351,2,V,8.0
V8,36.0,45.0,56.0,64.0,40.0,64.0,2541.0,square3,j,0.0919,2,V,8.0
V8,37.0,47.0,57.0,66.0,37.0,66.0,2607.0,square3,j,0.1356,2,V,8.0
V8,38.0,49.0,50.0,66.0,37.0,66.0,2673.0,square3,j,0.0605,2,V,8.0
V8,39.0,51.0,56.0,61.0,39.0,61.0,2734.0,square3,j,0.1227,2,V,8.0
V8,40.0,47.0,59.0,66.0,41.0,66.0,2800.0,square3,j,0.0897,2,V,8.0
V8,41.0,42.0,56.0,69.0,42.0,69.0,2869.0,square3,j,0.1697,2,V,8.0
V8,42.0,47.0,57.0,72.0,35.0,72.0,2941.0,square3,j,0.0668,2,V,8.0
V8,43.0,47.0,57.0,63.0,44.0,63.0,3004.0,square3,j,0.03,2,V,8.0
V8,44.0,45.0,58.0,67.0,42.0,67.0,3071.0,square3,j,0.0548,2,V,8.0
V8,45.0,44.0,56.0,66.0,43.0,66.0,3137.0,square3,j,0.079,2,V,8.0
V8,46.0,46.0,53.0,70.0,37.0,70.0,3207.0,square3,j,0.1666,2,V,8.0
V8,47.0,54.0,53.0,71.0,41.0,71.0,3278.0,square3,j,0.0571,2,V,8.0
V8,48.0,49.0,53.0,69.0,37.0,69.0,3347.0,square3,j,0.1273,2,V,8.0
V8,49.0,39.0,57.0,65.0,47.0,65.0,3412.0,square3,j,0.0929,2,V,8.0
V8,50.0,48.0,55.0,65.0,41.0,65.0,3477.0,square3,j,0.0514,2,V,8.0
V8,51.0,45.0,61.0,68.0,43.0,68.0,3545.0,square3,j,0.6606,2,V,8.0
V8,52.0,53.0,52.0,68.0,37.0,68.0,3613.0,square3,j,0.183,2,V,8.0
V8,53.0,47.0,55.0,66.0,46.0,66.0,3679.0,square3,j,0.2305,2,V,8.0
V8,54.0,49.0,53.0,61.0,39.0,61.0,3740.0,square3,j,0.1169,2,V,8.0
V8,55.0,53.0,70.0,55.0,72.0,55.0,3795.0,square3,j,0.1604,2,V,8.0
V8,56.0,57.0,63.0,48.0,73.0,48.0,3843.0,square3,j,0.1395,2,V,8.0
V8,57.0,53.0,71.0,45.0,80.0,71.0,3914.0,square2,i,0.2063,1,V,8.0
V8,58.0,57.0,69.0,52.0,73.0,69.0,3983.0,square2,i,0.2239,1,V,8.0
V8,59.0,58.0,67.0,54.0,73.0,67.0,4050.0,square2,i,0.2247,1,V,8.0
V8,60.0,55.0,66.0,47.0,76.0,66.0,4116.0,square2,i,0.1861,1,V,8.0
V8,61.0,56.0,65.0,54.0,72.0,56.0,4172.0,square1,r,0.1979,0,V,8.0
V8,62.0,56.0,65.0,49.0,75.0,75.0,4247.0,square4,f,0.1026,3,V,8.0
V8,63.0,61.0,65.0,44.0,78.0,78.0,4325.0,square4,f,0.1577,3,V,8.0
V8,64.0,54.0,66.0,48.0,75.0,75.0,4400.0,square4,f,0.2121,3,V,8.0
V8,65.0,59.0,65.0,46.0,79.0,79.0,4479.0,square4,f,0.1577,3,V,8.0
V8,66.0,51.0,62.0,46.0,73.0,73.0,4552.0,square4,f,0.1455,3,V,8.0
V8,67.0,60.0,70.0,45.0,76.0,76.0,4628.0,square4,f,0.2078,3,V,8.0
V8,68.0,63.0,64.0,47.0,73.0,73.0,4701.0,square4,f,0.1543,3,V,8.0
V8,69.0,58.0,66.0,43.0,77.0,77.0,4778.0,square4,f,0.2181,3,V,8.0
V8,70.0,59.0,65.0,49.0,73.0,73.0,4851.0,square4,f,0.0608,3,V,8.0
V8,71.0,60.0,64.0,49.0,79.0,79.0,4930.0,square4,f,0.1515,3,V,8.0
V8,72.0,96.0,68.0,78.0,67.0,67.0,4997.0,square4,f,0.1943,3,V,8.0
V8,73.0,96.0,68.0,79.0,64.0,64.0,5061.0,square4,f,0.1351,3,V,8.0
V8,74.0,92.0,67.0,81.0,62.0,67.0,5128.0,square2,i,0.1552,1,V,8.0
V8,75.0,96.0,72.0,83.0,62.0,72.0,5200.0,square2,i,0.2187,1,V,8.0
V8,76.0,94.0,70.0,77.0,57.0,70.0,5270.0,square2,i,0.2971,1,V,8.0
V8,77.0,91.0,68.0,81.0,59.0,68.0,5338.0,square2,i,0.1239,1,V,8.0
V8,78.0,90.0,73.0,80.0,63.0,63.0,5401.0,square4,f,0.1011,3,V,8.0
V8,79.0,90.0,73.0,83.0,61.0,73.0,5474.0,square2,i,0.1577,1,V,8.0
V8,80.0,95.0,75.0,81.0,66.0,75.0,5549.0,square2,i,0.1903,1,V,8.0
V8,81.0,92.0,72.0,81.0,57.0,72.0,5621.0,square2,i,0.1412,1,V,8.0
V8,82.0,91.0,71.0,80.0,61.0,71.0,5692.0,square2,i,0.0264,1,V,8.0
V8,83.0,90.0,66.0,83.0,62.0,66.0,5758.0,square2,i,0.0734,1,V,8.0
V8,84.0,93.0,67.0,87.0,65.0,67.0,5825.0,square2,i,0.4318,1,V,8.0
V8,85.0,85.0,70.0,80.0,62.0,62.0,5887.0,square4,f,0.1953,3,V,8.0
V8,86.0,84.0,72.0,85.0,62.0,85.0,5972.0,square3,j,0.1938,2,V,8.0
V8,87.0,91.0,68.0,82.0,65.0,82.0,6054.0,square3,j,0.1877,2,V,8.0
V8,88.0,93.0,67.0,83.0,61.0,83.0,6137.0,square3,j,0.1934,2,V,8.0
V8,89.0,95.0,68.0,78.0,66.0,78.0,6215.0,square3,j,0.2128,2,V,8.0
V8,90.0,91.0,73.0,80.0,60.0,80.0,6295.0,square3,j,0.2005,2,V,8.0
V8,91.0,93.0,68.0,81.0,64.0,81.0,6376.0,square3,j,0.2362,2,V,8.0
V8,92.0,90.0,75.0,82.0,67.0,82.0,6458.0,square3,j,0.1876,2,V,8.0
V8,93.0,92.0,70.0,82.0,66.0,82.0,6540.0,square3,j,0.1613,2,V,8.0
V8,94.0,90.0,71.0,78.0,63.0,78.0,6618.0,square3,j,0.0029,2,V,8.0
V8,95.0,88.0,65.0,78.0,63.0,78.0,6696.0,square3,j,0.1995,2,V,8.0
V8,96.0,89.0,72.0,85.0,62.0,72.0,6768.0,square2,i,0.2424,1,V,8.0
V8,97.0,92.0,72.0,77.0,67.0,77.0,6845.0,square3,j,0.1277,2,V,8.0
V8,98.0,86.0,63.0,82.0,62.0,82.0,6927.0,square3,j,0.2117,2,V,8.0
V8,99.0,90.0,66.0,75.0,61.0,75.0,7002.0,square3,j,0.3301,2,V,8.0
V11,0.0,42.0,67.0,57.0,49.0,49.0,49.0,square4,i,0.9025,3,V,11.0
V11,1.0,42.0,71.0,60.0,53.0,71.0,120.0,square2,j,0.1655,1,V,11.0
V11,2.0,45.0,76.0,58.0,51.0,58.0,178.0,square3,r,0.2052,2,V,11.0
V11,3.0,44.0,65.0,60.0,49.0,44.0,222.0,square1,f,0.0845,0,V,11.0
V11,4.0,46.0,73.0,64.0,51.0,73.0,295.0,square2,j,0.0849,1,V,11.0
V11,5.0,47.0,67.0,58.0,54.0,67.0,362.0,square2,j,0.1635,1,V,11.0
V11,6.0,43.0,68.0,58.0,50.0,68.0,430.0,square2,j,0.1458,1,V,11.0
V11,7.0,42.0,67.0,60.0,58.0,67.0,497.0,square2,j,0.1362,1,V,11.0
V11,8.0,44.0,67.0,60.0,53.0,67.0,564.0,square2,j,0.2256,1,V,11.0
V11,9.0,44.0,67.0,59.0,54.0,67.0,631.0,square2,j,0.1616,1,V,11.0
V11,10.0,49.0,76.0,57.0,52.0,52.0,683.0,square4,i,0.1831,3,V,11.0
V11,11.0,45.0,71.0,58.0,51.0,71.0,754.0,square2,j,0.1512,1,V,11.0
V11,12.0,45.0,72.0,58.0,56.0,72.0,826.0,square2,j,0.1273,1,V,11.0
V11,13.0,49.0,67.0,63.0,54.0,67.0,893.0,square2,j,0.2245,1,V,11.0
V11,14.0,50.0,75.0,57.0,48.0,75.0,968.0,square2,j,0.1292,1,V,11.0
V11,15.0,40.0,71.0,61.0,51.0,71.0,1039.0,square2,j,0.1821,1,V,11.0
V11,16.0,47.0,72.0,56.0,54.0,72.0,1111.0,square2,j,0.0118,1,V,11.0
V11,17.0,40.0,71.0,61.0,46.0,71.0,1182.0,square2,j,0.2084,1,V,11.0
V11,18.0,44.0,69.0,59.0,51.0,69.0,1251.0,square2,j,0.0302,1,V,11.0
V11,19.0,44.0,73.0,59.0,47.0,73.0,1324.0,square2,j,0.1032,1,V,11.0
V11,20.0,47.0,69.0,64.0,54.0,69.0,1393.0,square2,j,1.0967,1,V,11.0
V11,21.0,78.0,49.0,70.0,65.0,49.0,1442.0,square2,j,0.5223,1,V,11.0
V11,22.0,78.0,56.0,73.0,62.0,56.0,1498.0,square2,j,0.1761,1,V,11.0
V11,23.0,84.0,54.0,71.0,65.0,65.0,1563.0,square4,i,0.3759,3,V,11.0
V11,24.0,80.0,55.0,72.0,67.0,67.0,1630.0,square4,i,0.2243,3,V,11.0
V11,25.0,80.0,55.0,75.0,63.0,63.0,1693.0,square4,i,0.0846,3,V,11.0
V11,26.0,80.0,56.0,67.0,62.0,67.0,1760.0,square3,r,0.3584,2,V,11.0
V11,27.0,80.0,51.0,68.0,62.0,68.0,1828.0,square3,r,0.2123,2,V,11.0
V11,28.0,79.0,57.0,67.0,57.0,67.0,1895.0,square3,r,0.1633,2,V,11.0
V11,29.0,79.0,50.0,67.0,62.0,79.0,1974.0,square1,f,0.2602,0,V,11.0
V11,30.0,88.0,54.0,74.0,61.0,88.0,2062.0,square1,f,0.085,0,V,11.0
V11,31.0,81.0,51.0,75.0,63.0,81.0,2143.0,square1,f,0.1789,0,V,11.0
V11,32.0,76.0,51.0,69.0,65.0,76.0,2219.0,square1,f,0.1778,0,V,11.0
V11,33.0,78.0,54.0,72.0,64.0,78.0,2297.0,square1,f,0.0913,0,V,11.0
V11,34.0,77.0,53.0,71.0,62.0,77.0,2374.0,square1,f,0.2111,0,V,11.0
V11,35.0,74.0,59.0,75.0,62.0,74.0,2448.0,square1,f,0.1823,0,V,11.0
V11,36.0,79.0,50.0,72.0,62.0,79.0,2527.0,square1,f,0.166,0,V,11.0
V11,37.0,74.0,54.0,68.0,62.0,74.0,2601.0,square1,f,0.0492,0,V,11.0
V11,38.0,80.0,57.0,65.0,58.0,80.0,2681.0,square1,f,0.1456,0,V,11.0
V11,39.0,73.0,52.0,75.0,66.0,73.0,2754.0,square1,f,0.1275,0,V,11.0
V11,40.0,82.0,57.0,71.0,57.0,71.0,2825.0,square3,r,0.0809,2,V,11.0
V11,41.0,78.0,53.0,73.0,64.0,53.0,2878.0,square2,j,0.1105,1,V,11.0
V11,42.0,72.0,56.0,67.0,59.0,59.0,2937.0,square4,i,0.0916,3,V,11.0
V11,43.0,81.0,54.0,73.0,63.0,73.0,3010.0,square3,r,0.535,2,V,11.0
V11,44.0,76.0,54.0,75.0,59.0,76.0,3086.0,square1,f,0.1367,0,V,11.0
V11,45.0,79.0,59.0,71.0,64.0,79.0,3165.0,square1,f,0.177,0,V,11.0
V11,46.0,80.0,55.0,67.0,57.0,80.0,3245.0,square1,f,0.2126,0,V,11.0
V11,47.0,84.0,53.0,75.0,56.0,84.0,3329.0,square1,f,0.1355,0,V,11.0
V11,48.0,83.0,57.0,71.0,60.0,83.0,3412.0,square1,f,0.1961,0,V,11.0
V11,49.0,79.0,52.0,71.0,60.0,79.0,3491.0,square1,f,0.0887,0,V,11.0
V11,50.0,76.0,50.0,69.0,60.0,76.0,3567.0,square1,f,1.03,0,V,11.0
V11,51.0,79.0,54.0,72.0,57.0,79.0,3646.0,square1,f,0.0487,0,V,11.0
V11,52.0,80.0,54.0,72.0,64.0,80.0,3726.0,square1,f,0.0607,0,V,11.0
V11,53.0,35.0,50.0,55.0,69.0,35.0,3761.0,square1,f,0.6737,0,V,11.0
V11,54.0,45.0,48.0,55.0,73.0,45.0,3806.0,square1,f,0.4366,0,V,11.0
V11,55.0,43.0,53.0,58.0,70.0,58.0,3864.0,square3,r,0.1841,2,V,11.0
V11,56.0,40.0,46.0,60.0,62.0,46.0,3910.0,square2,j,1.3208,1,V,11.0
V11,57.0,44.0,46.0,53.0,71.0,71.0,3981.0,square4,i,0.2121,3,V,11.0
V11,58.0,44.0,52.0,55.0,68.0,68.0,4049.0,square4,i,0.2302,3,V,11.0
V11,59.0,44.0,44.0,57.0,66.0,66.0,4115.0,square4,i,0.2666,3,V,11.0
V11,60.0,40.0,46.0,57.0,62.0,62.0,4177.0,square4,i,0.2486,3,V,11.0
V11,61.0,42.0,52.0,58.0,62.0,62.0,4239.0,square4,i,0.1876,3,V,11.0
V11,62.0,40.0,49.0,56.0,71.0,56.0,4295.0,square3,r,0.2028,2,V,11.0
V11,63.0,40.0,54.0,60.0,66.0,66.0,4361.0,square4,i,0.1332,3,V,11.0
V11,64.0,41.0,43.0,51.0,66.0,41.0,4402.0,square1,f,0.1651,0,V,11.0
V11,65.0,39.0,48.0,59.0,66.0,48.0,4450.0,square2,j,0.1844,1,V,11.0
V11,66.0,40.0,48.0,59.0,69.0,69.0,4519.0,square4,i,0.2484,3,V,11.0
V11,67.0,46.0,45.0,58.0,69.0,69.0,4588.0,square4,i,0.4305,3,V,11.0
V11,68.0,41.0,50.0,56.0,69.0,69.0,4657.0,square4,i,0.2242,3,V,11.0
V11,69.0,48.0,49.0,57.0,71.0,71.0,4728.0,square4,i,0.1513,3,V,11.0
V11,70.0,41.0,47.0,58.0,65.0,65.0,4793.0,square4,i,0.2608,3,V,11.0
V11,71.0,37.0,46.0,58.0,60.0,60.0,4853.0,square4,i,0.2015,3,V,11.0
V11,72.0,41.0,47.0,54.0,65.0,65.0,4918.0,square4,i,0.2244,3,V,11.0
V11,73.0,42.0,47.0,60.0,67.0,67.0,4985.0,square4,i,0.2542,3,V,11.0
V11,74.0,43.0,49.0,57.0,64.0,64.0,5049.0,square4,i,0.2193,3,V,11.0
V11,75.0,38.0,46.0,57.0,66.0,66.0,5115.0,square4,i,0.1698,3,V,11.0
V11,76.0,42.0,50.0,58.0,68.0,42.0,5157.0,square1,f,0.1516,0,V,11.0
V11,77.0,36.0,49.0,58.0,64.0,58.0,5215.0,square3,r,0.121,2,V,11.0
V11,78.0,40.0,50.0,56.0,67.0,67.0,5282.0,square4,i,0.0631,3,V,11.0
V11,79.0,39.0,48.0,56.0,67.0,67.0,5349.0,square4,i,0.218,3,V,11.0
V11,80.0,51.0,33.0,30.0,45.0,45.0,5394.0,square4,i,0.1964,3,V,11.0
V11,81.0,49.0,31.0,23.0,48.0,48.0,5442.0,square4,i,0.2058,3,V,11.0
V11,82.0,55.0,30.0,25.0,42.0,42.0,5484.0,square4,i,0.1819,3,V,11.0
V11,83.0,50.0,33.0,27.0,48.0,33.0,5517.0,square2,j,0.1515,1,V,11.0
V11,84.0,52.0,34.0,25.0,43.0,52.0,5569.0,square1,f,0.0484,0,V,11.0
V11,85.0,49.0,28.0,28.0,44.0,28.0,5597.0,square3,r,0.1957,2,V,11.0
V11,86.0,57.0,29.0,27.0,48.0,48.0,5645.0,square4,i,0.1152,3,V,11.0
V11,87.0,49.0,29.0,21.0,38.0,49.0,5694.0,square1,f,0.1391,0,V,11.0
V11,88.0,55.0,32.0,29.0,46.0,55.0,5749.0,square1,f,0.1884,0,V,11.0
V11,89.0,50.0,28.0,23.0,43.0,50.0,5799.0,square1,f,0.1951,0,V,11.0
V11,90.0,54.0,34.0,32.0,41.0,54.0,5853.0,square1,f,0.0665,0,V,11.0
V11,91.0,50.0,34.0,26.0,44.0,44.0,5897.0,square4,i,0.1325,3,V,11.0
V11,92.0,51.0,31.0,27.0,50.0,51.0,5948.0,square1,f,0.4982,0,V,11.0
V11,93.0,49.0,38.0,28.0,42.0,49.0,5997.0,square1,f,0.1058,0,V,11.0
V11,94.0,50.0,29.0,25.0,46.0,46.0,6043.0,square4,i,0.2426,3,V,11.0
V11,95.0,51.0,36.0,22.0,40.0,51.0,6094.0,square1,f,0.1285,0,V,11.0
V11,96.0,52.0,34.0,32.0,45.0,52.0,6146.0,square1,f,0.1549,0,V,11.0
V11,97.0,53.0,27.0,32.0,44.0,53.0,6199.0,square1,f,0.1091,0,V,11.0
V11,98.0,60.0,31.0,25.0,48.0,60.0,6259.0,square1,f,0.1334,0,V,11.0
V11,99.0,53.0,33.0,23.0,42.0,53.0,6312.0,square1,f,0.2357,0,V,11.0
