block,Trial,square1,square2,square3,square4,currPoints,totalPoints,square,choiceKey.keys,choiceKey.rt,armNum,blockType,blockNum
prac,0.0,100.0,0.0,0.0,0.0,99999,0.0,invalid,,,-1,p,0.0
prac,1.0,100.0,0.0,0.0,0.0,99999,0.0,invalid,,,-1,p,0.0
prac,2.0,100.0,0.0,0.0,0.0,99999,0.0,invalid,,,-1,p,0.0
prac,3.0,100.0,0.0,0.0,0.0,99999,0.0,invalid,,,-1,p,0.0
prac,4.0,100.0,0.0,0.0,0.0,99999,0.0,invalid,,,-1,p,0.0
prac,5.0,100.0,0.0,0.0,0.0,100,100.0,square1,,,0,p,0.0
prac,6.0,100.0,0.0,0.0,0.0,100,200.0,square1,,,0,p,0.0
prac,7.0,100.0,0.0,0.0,0.0,100,300.0,square1,,,0,p,0.0
prac,8.0,100.0,0.0,0.0,0.0,100,400.0,square1,,,0,p,0.0
prac,9.0,100.0,0.0,0.0,0.0,100,500.0,square1,,,0,p,0.0
NS4,0.0,55.0,53.0,59.0,44.0,59,59.0,square3,i,1.496,2,N,4.0
NS4,1.0,49.0,56.0,64.0,41.0,41,100.0,square4,j,0.3993,3,N,4.0
NS4,2.0,50.0,54.0,71.0,48.0,50,150.0,square1,f,0.3433,0,N,4.0
NS4,3.0,53.0,58.0,67.0,50.0,58,208.0,square2,r,1.7412,1,N,4.0
NS4,4.0,49.0,51.0,70.0,55.0,70,278.0,square3,i,0.028,2,N,4.0
NS4,5.0,55.0,59.0,73.0,58.0,73,351.0,square3,i,0.107,2,N,4.0
NS4,6.0,56.0,54.0,71.0,57.0,71,422.0,square3,i,0.0183,2,N,4.0
NS4,7.0,60.0,54.0,75.0,52.0,75,497.0,square3,i,0.0507,2,N,4.0
NS4,8.0,58.0,53.0,74.0,52.0,74,571.0,square3,i,0.051,2,N,4.0
NS4,9.0,46.0,48.0,78.0,51.0,78,649.0,square3,i,0.0414,2,N,4.0
NS4,10.0,55.0,48.0,78.0,51.0,55,704.0,square1,f,0.0166,0,N,4.0
NS4,11.0,55.0,44.0,79.0,49.0,44,748.0,square2,r,0.1312,1,N,4.0
NS4,12.0,50.0,40.0,79.0,50.0,79,827.0,square3,i,0.0843,2,N,4.0
NS4,13.0,45.0,39.0,79.0,53.0,53,880.0,square4,j,0.0082,3,N,4.0
NS4,14.0,44.0,38.0,77.0,56.0,77,957.0,square3,i,0.0667,2,N,4.0
NS4,15.0,45.0,32.0,68.0,52.0,68,1025.0,square3,i,0.0794,2,N,4.0
NS4,16.0,49.0,32.0,74.0,53.0,74,1099.0,square3,i,0.0669,2,N,4.0
NS4,17.0,45.0,32.0,69.0,51.0,69,1168.0,square3,i,0.1065,2,N,4.0
NS4,18.0,50.0,34.0,69.0,47.0,69,1237.0,square3,i,0.1252,2,N,4.0
NS4,19.0,50.0,36.0,65.0,53.0,65,1302.0,square3,i,0.3508,2,N,4.0
NS4,20.0,45.0,36.0,62.0,53.0,62,1364.0,square3,i,0.1421,2,N,4.0
NS4,21.0,49.0,35.0,62.0,55.0,62,1426.0,square3,i,0.1759,2,N,4.0
NS4,22.0,53.0,32.0,61.0,60.0,61,1487.0,square3,i,0.1506,2,N,4.0
NS4,23.0,52.0,33.0,58.0,54.0,58,1545.0,square3,i,0.1091,2,N,4.0
NS4,24.0,48.0,32.0,52.0,60.0,52,1597.0,square3,i,0.013,2,N,4.0
NS4,25.0,47.0,30.0,53.0,57.0,53,1650.0,square3,i,0.1129,2,N,4.0
NS4,26.0,50.0,30.0,60.0,55.0,55,1705.0,square4,j,0.5775,3,N,4.0
NS4,27.0,50.0,28.0,62.0,47.0,47,1752.0,square4,j,0.1574,3,N,4.0
NS4,28.0,54.0,28.0,58.0,49.0,54,1806.0,square1,f,0.279,0,N,4.0
NS4,29.0,44.0,29.0,50.0,49.0,29,1835.0,square2,r,1.8834,1,N,4.0
NS4,30.0,43.0,26.0,55.0,57.0,43,1878.0,square1,f,0.0008,0,N,4.0
NS4,31.0,43.0,25.0,60.0,54.0,60,1938.0,square3,i,0.0503,2,N,4.0
NS4,32.0,34.0,27.0,58.0,56.0,58,1996.0,square3,i,0.0007,2,N,4.0
NS4,33.0,34.0,20.0,60.0,62.0,60,2056.0,square3,i,0.0449,2,N,4.0
NS4,34.0,38.0,28.0,58.0,57.0,58,2114.0,square3,i,0.1659,2,N,4.0
NS4,35.0,40.0,24.0,63.0,59.0,59,2173.0,square4,j,0.1512,3,N,4.0
NS4,36.0,36.0,30.0,56.0,63.0,63,2236.0,square4,j,0.1666,3,N,4.0
NS4,37.0,40.0,29.0,54.0,63.0,63,2299.0,square4,j,0.1434,3,N,4.0
NS4,38.0,40.0,33.0,53.0,69.0,53,2352.0,square3,i,0.1019,2,N,4.0
NS4,39.0,36.0,30.0,57.0,67.0,67,2419.0,square4,j,0.0686,3,N,4.0
NS4,40.0,33.0,33.0,58.0,68.0,68,2487.0,square4,j,0.0121,3,N,4.0
NS4,41.0,34.0,28.0,58.0,72.0,72,2559.0,square4,j,0.1117,3,N,4.0
NS4,42.0,35.0,30.0,60.0,70.0,70,2629.0,square4,j,0.1851,3,N,4.0
NS4,43.0,35.0,34.0,57.0,63.0,63,2692.0,square4,j,0.1754,3,N,4.0
NS4,44.0,30.0,32.0,59.0,69.0,59,2751.0,square3,i,0.1628,2,N,4.0
NS4,45.0,29.0,31.0,60.0,66.0,29,2780.0,square1,f,0.0329,0,N,4.0
NS4,46.0,35.0,34.0,66.0,66.0,34,2814.0,square2,r,0.0077,1,N,4.0
NS4,47.0,35.0,28.0,63.0,62.0,63,2877.0,square3,i,0.0164,2,N,4.0
NS4,48.0,37.0,37.0,61.0,55.0,55,2932.0,square4,j,0.1721,3,N,4.0
NS4,49.0,40.0,34.0,59.0,54.0,59,2991.0,square3,i,0.1872,2,N,4.0
NS4,50.0,39.0,38.0,68.0,51.0,68,3059.0,square3,i,0.4758,2,N,4.0
NS4,51.0,46.0,28.0,69.0,48.0,69,3128.0,square3,i,0.167,2,N,4.0
NS4,52.0,40.0,34.0,62.0,49.0,62,3190.0,square3,i,0.1426,2,N,4.0
NS4,53.0,39.0,34.0,63.0,48.0,63,3253.0,square3,i,0.0248,2,N,4.0
NS4,54.0,44.0,31.0,58.0,47.0,58,3311.0,square3,i,0.188,2,N,4.0
NS4,55.0,42.0,30.0,68.0,46.0,68,3379.0,square3,i,0.0717,2,N,4.0
NS4,56.0,36.0,25.0,69.0,44.0,69,3448.0,square3,i,0.1334,2,N,4.0
NS4,57.0,35.0,29.0,71.0,46.0,71,3519.0,square3,i,0.0007,2,N,4.0
NS4,58.0,43.0,28.0,68.0,47.0,68,3587.0,square3,i,0.01,2,N,4.0
NS4,59.0,43.0,27.0,67.0,43.0,43,3630.0,square4,j,0.0367,3,N,4.0
NS4,60.0,40.0,25.0,72.0,46.0,72,3702.0,square3,i,0.2087,2,N,4.0
NS4,61.0,39.0,32.0,63.0,43.0,63,3765.0,square3,i,0.1413,2,N,4.0
NS4,62.0,39.0,29.0,61.0,39.0,61,3826.0,square3,i,0.0243,2,N,4.0
NS4,63.0,41.0,28.0,59.0,40.0,59,3885.0,square3,i,0.1887,2,N,4.0
NS4,64.0,41.0,31.0,57.0,51.0,57,3942.0,square3,i,0.0008,2,N,4.0
NS4,65.0,46.0,36.0,59.0,58.0,59,4001.0,square3,i,0.193,2,N,4.0
NS4,66.0,45.0,36.0,53.0,46.0,53,4054.0,square3,i,0.034,2,N,4.0
NS4,67.0,40.0,34.0,49.0,46.0,49,4103.0,square3,i,0.1654,2,N,4.0
NS4,68.0,43.0,37.0,48.0,48.0,48,4151.0,square3,i,0.1297,2,N,4.0
NS4,69.0,42.0,36.0,44.0,56.0,42,4193.0,square1,f,1.8624,0,N,4.0
NS4,70.0,40.0,38.0,47.0,58.0,38,4231.0,square2,r,1.9017,1,N,4.0
NS4,71.0,36.0,34.0,42.0,63.0,63,4294.0,square4,j,0.4434,3,N,4.0
NS4,72.0,38.0,36.0,36.0,66.0,36,4330.0,square3,i,1.0766,2,N,4.0
NS4,73.0,36.0,40.0,40.0,66.0,66,4396.0,square4,j,0.1747,3,N,4.0
NS4,74.0,31.0,38.0,46.0,67.0,31,4427.0,square1,f,0.388,0,N,4.0
NS4,75.0,40.0,33.0,42.0,64.0,33,4460.0,square2,r,0.0675,1,N,4.0
NS4,76.0,38.0,35.0,42.0,64.0,64,4524.0,square4,j,0.0694,3,N,4.0
NS4,77.0,40.0,35.0,39.0,66.0,66,4590.0,square4,j,0.1257,3,N,4.0
NS4,78.0,40.0,33.0,38.0,68.0,68,4658.0,square4,j,0.093,3,N,4.0
NS4,79.0,40.0,38.0,31.0,70.0,70,4728.0,square4,j,0.3426,3,N,4.0
NS4,80.0,37.0,35.0,33.0,73.0,73,4801.0,square4,j,0.0183,3,N,4.0
NS4,81.0,34.0,35.0,30.0,70.0,70,4871.0,square4,j,0.1087,3,N,4.0
NS4,82.0,35.0,37.0,31.0,66.0,66,4937.0,square4,j,0.017,3,N,4.0
NS4,83.0,42.0,32.0,28.0,67.0,67,5004.0,square4,j,0.0667,3,N,4.0
NS4,84.0,38.0,35.0,30.0,68.0,68,5072.0,square4,j,0.0502,3,N,4.0
NS4,85.0,43.0,35.0,32.0,64.0,64,5136.0,square4,j,0.1616,3,N,4.0
NS4,86.0,49.0,35.0,32.0,70.0,70,5206.0,square4,j,0.0037,3,N,4.0
NS4,87.0,48.0,34.0,32.0,69.0,32,5238.0,square3,i,0.1332,2,N,4.0
NS4,88.0,50.0,35.0,30.0,64.0,64,5302.0,square4,j,0.1675,3,N,4.0
NS4,89.0,48.0,34.0,32.0,68.0,68,5370.0,square4,j,0.0121,3,N,4.0
NS4,90.0,53.0,29.0,27.0,68.0,68,5438.0,square4,j,0.0843,3,N,4.0
NS4,91.0,54.0,27.0,34.0,68.0,68,5506.0,square4,j,0.0359,3,N,4.0
NS4,92.0,52.0,20.0,35.0,69.0,52,5558.0,square1,f,0.4762,0,N,4.0
NS4,93.0,42.0,15.0,33.0,68.0,15,5573.0,square2,r,0.7441,1,N,4.0
NS4,94.0,40.0,24.0,37.0,72.0,72,5645.0,square4,j,0.0371,3,N,4.0
NS4,95.0,43.0,25.0,43.0,69.0,69,5714.0,square4,j,0.0831,3,N,4.0
NS4,96.0,41.0,29.0,43.0,74.0,74,5788.0,square4,j,0.0254,3,N,4.0
NS4,97.0,46.0,32.0,42.0,78.0,78,5866.0,square4,j,0.0278,3,N,4.0
NS4,98.0,48.0,26.0,46.0,75.0,75,5941.0,square4,j,0.1161,3,N,4.0
NS4,99.0,46.0,27.0,45.0,71.0,71,6012.0,square4,j,0.0966,3,N,4.0
NS2,0.0,44.0,66.0,42.0,38.0,44,44.0,square1,i,0.5778,0,N,2.0
NS2,1.0,44.0,66.0,47.0,43.0,66,110.0,square2,j,0.4663,1,N,2.0
NS2,2.0,42.0,62.0,53.0,43.0,43,153.0,square4,f,0.0792,3,N,2.0
NS2,3.0,46.0,58.0,48.0,46.0,48,201.0,square3,r,0.3338,2,N,2.0
NS2,4.0,47.0,61.0,51.0,42.0,61,262.0,square2,j,0.0917,1,N,2.0
NS2,5.0,51.0,58.0,50.0,50.0,58,320.0,square2,j,0.1202,1,N,2.0
NS2,6.0,52.0,58.0,43.0,48.0,58,378.0,square2,j,0.108,1,N,2.0
NS2,7.0,50.0,52.0,43.0,50.0,52,430.0,square2,j,0.4924,1,N,2.0
NS2,8.0,54.0,58.0,41.0,46.0,58,488.0,square2,j,0.1435,1,N,2.0
NS2,9.0,52.0,59.0,42.0,46.0,59,547.0,square2,j,0.0828,1,N,2.0
NS2,10.0,50.0,52.0,37.0,48.0,52,599.0,square2,j,0.1272,1,N,2.0
NS2,11.0,45.0,56.0,38.0,43.0,56,655.0,square2,j,0.1883,1,N,2.0
NS2,12.0,50.0,56.0,37.0,48.0,56,711.0,square2,j,0.0205,1,N,2.0
NS2,13.0,47.0,63.0,36.0,49.0,49,760.0,square4,f,0.4087,3,N,2.0
NS2,14.0,51.0,56.0,39.0,49.0,39,799.0,square3,r,0.0603,2,N,2.0
NS2,15.0,46.0,64.0,39.0,50.0,46,845.0,square1,i,0.1329,0,N,2.0
NS2,16.0,51.0,61.0,37.0,47.0,61,906.0,square2,j,0.0009,1,N,2.0
NS2,17.0,59.0,68.0,46.0,53.0,68,974.0,square2,j,0.2257,1,N,2.0
NS2,18.0,53.0,65.0,42.0,49.0,65,1039.0,square2,j,0.1372,1,N,2.0
NS2,19.0,52.0,67.0,47.0,49.0,67,1106.0,square2,j,0.0165,1,N,2.0
NS2,20.0,56.0,64.0,45.0,48.0,64,1170.0,square2,j,0.1591,1,N,2.0
NS2,21.0,57.0,73.0,46.0,44.0,73,1243.0,square2,j,0.1756,1,N,2.0
NS2,22.0,54.0,76.0,36.0,47.0,76,1319.0,square2,j,0.1074,1,N,2.0
NS2,23.0,55.0,77.0,35.0,42.0,77,1396.0,square2,j,0.04,1,N,2.0
NS2,24.0,53.0,68.0,35.0,46.0,68,1464.0,square2,j,0.0119,1,N,2.0
NS2,25.0,55.0,73.0,29.0,45.0,73,1537.0,square2,j,0.0553,1,N,2.0
NS2,26.0,52.0,69.0,30.0,49.0,69,1606.0,square2,j,0.0886,1,N,2.0
NS2,27.0,52.0,62.0,33.0,52.0,62,1668.0,square2,j,0.2,1,N,2.0
NS2,28.0,58.0,62.0,33.0,47.0,62,1730.0,square2,j,0.19,1,N,2.0
NS2,29.0,56.0,65.0,38.0,46.0,65,1795.0,square2,j,0.0169,1,N,2.0
NS2,30.0,56.0,66.0,37.0,50.0,66,1861.0,square2,j,0.1845,1,N,2.0
NS2,31.0,50.0,64.0,35.0,45.0,50,1911.0,square1,i,0.1954,0,N,2.0
NS2,32.0,56.0,62.0,38.0,45.0,38,1949.0,square3,r,1.4661,2,N,2.0
NS2,33.0,59.0,58.0,34.0,48.0,48,1997.0,square4,f,1.635,3,N,2.0
NS2,34.0,55.0,59.0,36.0,48.0,59,2056.0,square2,j,0.1107,1,N,2.0
NS2,35.0,54.0,57.0,33.0,48.0,57,2113.0,square2,j,0.0893,1,N,2.0
NS2,36.0,53.0,58.0,34.0,51.0,58,2171.0,square2,j,0.241,1,N,2.0
NS2,37.0,46.0,53.0,32.0,55.0,53,2224.0,square2,j,0.3818,1,N,2.0
NS2,38.0,46.0,59.0,37.0,49.0,59,2283.0,square2,j,0.0423,1,N,2.0
NS2,39.0,53.0,59.0,36.0,48.0,59,2342.0,square2,j,0.494,1,N,2.0
NS2,40.0,46.0,60.0,37.0,42.0,60,2402.0,square2,j,0.1574,1,N,2.0
NS2,41.0,51.0,57.0,42.0,41.0,57,2459.0,square2,j,0.0182,1,N,2.0
NS2,42.0,49.0,53.0,46.0,41.0,53,2512.0,square2,j,0.4579,1,N,2.0
NS2,43.0,49.0,57.0,43.0,39.0,49,2561.0,square1,i,0.0084,0,N,2.0
NS2,44.0,48.0,55.0,48.0,37.0,55,2616.0,square2,j,0.0915,1,N,2.0
NS2,45.0,49.0,52.0,34.0,36.0,34,2650.0,square3,r,0.083,2,N,2.0
NS2,46.0,50.0,46.0,39.0,34.0,34,2684.0,square4,f,0.2742,3,N,2.0
NS2,47.0,55.0,48.0,39.0,26.0,48,2732.0,square2,j,0.0344,1,N,2.0
NS2,48.0,55.0,42.0,41.0,31.0,42,2774.0,square2,j,0.1681,1,N,2.0
NS2,49.0,55.0,41.0,36.0,36.0,41,2815.0,square2,j,0.0339,1,N,2.0
NS2,50.0,50.0,43.0,43.0,36.0,43,2858.0,square2,j,0.1746,1,N,2.0
NS2,51.0,49.0,40.0,44.0,32.0,40,2898.0,square2,j,0.0108,1,N,2.0
NS2,52.0,54.0,45.0,40.0,32.0,45,2943.0,square2,j,0.0585,1,N,2.0
NS2,53.0,55.0,44.0,42.0,38.0,44,2987.0,square2,j,0.1906,1,N,2.0
NS2,54.0,57.0,44.0,42.0,37.0,44,3031.0,square2,j,0.001,1,N,2.0
NS2,55.0,56.0,47.0,35.0,29.0,47,3078.0,square2,j,0.2104,1,N,2.0
NS2,56.0,56.0,45.0,31.0,36.0,56,3134.0,square1,i,0.1081,0,N,2.0
NS2,57.0,48.0,43.0,33.0,36.0,48,3182.0,square1,i,0.0854,0,N,2.0
NS2,58.0,46.0,44.0,30.0,40.0,30,3212.0,square3,r,0.0344,2,N,2.0
NS2,59.0,45.0,36.0,33.0,37.0,37,3249.0,square4,f,0.0284,3,N,2.0
NS2,60.0,45.0,37.0,32.0,38.0,45,3294.0,square1,i,0.1292,0,N,2.0
NS2,61.0,47.0,37.0,31.0,37.0,37,3331.0,square2,j,0.1496,1,N,2.0
NS2,62.0,46.0,36.0,28.0,34.0,46,3377.0,square1,i,0.1896,0,N,2.0
NS2,63.0,53.0,36.0,26.0,43.0,53,3430.0,square1,i,0.0175,0,N,2.0
NS2,64.0,53.0,37.0,24.0,45.0,53,3483.0,square1,i,0.0503,0,N,2.0
NS2,65.0,49.0,34.0,27.0,49.0,49,3532.0,square1,i,0.0528,0,N,2.0
NS2,66.0,50.0,30.0,26.0,57.0,50,3582.0,square1,i,0.0116,0,N,2.0
NS2,67.0,49.0,28.0,32.0,55.0,49,3631.0,square1,i,0.0835,0,N,2.0
NS2,68.0,53.0,23.0,35.0,55.0,53,3684.0,square1,i,0.0083,0,N,2.0
NS2,69.0,49.0,29.0,33.0,51.0,49,3733.0,square1,i,0.1919,0,N,2.0
NS2,70.0,54.0,27.0,30.0,60.0,54,3787.0,square1,i,0.1908,0,N,2.0
NS2,71.0,57.0,28.0,31.0,59.0,57,3844.0,square1,i,0.0737,0,N,2.0
NS2,72.0,55.0,25.0,29.0,61.0,55,3899.0,square1,i,0.0258,0,N,2.0
NS2,73.0,63.0,29.0,31.0,56.0,63,3962.0,square1,i,0.0877,0,N,2.0
NS2,74.0,59.0,34.0,34.0,58.0,59,4021.0,square1,i,0.0365,0,N,2.0
NS2,75.0,58.0,37.0,31.0,53.0,58,4079.0,square1,i,0.2334,0,N,2.0
NS2,76.0,62.0,41.0,25.0,53.0,41,4120.0,square2,j,0.1479,1,N,2.0
NS2,77.0,60.0,37.0,30.0,52.0,30,4150.0,square3,r,0.2114,2,N,2.0
NS2,78.0,63.0,37.0,37.0,50.0,50,4200.0,square4,f,0.1004,3,N,2.0
NS2,79.0,66.0,44.0,32.0,47.0,66,4266.0,square1,i,0.2114,0,N,2.0
NS2,80.0,65.0,41.0,30.0,45.0,65,4331.0,square1,i,0.0248,0,N,2.0
NS2,81.0,60.0,37.0,26.0,49.0,60,4391.0,square1,i,0.0444,0,N,2.0
NS2,82.0,68.0,38.0,28.0,46.0,68,4459.0,square1,i,0.0804,0,N,2.0
NS2,83.0,63.0,42.0,30.0,49.0,63,4522.0,square1,i,0.2264,0,N,2.0
NS2,84.0,71.0,41.0,37.0,51.0,71,4593.0,square1,i,0.0626,0,N,2.0
NS2,85.0,63.0,47.0,29.0,40.0,63,4656.0,square1,i,0.001,0,N,2.0
NS2,86.0,67.0,42.0,36.0,44.0,67,4723.0,square1,i,0.0253,0,N,2.0
NS2,87.0,62.0,45.0,31.0,41.0,62,4785.0,square1,i,0.1296,0,N,2.0
NS2,88.0,63.0,39.0,32.0,44.0,63,4848.0,square1,i,0.0646,0,N,2.0
NS2,89.0,66.0,39.0,37.0,39.0,66,4914.0,square1,i,0.0453,0,N,2.0
NS2,90.0,53.0,38.0,35.0,40.0,53,4967.0,square1,i,0.111,0,N,2.0
NS2,91.0,57.0,39.0,38.0,43.0,57,5024.0,square1,i,0.0547,0,N,2.0
NS2,92.0,53.0,36.0,40.0,47.0,53,5077.0,square1,i,0.2576,0,N,2.0
NS2,93.0,47.0,39.0,43.0,38.0,39,5116.0,square2,j,0.1087,1,N,2.0
NS2,94.0,45.0,33.0,46.0,40.0,45,5161.0,square1,i,0.144,0,N,2.0
NS2,95.0,49.0,38.0,53.0,36.0,53,5214.0,square3,r,0.1673,2,N,2.0
NS2,96.0,50.0,39.0,46.0,34.0,34,5248.0,square4,f,0.0926,3,N,2.0
NS2,97.0,57.0,37.0,44.0,41.0,44,5292.0,square3,r,0.5829,2,N,2.0
NS2,98.0,55.0,43.0,39.0,43.0,55,5347.0,square1,i,0.7835,0,N,2.0
NS2,99.0,56.0,46.0,41.0,41.0,56,5403.0,square1,i,0.4446,0,N,2.0
NS9,0.0,40.0,33.0,41.0,64.0,64,64.0,square4,r,0.9208,3,N,9.0
NS9,1.0,40.0,19.0,39.0,64.0,39,103.0,square3,i,0.3199,2,N,9.0
NS9,2.0,41.0,16.0,44.0,59.0,41,144.0,square1,j,0.2257,0,N,9.0
NS9,3.0,41.0,19.0,48.0,58.0,19,163.0,square2,f,0.069,1,N,9.0
NS9,4.0,46.0,18.0,45.0,54.0,54,217.0,square4,r,0.0341,3,N,9.0
NS9,5.0,40.0,17.0,53.0,54.0,54,271.0,square4,r,0.0441,3,N,9.0
NS9,6.0,40.0,19.0,47.0,46.0,46,317.0,square4,r,0.1408,3,N,9.0
NS9,7.0,44.0,21.0,51.0,49.0,49,366.0,square4,r,0.0161,3,N,9.0
NS9,8.0,41.0,26.0,44.0,55.0,55,421.0,square4,r,0.0339,3,N,9.0
NS9,9.0,36.0,15.0,44.0,54.0,54,475.0,square4,r,0.0008,3,N,9.0
NS9,10.0,32.0,19.0,48.0,49.0,49,524.0,square4,r,0.1494,3,N,9.0
NS9,11.0,32.0,18.0,50.0,57.0,57,581.0,square4,r,0.01,3,N,9.0
NS9,12.0,32.0,18.0,57.0,52.0,52,633.0,square4,r,0.1907,3,N,9.0
NS9,13.0,32.0,8.0,58.0,56.0,56,689.0,square4,r,0.0577,3,N,9.0
NS9,14.0,28.0,9.0,61.0,55.0,55,744.0,square4,r,0.0107,3,N,9.0
NS9,15.0,31.0,11.0,64.0,48.0,48,792.0,square4,r,0.0015,3,N,9.0
NS9,16.0,34.0,13.0,68.0,47.0,47,839.0,square4,r,0.0318,3,N,9.0
NS9,17.0,37.0,11.0,71.0,54.0,54,893.0,square4,r,0.0266,3,N,9.0
NS9,18.0,35.0,10.0,71.0,50.0,50,943.0,square4,r,0.038,3,N,9.0
NS9,19.0,32.0,21.0,77.0,49.0,49,992.0,square4,r,0.0173,3,N,9.0
NS9,20.0,41.0,22.0,74.0,48.0,74,1066.0,square3,i,0.443,2,N,9.0
NS9,21.0,40.0,21.0,75.0,50.0,75,1141.0,square3,i,0.2683,2,N,9.0
NS9,22.0,42.0,23.0,72.0,54.0,72,1213.0,square3,i,0.108,2,N,9.0
NS9,23.0,43.0,22.0,75.0,45.0,75,1288.0,square3,i,0.1698,2,N,9.0
NS9,24.0,41.0,18.0,70.0,49.0,70,1358.0,square3,i,0.1914,2,N,9.0
NS9,25.0,38.0,21.0,75.0,53.0,75,1433.0,square3,i,0.1153,2,N,9.0
NS9,26.0,40.0,20.0,73.0,54.0,73,1506.0,square3,i,0.2461,2,N,9.0
NS9,27.0,46.0,21.0,74.0,56.0,74,1580.0,square3,i,0.0235,2,N,9.0
NS9,28.0,51.0,25.0,72.0,58.0,72,1652.0,square3,i,0.0111,2,N,9.0
NS9,29.0,43.0,29.0,71.0,56.0,71,1723.0,square3,i,0.0082,2,N,9.0
NS9,30.0,38.0,26.0,71.0,52.0,71,1794.0,square3,i,0.0212,2,N,9.0
NS9,31.0,43.0,23.0,73.0,53.0,73,1867.0,square3,i,0.0008,2,N,9.0
NS9,32.0,43.0,24.0,76.0,52.0,76,1943.0,square3,i,0.1804,2,N,9.0
NS9,33.0,41.0,18.0,72.0,49.0,72,2015.0,square3,i,0.0042,2,N,9.0
NS9,34.0,36.0,26.0,68.0,55.0,68,2083.0,square3,i,0.2184,2,N,9.0
NS9,35.0,34.0,34.0,68.0,52.0,68,2151.0,square3,i,0.0748,2,N,9.0
NS9,36.0,34.0,43.0,70.0,49.0,70,2221.0,square3,i,0.1996,2,N,9.0
NS9,37.0,32.0,41.0,61.0,47.0,61,2282.0,square3,i,0.0011,2,N,9.0
NS9,38.0,28.0,41.0,65.0,47.0,65,2347.0,square3,i,0.0498,2,N,9.0
NS9,39.0,28.0,43.0,61.0,48.0,61,2408.0,square3,i,0.2001,2,N,9.0
NS9,40.0,26.0,46.0,65.0,39.0,65,2473.0,square3,i,0.0172,2,N,9.0
NS9,41.0,21.0,38.0,62.0,41.0,62,2535.0,square3,i,0.2114,2,N,9.0
NS9,42.0,18.0,37.0,59.0,42.0,18,2553.0,square1,j,0.5104,0,N,9.0
NS9,43.0,18.0,44.0,57.0,39.0,44,2597.0,square2,f,0.3878,1,N,9.0
NS9,44.0,19.0,43.0,58.0,36.0,36,2633.0,square4,r,0.1339,3,N,9.0
NS9,45.0,23.0,42.0,53.0,39.0,53,2686.0,square3,i,0.4069,2,N,9.0
NS9,46.0,22.0,48.0,58.0,43.0,58,2744.0,square3,i,0.096,2,N,9.0
NS9,47.0,20.0,47.0,51.0,44.0,51,2795.0,square3,i,0.0009,2,N,9.0
NS9,48.0,21.0,43.0,57.0,40.0,57,2852.0,square3,i,0.0426,2,N,9.0
NS9,49.0,25.0,38.0,59.0,46.0,59,2911.0,square3,i,0.2578,2,N,9.0
NS9,50.0,27.0,41.0,49.0,52.0,49,2960.0,square3,i,0.004,2,N,9.0
NS9,51.0,20.0,42.0,52.0,54.0,52,3012.0,square3,i,0.166,2,N,9.0
NS9,52.0,18.0,41.0,51.0,48.0,51,3063.0,square3,i,0.0631,2,N,9.0
NS9,53.0,17.0,43.0,52.0,50.0,52,3115.0,square3,i,0.0936,2,N,9.0
NS9,54.0,27.0,37.0,55.0,56.0,55,3170.0,square3,i,0.0177,2,N,9.0
NS9,55.0,30.0,38.0,59.0,50.0,59,3229.0,square3,i,0.028,2,N,9.0
NS9,56.0,32.0,49.0,54.0,59.0,54,3283.0,square3,i,0.0009,2,N,9.0
NS9,57.0,34.0,50.0,50.0,58.0,50,3333.0,square3,i,0.162,2,N,9.0
NS9,58.0,28.0,49.0,54.0,51.0,54,3387.0,square3,i,0.0198,2,N,9.0
NS9,59.0,26.0,47.0,46.0,49.0,46,3433.0,square3,i,0.0302,2,N,9.0
NS9,60.0,30.0,47.0,50.0,51.0,50,3483.0,square3,i,0.0101,2,N,9.0
NS9,61.0,29.0,43.0,51.0,50.0,29,3512.0,square1,j,0.4841,0,N,9.0
NS9,62.0,32.0,42.0,52.0,54.0,54,3566.0,square4,r,0.1332,3,N,9.0
NS9,63.0,35.0,45.0,57.0,46.0,45,3611.0,square2,f,0.1031,1,N,9.0
NS9,64.0,37.0,41.0,53.0,44.0,53,3664.0,square3,i,0.5256,2,N,9.0
NS9,65.0,34.0,41.0,50.0,49.0,50,3714.0,square3,i,0.3837,2,N,9.0
NS9,66.0,38.0,43.0,46.0,53.0,53,3767.0,square4,r,0.393,3,N,9.0
NS9,67.0,36.0,35.0,51.0,54.0,54,3821.0,square4,r,0.1171,3,N,9.0
NS9,68.0,43.0,38.0,48.0,57.0,57,3878.0,square4,r,0.129,3,N,9.0
NS9,69.0,42.0,42.0,48.0,49.0,49,3927.0,square4,r,0.016,3,N,9.0
NS9,70.0,45.0,40.0,50.0,51.0,51,3978.0,square4,r,0.0111,3,N,9.0
NS9,71.0,49.0,42.0,48.0,52.0,52,4030.0,square4,r,0.1719,3,N,9.0
NS9,72.0,39.0,44.0,47.0,58.0,58,4088.0,square4,r,0.1156,3,N,9.0
NS9,73.0,40.0,45.0,45.0,62.0,62,4150.0,square4,r,0.055,3,N,9.0
NS9,74.0,46.0,48.0,47.0,56.0,47,4197.0,square3,i,0.3283,2,N,9.0
NS9,75.0,35.0,39.0,53.0,65.0,65,4262.0,square4,r,0.1597,3,N,9.0
NS9,76.0,40.0,45.0,56.0,67.0,67,4329.0,square4,r,0.054,3,N,9.0
NS9,77.0,38.0,46.0,54.0,69.0,69,4398.0,square4,r,0.0892,3,N,9.0
NS9,78.0,37.0,42.0,53.0,69.0,69,4467.0,square4,r,0.0117,3,N,9.0
NS9,79.0,40.0,44.0,53.0,70.0,70,4537.0,square4,r,0.0007,3,N,9.0
NS9,80.0,37.0,50.0,55.0,70.0,70,4607.0,square4,r,0.0253,3,N,9.0
NS9,81.0,33.0,54.0,54.0,63.0,63,4670.0,square4,r,0.1349,3,N,9.0
NS9,82.0,35.0,55.0,52.0,74.0,74,4744.0,square4,r,0.1544,3,N,9.0
NS9,83.0,34.0,48.0,56.0,75.0,75,4819.0,square4,r,0.1992,3,N,9.0
NS9,84.0,39.0,51.0,62.0,78.0,78,4897.0,square4,r,0.0181,3,N,9.0
NS9,85.0,38.0,57.0,55.0,77.0,77,4974.0,square4,r,0.1899,3,N,9.0
NS9,86.0,34.0,53.0,57.0,68.0,68,5042.0,square4,r,0.0007,3,N,9.0
NS9,87.0,35.0,48.0,55.0,69.0,48,5090.0,square2,f,0.1684,1,N,9.0
NS9,88.0,41.0,48.0,50.0,69.0,50,5140.0,square3,i,0.3598,2,N,9.0
NS9,89.0,38.0,54.0,55.0,70.0,38,5178.0,square1,j,0.1946,0,N,9.0
NS9,90.0,43.0,55.0,49.0,71.0,71,5249.0,square4,r,0.1159,3,N,9.0
NS9,91.0,41.0,46.0,54.0,78.0,78,5327.0,square4,r,0.0752,3,N,9.0
NS9,92.0,40.0,42.0,41.0,72.0,72,5399.0,square4,r,0.0923,3,N,9.0
NS9,93.0,39.0,43.0,47.0,70.0,70,5469.0,square4,r,0.1175,3,N,9.0
NS9,94.0,36.0,47.0,43.0,80.0,80,5549.0,square4,r,0.0088,3,N,9.0
NS9,95.0,37.0,46.0,43.0,75.0,75,5624.0,square4,r,0.017,3,N,9.0
NS9,96.0,39.0,47.0,47.0,75.0,75,5699.0,square4,r,0.0995,3,N,9.0
NS9,97.0,35.0,41.0,49.0,80.0,80,5779.0,square4,r,0.1995,3,N,9.0
NS9,98.0,33.0,45.0,56.0,74.0,74,5853.0,square4,r,0.0009,3,N,9.0
NS9,99.0,34.0,42.0,58.0,74.0,74,5927.0,square4,r,0.0412,3,N,9.0
V3,0.0,62.0,45.0,70.0,53.0,70,70.0,square3,r,1.4874,2,V,3.0
V3,1.0,63.0,47.0,76.0,60.0,76,146.0,square3,r,0.4048,2,V,3.0
V3,2.0,65.0,54.0,73.0,57.0,65,211.0,square1,f,0.0951,0,V,3.0
V3,3.0,68.0,51.0,71.0,51.0,51,262.0,square2,i,0.0923,1,V,3.0
V3,4.0,61.0,49.0,75.0,53.0,53,315.0,square4,j,0.1607,3,V,3.0
V3,5.0,65.0,47.0,74.0,50.0,74,389.0,square3,r,0.0887,2,V,3.0
V3,6.0,61.0,51.0,72.0,57.0,72,461.0,square3,r,0.2199,2,V,3.0
V3,7.0,67.0,49.0,75.0,55.0,75,536.0,square3,r,0.0763,2,V,3.0
V3,8.0,64.0,48.0,76.0,56.0,76,612.0,square3,r,0.001,2,V,3.0
V3,9.0,67.0,49.0,71.0,56.0,71,683.0,square3,r,0.1259,2,V,3.0
V3,10.0,65.0,50.0,71.0,56.0,71,754.0,square3,r,0.0071,2,V,3.0
V3,11.0,63.0,43.0,78.0,58.0,78,832.0,square3,r,0.1378,2,V,3.0
V3,12.0,66.0,53.0,73.0,54.0,73,905.0,square3,r,0.0506,2,V,3.0
V3,13.0,64.0,46.0,78.0,51.0,78,983.0,square3,r,0.1999,2,V,3.0
V3,14.0,67.0,51.0,71.0,58.0,71,1054.0,square3,r,0.0682,2,V,3.0
V3,15.0,61.0,50.0,73.0,54.0,73,1127.0,square3,r,0.2788,2,V,3.0
V3,16.0,64.0,52.0,74.0,54.0,74,1201.0,square3,r,0.0109,2,V,3.0
V3,17.0,61.0,48.0,74.0,55.0,74,1275.0,square3,r,0.142,2,V,3.0
V3,18.0,65.0,50.0,70.0,59.0,70,1345.0,square3,r,0.0061,2,V,3.0
V3,19.0,64.0,52.0,76.0,56.0,76,1421.0,square3,r,0.0327,2,V,3.0
V3,20.0,64.0,50.0,69.0,58.0,69,1490.0,square3,r,0.058,2,V,3.0
V3,21.0,66.0,50.0,72.0,56.0,72,1562.0,square3,r,0.0007,2,V,3.0
V3,22.0,43.0,48.0,40.0,62.0,40,1602.0,square3,r,0.2097,2,V,3.0
V3,23.0,41.0,51.0,35.0,59.0,35,1637.0,square3,r,0.2496,2,V,3.0
V3,24.0,51.0,51.0,37.0,60.0,37,1674.0,square3,r,0.0823,2,V,3.0
V3,25.0,45.0,53.0,36.0,57.0,36,1710.0,square3,r,0.0925,2,V,3.0
V3,26.0,44.0,51.0,38.0,59.0,38,1748.0,square3,r,0.0603,2,V,3.0
V3,27.0,43.0,51.0,34.0,66.0,34,1782.0,square3,r,0.0698,2,V,3.0
V3,28.0,47.0,51.0,40.0,67.0,40,1822.0,square3,r,0.0508,2,V,3.0
V3,29.0,42.0,55.0,35.0,65.0,35,1857.0,square3,r,0.0451,2,V,3.0
V3,30.0,49.0,54.0,36.0,62.0,36,1893.0,square3,r,0.1579,2,V,3.0
V3,31.0,50.0,53.0,42.0,66.0,42,1935.0,square3,r,0.0525,2,V,3.0
V3,32.0,47.0,53.0,34.0,58.0,34,1969.0,square3,r,0.0516,2,V,3.0
V3,33.0,45.0,56.0,34.0,62.0,34,2003.0,square3,r,0.1354,2,V,3.0
V3,34.0,48.0,54.0,38.0,64.0,38,2041.0,square3,r,0.0203,2,V,3.0
V3,35.0,39.0,55.0,42.0,65.0,55,2096.0,square2,i,1.1121,1,V,3.0
V3,36.0,46.0,57.0,41.0,63.0,63,2159.0,square4,j,0.0601,3,V,3.0
V3,37.0,43.0,54.0,41.0,65.0,43,2202.0,square1,f,0.0676,0,V,3.0
V3,38.0,47.0,52.0,37.0,63.0,52,2254.0,square2,i,0.0206,1,V,3.0
V3,39.0,47.0,53.0,38.0,55.0,53,2307.0,square2,i,0.2197,1,V,3.0
V3,40.0,41.0,54.0,39.0,64.0,54,2361.0,square2,i,0.0814,1,V,3.0
V3,41.0,48.0,52.0,38.0,64.0,52,2413.0,square2,i,0.0625,1,V,3.0
V3,42.0,45.0,50.0,34.0,63.0,50,2463.0,square2,i,0.1497,1,V,3.0
V3,43.0,44.0,50.0,34.0,62.0,50,2513.0,square2,i,0.1157,1,V,3.0
V3,44.0,47.0,55.0,39.0,65.0,55,2568.0,square2,i,0.1282,1,V,3.0
V3,45.0,45.0,55.0,31.0,63.0,55,2623.0,square2,i,0.2085,1,V,3.0
V3,46.0,42.0,52.0,38.0,64.0,52,2675.0,square2,i,0.0878,1,V,3.0
V3,47.0,44.0,53.0,37.0,55.0,53,2728.0,square2,i,0.1503,1,V,3.0
V3,48.0,44.0,49.0,37.0,58.0,49,2777.0,square2,i,0.0431,1,V,3.0
V3,49.0,48.0,58.0,35.0,54.0,58,2835.0,square2,i,0.1248,1,V,3.0
V3,50.0,42.0,28.0,30.0,52.0,28,2863.0,square2,i,0.0995,1,V,3.0
V3,51.0,46.0,29.0,32.0,51.0,29,2892.0,square2,i,0.0817,1,V,3.0
V3,52.0,37.0,20.0,36.0,50.0,20,2912.0,square2,i,0.2166,1,V,3.0
V3,53.0,44.0,22.0,34.0,55.0,22,2934.0,square2,i,0.0007,1,V,3.0
V3,54.0,37.0,27.0,26.0,50.0,27,2961.0,square2,i,0.1404,1,V,3.0
V3,55.0,41.0,21.0,39.0,53.0,53,3014.0,square4,j,0.5214,3,V,3.0
V3,56.0,40.0,20.0,38.0,51.0,51,3065.0,square4,j,0.0143,3,V,3.0
V3,57.0,44.0,28.0,31.0,57.0,57,3122.0,square4,j,0.0279,3,V,3.0
V3,58.0,46.0,20.0,28.0,49.0,49,3171.0,square4,j,0.113,3,V,3.0
V3,59.0,44.0,24.0,30.0,55.0,55,3226.0,square4,j,0.0207,3,V,3.0
V3,60.0,42.0,29.0,29.0,51.0,51,3277.0,square4,j,0.0668,3,V,3.0
V3,61.0,41.0,21.0,30.0,46.0,46,3323.0,square4,j,0.1009,3,V,3.0
V3,62.0,41.0,27.0,31.0,49.0,49,3372.0,square4,j,0.0009,3,V,3.0
V3,63.0,42.0,27.0,34.0,51.0,51,3423.0,square4,j,0.1669,3,V,3.0
V3,64.0,41.0,24.0,30.0,47.0,47,3470.0,square4,j,0.0674,3,V,3.0
V3,65.0,36.0,18.0,34.0,48.0,48,3518.0,square4,j,0.692,3,V,3.0
V3,66.0,39.0,28.0,35.0,45.0,45,3563.0,square4,j,0.117,3,V,3.0
V3,67.0,42.0,21.0,32.0,46.0,46,3609.0,square4,j,0.1234,3,V,3.0
V3,68.0,40.0,24.0,35.0,53.0,40,3649.0,square1,f,0.5745,0,V,3.0
V3,69.0,48.0,23.0,34.0,50.0,34,3683.0,square3,r,0.0008,2,V,3.0
V3,70.0,40.0,27.0,31.0,49.0,27,3710.0,square2,i,0.1828,1,V,3.0
V3,71.0,41.0,23.0,28.0,51.0,51,3761.0,square4,j,0.1702,3,V,3.0
V3,72.0,42.0,25.0,33.0,55.0,55,3816.0,square4,j,0.0822,3,V,3.0
V3,73.0,41.0,24.0,35.0,55.0,55,3871.0,square4,j,0.2419,3,V,3.0
V3,74.0,38.0,26.0,28.0,53.0,53,3924.0,square4,j,0.0827,3,V,3.0
V3,75.0,54.0,39.0,69.0,50.0,50,3974.0,square4,j,0.083,3,V,3.0
V3,76.0,55.0,42.0,64.0,53.0,53,4027.0,square4,j,0.0655,3,V,3.0
V3,77.0,59.0,37.0,66.0,44.0,44,4071.0,square4,j,0.0498,3,V,3.0
V3,78.0,58.0,38.0,60.0,46.0,46,4117.0,square4,j,0.2996,3,V,3.0
V3,79.0,54.0,35.0,66.0,49.0,49,4166.0,square4,j,0.0423,3,V,3.0
V3,80.0,60.0,36.0,68.0,44.0,44,4210.0,square4,j,0.219,3,V,3.0
V3,81.0,55.0,38.0,66.0,51.0,51,4261.0,square4,j,0.0011,3,V,3.0
V3,82.0,57.0,47.0,64.0,50.0,47,4308.0,square2,i,0.1011,1,V,3.0
V3,83.0,57.0,37.0,63.0,45.0,63,4371.0,square3,r,0.1442,2,V,3.0
V3,84.0,54.0,40.0,65.0,53.0,65,4436.0,square3,r,0.01,2,V,3.0
V3,85.0,58.0,41.0,63.0,48.0,63,4499.0,square3,r,0.233,2,V,3.0
V3,86.0,53.0,38.0,57.0,49.0,57,4556.0,square3,r,0.2059,2,V,3.0
V3,87.0,49.0,42.0,60.0,43.0,60,4616.0,square3,r,0.2022,2,V,3.0
V3,88.0,56.0,35.0,70.0,46.0,70,4686.0,square3,r,0.1598,2,V,3.0
V3,89.0,58.0,39.0,63.0,52.0,63,4749.0,square3,r,0.0788,2,V,3.0
V3,90.0,59.0,43.0,63.0,45.0,63,4812.0,square3,r,0.0449,2,V,3.0
V3,91.0,54.0,37.0,69.0,49.0,69,4881.0,square3,r,0.122,2,V,3.0
V3,92.0,56.0,41.0,61.0,47.0,61,4942.0,square3,r,0.085,2,V,3.0
V3,93.0,58.0,35.0,68.0,47.0,68,5010.0,square3,r,0.0575,2,V,3.0
V3,94.0,61.0,37.0,67.0,51.0,67,5077.0,square3,r,0.0102,2,V,3.0
V3,95.0,57.0,32.0,64.0,47.0,64,5141.0,square3,r,0.1371,2,V,3.0
V3,96.0,53.0,38.0,63.0,48.0,63,5204.0,square3,r,0.0788,2,V,3.0
V3,97.0,57.0,44.0,71.0,50.0,71,5275.0,square3,r,0.0251,2,V,3.0
V3,98.0,56.0,39.0,70.0,47.0,70,5345.0,square3,r,0.0792,2,V,3.0
V3,99.0,62.0,40.0,67.0,49.0,67,5412.0,square3,r,0.0948,2,V,3.0
V6,0.0,43.0,59.0,68.0,49.0,59,59.0,square2,r,1.0333,1,V,6.0
V6,1.0,43.0,62.0,71.0,50.0,71,130.0,square3,f,0.1833,2,V,6.0
V6,2.0,48.0,61.0,72.0,51.0,51,181.0,square4,i,0.5107,3,V,6.0
V6,3.0,46.0,55.0,71.0,51.0,46,227.0,square1,j,0.1251,0,V,6.0
V6,4.0,44.0,61.0,74.0,48.0,74,301.0,square3,f,0.1423,2,V,6.0
V6,5.0,45.0,62.0,70.0,51.0,70,371.0,square3,f,0.1413,2,V,6.0
V6,6.0,42.0,67.0,73.0,46.0,73,444.0,square3,f,0.1877,2,V,6.0
V6,7.0,44.0,63.0,71.0,53.0,71,515.0,square3,f,0.073,2,V,6.0
V6,8.0,41.0,62.0,73.0,52.0,73,588.0,square3,f,0.1084,2,V,6.0
V6,9.0,46.0,59.0,72.0,54.0,72,660.0,square3,f,0.0497,2,V,6.0
V6,10.0,45.0,59.0,70.0,53.0,70,730.0,square3,f,0.0962,2,V,6.0
V6,11.0,45.0,60.0,70.0,49.0,70,800.0,square3,f,0.0766,2,V,6.0
V6,12.0,45.0,66.0,64.0,48.0,64,864.0,square3,f,0.0539,2,V,6.0
V6,13.0,45.0,61.0,69.0,47.0,69,933.0,square3,f,0.1862,2,V,6.0
V6,14.0,47.0,60.0,71.0,56.0,71,1004.0,square3,f,0.1703,2,V,6.0
V6,15.0,46.0,64.0,67.0,52.0,67,1071.0,square3,f,0.0516,2,V,6.0
V6,16.0,50.0,60.0,69.0,54.0,69,1140.0,square3,f,0.0101,2,V,6.0
V6,17.0,43.0,60.0,70.0,53.0,70,1210.0,square3,f,0.0081,2,V,6.0
V6,18.0,46.0,63.0,72.0,55.0,72,1282.0,square3,f,0.0322,2,V,6.0
V6,19.0,46.0,65.0,73.0,51.0,73,1355.0,square3,f,0.1301,2,V,6.0
V6,20.0,44.0,63.0,66.0,51.0,66,1421.0,square3,f,0.143,2,V,6.0
V6,21.0,43.0,63.0,70.0,49.0,70,1491.0,square3,f,0.095,2,V,6.0
V6,22.0,45.0,63.0,71.0,50.0,71,1562.0,square3,f,0.094,2,V,6.0
V6,23.0,45.0,38.0,28.0,60.0,28,1590.0,square3,f,0.0178,2,V,6.0
V6,24.0,46.0,33.0,33.0,53.0,33,1623.0,square3,f,0.1597,2,V,6.0
V6,25.0,45.0,36.0,32.0,63.0,32,1655.0,square3,f,0.167,2,V,6.0
V6,26.0,52.0,37.0,28.0,57.0,28,1683.0,square3,f,0.0057,2,V,6.0
V6,27.0,45.0,33.0,30.0,62.0,33,1716.0,square2,r,0.1618,1,V,6.0
V6,28.0,43.0,37.0,24.0,51.0,51,1767.0,square4,i,0.3432,3,V,6.0
V6,29.0,48.0,39.0,34.0,61.0,48,1815.0,square1,j,0.1844,0,V,6.0
V6,30.0,48.0,44.0,35.0,59.0,59,1874.0,square4,i,0.1114,3,V,6.0
V6,31.0,50.0,39.0,34.0,53.0,53,1927.0,square4,i,0.2337,3,V,6.0
V6,32.0,44.0,33.0,33.0,54.0,99999,1927.0,invalid,,,-1,V,6.0
V6,33.0,48.0,37.0,30.0,56.0,56,1983.0,square4,i,0.7374,3,V,6.0
V6,34.0,52.0,37.0,27.0,59.0,59,2042.0,square4,i,0.0267,3,V,6.0
V6,35.0,47.0,32.0,29.0,59.0,59,2101.0,square4,i,0.0695,3,V,6.0
V6,36.0,45.0,37.0,27.0,56.0,56,2157.0,square4,i,0.0076,3,V,6.0
V6,37.0,39.0,37.0,31.0,57.0,57,2214.0,square4,i,0.0688,3,V,6.0
V6,38.0,50.0,38.0,29.0,56.0,56,2270.0,square4,i,0.0256,3,V,6.0
V6,39.0,48.0,37.0,27.0,57.0,57,2327.0,square4,i,0.0872,3,V,6.0
V6,40.0,53.0,37.0,29.0,57.0,57,2384.0,square4,i,0.0665,3,V,6.0
V6,41.0,41.0,34.0,33.0,58.0,58,2442.0,square4,i,0.089,3,V,6.0
V6,42.0,50.0,37.0,31.0,57.0,57,2499.0,square4,i,0.0158,3,V,6.0
V6,43.0,48.0,34.0,30.0,58.0,58,2557.0,square4,i,0.0253,3,V,6.0
V6,44.0,44.0,37.0,33.0,60.0,60,2617.0,square4,i,0.1328,3,V,6.0
V6,45.0,44.0,32.0,33.0,55.0,55,2672.0,square4,i,0.1112,3,V,6.0
V6,46.0,44.0,36.0,33.0,59.0,59,2731.0,square4,i,0.0757,3,V,6.0
V6,47.0,42.0,34.0,29.0,52.0,52,2783.0,square4,i,0.058,3,V,6.0
V6,48.0,46.0,41.0,28.0,60.0,60,2843.0,square4,i,0.0016,3,V,6.0
V6,49.0,46.0,40.0,27.0,55.0,55,2898.0,square4,i,0.1331,3,V,6.0
V6,50.0,46.0,41.0,32.0,55.0,55,2953.0,square4,i,0.017,3,V,6.0
V6,51.0,41.0,39.0,30.0,55.0,55,3008.0,square4,i,0.0246,3,V,6.0
V6,52.0,47.0,37.0,31.0,55.0,55,3063.0,square4,i,0.1252,3,V,6.0
V6,53.0,57.0,36.0,30.0,58.0,58,3121.0,square4,i,0.0598,3,V,6.0
V6,54.0,42.0,38.0,28.0,50.0,50,3171.0,square4,i,0.0262,3,V,6.0
V6,55.0,56.0,42.0,67.0,46.0,46,3217.0,square4,i,0.0676,3,V,6.0
V6,56.0,54.0,37.0,68.0,46.0,46,3263.0,square4,i,0.1246,3,V,6.0
V6,57.0,57.0,40.0,64.0,52.0,52,3315.0,square4,i,0.1207,3,V,6.0
V6,58.0,53.0,45.0,68.0,45.0,45,3360.0,square4,i,0.1211,3,V,6.0
V6,59.0,59.0,41.0,69.0,49.0,49,3409.0,square4,i,0.1089,3,V,6.0
V6,60.0,62.0,41.0,71.0,51.0,51,3460.0,square4,i,0.1383,3,V,6.0
V6,61.0,58.0,50.0,72.0,51.0,51,3511.0,square4,i,0.1256,3,V,6.0
V6,62.0,61.0,43.0,65.0,47.0,47,3558.0,square4,i,0.0856,3,V,6.0
V6,63.0,55.0,40.0,67.0,51.0,51,3609.0,square4,i,0.1416,3,V,6.0
V6,64.0,56.0,43.0,67.0,47.0,47,3656.0,square4,i,0.0928,3,V,6.0
V6,65.0,62.0,46.0,67.0,48.0,48,3704.0,square4,i,0.1022,3,V,6.0
V6,66.0,55.0,44.0,67.0,48.0,48,3752.0,square4,i,0.1299,3,V,6.0
V6,67.0,61.0,46.0,70.0,49.0,61,3813.0,square1,j,0.1353,0,V,6.0
V6,68.0,63.0,41.0,72.0,46.0,41,3854.0,square2,r,0.0086,1,V,6.0
V6,69.0,59.0,41.0,68.0,48.0,68,3922.0,square3,f,0.0333,2,V,6.0
V6,70.0,59.0,37.0,70.0,45.0,70,3992.0,square3,f,0.3177,2,V,6.0
V6,71.0,83.0,64.0,56.0,70.0,56,4048.0,square3,f,0.0924,2,V,6.0
V6,72.0,82.0,59.0,53.0,75.0,53,4101.0,square3,f,0.0707,2,V,6.0
V6,73.0,85.0,67.0,58.0,73.0,58,4159.0,square3,f,0.1343,2,V,6.0
V6,74.0,79.0,67.0,61.0,73.0,61,4220.0,square3,f,0.1337,2,V,6.0
V6,75.0,84.0,62.0,53.0,69.0,53,4273.0,square3,f,0.0006,2,V,6.0
V6,76.0,81.0,60.0,55.0,76.0,55,4328.0,square3,f,0.0009,2,V,6.0
V6,77.0,84.0,61.0,60.0,72.0,60,4388.0,square3,f,0.1744,2,V,6.0
V6,78.0,90.0,61.0,54.0,74.0,54,4442.0,square3,f,0.0317,2,V,6.0
V6,79.0,80.0,64.0,51.0,75.0,51,4493.0,square3,f,0.1499,2,V,6.0
V6,80.0,85.0,62.0,56.0,78.0,56,4549.0,square3,f,0.0009,2,V,6.0
V6,81.0,86.0,65.0,58.0,69.0,58,4607.0,square3,f,0.0008,2,V,6.0
V6,82.0,83.0,62.0,58.0,77.0,58,4665.0,square3,f,0.1997,2,V,6.0
V6,83.0,87.0,61.0,59.0,70.0,59,4724.0,square3,f,0.2583,2,V,6.0
V6,84.0,89.0,65.0,54.0,78.0,54,4778.0,square3,f,0.7797,2,V,6.0
V6,85.0,78.0,63.0,55.0,75.0,63,4841.0,square2,r,0.0009,1,V,6.0
V6,86.0,87.0,67.0,52.0,75.0,75,4916.0,square4,i,0.2839,3,V,6.0
V6,87.0,86.0,62.0,60.0,75.0,75,4991.0,square4,i,0.1722,3,V,6.0
V6,88.0,79.0,67.0,56.0,76.0,76,5067.0,square4,i,0.1411,3,V,6.0
V6,89.0,83.0,61.0,57.0,75.0,75,5142.0,square4,i,0.1843,3,V,6.0
V6,90.0,83.0,67.0,51.0,76.0,76,5218.0,square4,i,0.1617,3,V,6.0
V6,91.0,83.0,63.0,55.0,69.0,69,5287.0,square4,i,0.1377,3,V,6.0
V6,92.0,89.0,56.0,53.0,68.0,68,5355.0,square4,i,0.0116,3,V,6.0
V6,93.0,84.0,61.0,59.0,74.0,74,5429.0,square4,i,0.1422,3,V,6.0
V6,94.0,77.0,58.0,58.0,76.0,76,5505.0,square4,i,0.0075,3,V,6.0
V6,95.0,82.0,60.0,53.0,74.0,74,5579.0,square4,i,0.2417,3,V,6.0
V6,96.0,87.0,61.0,56.0,71.0,71,5650.0,square4,i,0.0582,3,V,6.0
V6,97.0,83.0,66.0,55.0,75.0,75,5725.0,square4,i,0.1426,3,V,6.0
V6,98.0,81.0,63.0,55.0,76.0,76,5801.0,square4,i,0.1761,3,V,6.0
V6,99.0,92.0,63.0,61.0,78.0,78,5879.0,square4,i,0.1971,3,V,6.0
V5,0.0,46.0,21.0,37.0,28.0,46,46.0,square1,r,1.086,0,V,5.0
V5,1.0,43.0,27.0,36.0,31.0,27,73.0,square2,f,0.2068,1,V,5.0
V5,2.0,50.0,18.0,43.0,32.0,43,116.0,square3,i,0.0995,2,V,5.0
V5,3.0,53.0,23.0,36.0,34.0,34,150.0,square4,j,0.1831,3,V,5.0
V5,4.0,52.0,19.0,38.0,34.0,52,202.0,square1,r,0.6543,0,V,5.0
V5,5.0,50.0,22.0,41.0,29.0,50,252.0,square1,r,0.19,0,V,5.0
V5,6.0,52.0,19.0,40.0,33.0,52,304.0,square1,r,0.2004,0,V,5.0
V5,7.0,48.0,24.0,36.0,27.0,48,352.0,square1,r,0.0821,0,V,5.0
V5,8.0,50.0,24.0,35.0,33.0,50,402.0,square1,r,0.1842,0,V,5.0
V5,9.0,48.0,25.0,39.0,34.0,48,450.0,square1,r,0.0595,0,V,5.0
V5,10.0,52.0,19.0,32.0,34.0,52,502.0,square1,r,0.173,0,V,5.0
V5,11.0,48.0,22.0,32.0,32.0,48,550.0,square1,r,0.0169,0,V,5.0
V5,12.0,47.0,17.0,43.0,29.0,47,597.0,square1,r,0.0011,0,V,5.0
V5,13.0,46.0,21.0,42.0,29.0,46,643.0,square1,r,0.1548,0,V,5.0
V5,14.0,47.0,28.0,42.0,28.0,47,690.0,square1,r,0.0794,0,V,5.0
V5,15.0,50.0,29.0,38.0,36.0,50,740.0,square1,r,0.1463,0,V,5.0
V5,16.0,49.0,24.0,36.0,34.0,49,789.0,square1,r,0.2133,0,V,5.0
V5,17.0,50.0,20.0,38.0,35.0,50,839.0,square1,r,0.0264,0,V,5.0
V5,18.0,49.0,22.0,46.0,29.0,49,888.0,square1,r,0.0635,0,V,5.0
V5,19.0,46.0,23.0,40.0,31.0,46,934.0,square1,r,0.1667,0,V,5.0
V5,20.0,51.0,22.0,41.0,28.0,51,985.0,square1,r,0.0014,0,V,5.0
V5,21.0,51.0,26.0,36.0,31.0,51,1036.0,square1,r,0.0124,0,V,5.0
V5,22.0,47.0,18.0,41.0,28.0,47,1083.0,square1,r,0.3422,0,V,5.0
V5,23.0,52.0,20.0,36.0,29.0,52,1135.0,square1,r,0.0678,0,V,5.0
V5,24.0,51.0,21.0,41.0,34.0,51,1186.0,square1,r,0.0553,0,V,5.0
V5,25.0,50.0,20.0,41.0,27.0,50,1236.0,square1,r,0.1632,0,V,5.0
V5,26.0,49.0,29.0,37.0,28.0,49,1285.0,square1,r,0.1377,0,V,5.0
V5,27.0,10.0,13.0,42.0,32.0,10,1295.0,square1,r,0.1259,0,V,5.0
V5,28.0,9.0,19.0,40.0,27.0,9,1304.0,square1,r,0.1614,0,V,5.0
V5,29.0,17.0,17.0,38.0,29.0,17,1321.0,square1,r,0.0264,0,V,5.0
V5,30.0,8.0,18.0,36.0,29.0,8,1329.0,square1,r,0.0588,0,V,5.0
V5,31.0,16.0,24.0,34.0,29.0,16,1345.0,square1,r,0.0511,0,V,5.0
V5,32.0,9.0,17.0,35.0,31.0,17,1362.0,square2,f,0.2669,1,V,5.0
V5,33.0,11.0,19.0,36.0,28.0,36,1398.0,square3,i,0.1006,2,V,5.0
V5,34.0,10.0,19.0,38.0,28.0,28,1426.0,square4,j,0.1584,3,V,5.0
V5,35.0,5.0,23.0,40.0,34.0,40,1466.0,square3,i,0.0172,2,V,5.0
V5,36.0,17.0,20.0,36.0,31.0,36,1502.0,square3,i,0.0244,2,V,5.0
V5,37.0,12.0,13.0,36.0,30.0,36,1538.0,square3,i,0.0008,2,V,5.0
V5,38.0,14.0,24.0,35.0,27.0,35,1573.0,square3,i,0.0008,2,V,5.0
V5,39.0,13.0,20.0,39.0,32.0,39,1612.0,square3,i,0.0281,2,V,5.0
V5,40.0,9.0,15.0,37.0,24.0,37,1649.0,square3,i,0.1503,2,V,5.0
V5,41.0,9.0,14.0,38.0,31.0,38,1687.0,square3,i,0.6804,2,V,5.0
V5,42.0,14.0,17.0,43.0,31.0,43,1730.0,square3,i,0.1061,2,V,5.0
V5,43.0,10.0,18.0,39.0,23.0,39,1769.0,square3,i,0.1231,2,V,5.0
V5,44.0,10.0,20.0,33.0,32.0,33,1802.0,square3,i,0.0468,2,V,5.0
V5,45.0,16.0,17.0,37.0,29.0,37,1839.0,square3,i,0.0459,2,V,5.0
V5,46.0,9.0,22.0,37.0,25.0,25,1864.0,square4,j,0.1262,3,V,5.0
V5,47.0,10.0,22.0,35.0,26.0,22,1886.0,square2,f,0.4089,1,V,5.0
V5,48.0,11.0,16.0,39.0,23.0,11,1897.0,square1,r,0.0091,0,V,5.0
V5,49.0,13.0,16.0,33.0,27.0,33,1930.0,square3,i,0.0012,2,V,5.0
V5,50.0,12.0,16.0,39.0,24.0,39,1969.0,square3,i,0.1089,2,V,5.0
V5,51.0,10.0,21.0,43.0,28.0,43,2012.0,square3,i,0.043,2,V,5.0
V5,52.0,8.0,15.0,36.0,28.0,36,2048.0,square3,i,0.1583,2,V,5.0
V5,53.0,38.0,20.0,31.0,54.0,31,2079.0,square3,i,0.1423,2,V,5.0
V5,54.0,39.0,20.0,35.0,51.0,35,2114.0,square3,i,0.1362,2,V,5.0
V5,55.0,41.0,21.0,27.0,50.0,27,2141.0,square3,i,0.0583,2,V,5.0
V5,56.0,39.0,23.0,28.0,49.0,28,2169.0,square3,i,0.0241,2,V,5.0
V5,57.0,36.0,28.0,29.0,59.0,29,2198.0,square3,i,0.0975,2,V,5.0
V5,58.0,38.0,22.0,28.0,49.0,28,2226.0,square3,i,0.1616,2,V,5.0
V5,59.0,44.0,23.0,30.0,51.0,30,2256.0,square3,i,0.0007,2,V,5.0
V5,60.0,43.0,21.0,31.0,48.0,31,2287.0,square3,i,0.0333,2,V,5.0
V5,61.0,39.0,24.0,35.0,50.0,35,2322.0,square3,i,0.3235,2,V,5.0
V5,62.0,38.0,25.0,31.0,52.0,31,2353.0,square3,i,0.0417,2,V,5.0
V5,63.0,41.0,14.0,31.0,52.0,31,2384.0,square3,i,0.1753,2,V,5.0
V5,64.0,43.0,23.0,30.0,51.0,30,2414.0,square3,i,0.1593,2,V,5.0
V5,65.0,41.0,23.0,35.0,52.0,35,2449.0,square3,i,0.0425,2,V,5.0
V5,66.0,41.0,17.0,33.0,47.0,33,2482.0,square3,i,0.0009,2,V,5.0
V5,67.0,44.0,23.0,32.0,49.0,32,2514.0,square3,i,0.0413,2,V,5.0
V5,68.0,44.0,24.0,31.0,44.0,31,2545.0,square3,i,0.092,2,V,5.0
V5,69.0,43.0,28.0,27.0,48.0,43,2588.0,square1,r,0.4137,0,V,5.0
V5,70.0,38.0,22.0,26.0,50.0,22,2610.0,square2,f,0.0417,1,V,5.0
V5,71.0,41.0,29.0,26.0,53.0,41,2651.0,square1,r,0.1669,0,V,5.0
V5,72.0,40.0,20.0,28.0,51.0,40,2691.0,square1,r,0.0373,0,V,5.0
V5,73.0,59.0,44.0,51.0,35.0,59,2750.0,square1,r,0.1832,0,V,5.0
V5,74.0,60.0,38.0,55.0,43.0,60,2810.0,square1,r,0.1988,0,V,5.0
V5,75.0,63.0,45.0,50.0,37.0,63,2873.0,square1,r,0.2073,0,V,5.0
V5,76.0,62.0,42.0,50.0,37.0,62,2935.0,square1,r,0.0767,0,V,5.0
V5,77.0,57.0,37.0,52.0,35.0,57,2992.0,square1,r,0.0579,0,V,5.0
V5,78.0,66.0,45.0,54.0,37.0,66,3058.0,square1,r,0.1598,0,V,5.0
V5,79.0,64.0,37.0,48.0,35.0,64,3122.0,square1,r,0.0269,0,V,5.0
V5,80.0,63.0,40.0,56.0,38.0,63,3185.0,square1,r,0.2066,0,V,5.0
V5,81.0,62.0,41.0,54.0,32.0,62,3247.0,square1,r,0.1892,0,V,5.0
V5,82.0,58.0,41.0,59.0,39.0,58,3305.0,square1,r,0.0098,0,V,5.0
V5,83.0,66.0,46.0,54.0,35.0,66,3371.0,square1,r,0.0012,0,V,5.0
V5,84.0,67.0,44.0,52.0,33.0,67,3438.0,square1,r,0.0128,0,V,5.0
V5,85.0,67.0,45.0,46.0,36.0,67,3505.0,square1,r,0.1865,0,V,5.0
V5,86.0,65.0,44.0,51.0,38.0,65,3570.0,square1,r,0.1758,0,V,5.0
V5,87.0,64.0,49.0,48.0,35.0,64,3634.0,square1,r,0.0089,0,V,5.0
V5,88.0,68.0,47.0,56.0,36.0,47,3681.0,square2,f,0.6161,1,V,5.0
V5,89.0,60.0,42.0,57.0,32.0,60,3741.0,square1,r,0.0421,0,V,5.0
V5,90.0,59.0,43.0,53.0,34.0,53,3794.0,square3,i,0.0394,2,V,5.0
V5,91.0,64.0,43.0,51.0,34.0,34,3828.0,square4,j,0.1576,3,V,5.0
V5,92.0,65.0,41.0,57.0,38.0,65,3893.0,square1,r,0.0427,0,V,5.0
V5,93.0,59.0,48.0,54.0,40.0,59,3952.0,square1,r,0.1117,0,V,5.0
V5,94.0,66.0,44.0,53.0,43.0,66,4018.0,square1,r,0.0107,0,V,5.0
V5,95.0,63.0,43.0,50.0,40.0,63,4081.0,square1,r,0.3342,0,V,5.0
V5,96.0,62.0,44.0,50.0,33.0,62,4143.0,square1,r,0.183,0,V,5.0
V5,97.0,64.0,49.0,55.0,37.0,64,4207.0,square1,r,0.0175,0,V,5.0
V5,98.0,65.0,44.0,53.0,36.0,65,4272.0,square1,r,0.1078,0,V,5.0
V5,99.0,65.0,42.0,55.0,35.0,65,4337.0,square1,r,0.0167,0,V,5.0
