block,Trial,square1,square2,square3,square4,currPoints,totalPoints,square,choiceKey.keys,choiceKey.rt,armNum,blockType,blockNum
prac,0.0,100.0,0.0,0.0,0.0,0,0.0,square4,,,3,p,0.0
prac,1.0,100.0,0.0,0.0,0.0,0,0.0,square2,,,1,p,0.0
prac,2.0,100.0,0.0,0.0,0.0,0,0.0,square3,,,2,p,0.0
prac,3.0,100.0,0.0,0.0,0.0,100,100.0,square1,,,0,p,0.0
prac,4.0,100.0,0.0,0.0,0.0,100,200.0,square1,,,0,p,0.0
prac,5.0,100.0,0.0,0.0,0.0,100,300.0,square1,,,0,p,0.0
prac,6.0,100.0,0.0,0.0,0.0,100,400.0,square1,,,0,p,0.0
prac,7.0,100.0,0.0,0.0,0.0,100,500.0,square1,,,0,p,0.0
prac,8.0,100.0,0.0,0.0,0.0,100,600.0,square1,,,0,p,0.0
prac,9.0,100.0,0.0,0.0,0.0,100,700.0,square1,,,0,p,0.0
S5,0.0,90.0,70.0,79.0,84.0,90,90.0,square1,r,0.3669,0,S,5.0
S5,1.0,92.0,77.0,83.0,81.0,92,182.0,square1,r,0.2615,0,S,5.0
S5,2.0,83.0,72.0,81.0,76.0,81,263.0,square3,i,0.3236,2,S,5.0
S5,3.0,87.0,72.0,79.0,81.0,81,344.0,square4,f,0.5854,3,S,5.0
S5,4.0,86.0,81.0,78.0,72.0,81,425.0,square2,j,0.1611,1,S,5.0
S5,5.0,89.0,70.0,79.0,83.0,89,514.0,square1,r,0.5449,0,S,5.0
S5,6.0,86.0,69.0,81.0,81.0,86,600.0,square1,r,0.4445,0,S,5.0
S5,7.0,82.0,72.0,86.0,80.0,82,682.0,square1,r,0.7292,0,S,5.0
S5,8.0,84.0,67.0,80.0,77.0,84,766.0,square1,r,1.0549,0,S,5.0
S5,9.0,92.0,80.0,86.0,84.0,92,858.0,square1,r,0.3778,0,S,5.0
S5,10.0,82.0,71.0,80.0,80.0,82,940.0,square1,r,0.2244,0,S,5.0
S5,11.0,80.0,75.0,79.0,75.0,80,1020.0,square1,r,0.3849,0,S,5.0
S5,12.0,84.0,75.0,80.0,82.0,84,1104.0,square1,r,0.2966,0,S,5.0
S5,13.0,85.0,74.0,74.0,81.0,85,1189.0,square1,r,0.5409,0,S,5.0
S5,14.0,81.0,79.0,85.0,81.0,81,1270.0,square1,r,0.8559,0,S,5.0
S5,15.0,81.0,75.0,76.0,77.0,76,1346.0,square3,i,0.8569,2,S,5.0
S5,16.0,86.0,74.0,78.0,74.0,86,1432.0,square1,r,0.2949,0,S,5.0
S5,17.0,81.0,77.0,81.0,77.0,81,1513.0,square1,r,0.3072,0,S,5.0
S5,18.0,87.0,70.0,84.0,82.0,87,1600.0,square1,r,0.457,0,S,5.0
S5,19.0,84.0,76.0,83.0,76.0,84,1684.0,square1,r,0.3446,0,S,5.0
S5,20.0,79.0,78.0,82.0,76.0,79,1763.0,square1,r,0.4211,0,S,5.0
S5,21.0,86.0,68.0,80.0,72.0,86,1849.0,square1,r,0.2859,0,S,5.0
S5,22.0,93.0,80.0,85.0,84.0,93,1942.0,square1,r,0.2734,0,S,5.0
S5,23.0,87.0,73.0,76.0,70.0,87,2029.0,square1,r,0.2733,0,S,5.0
S5,24.0,85.0,69.0,81.0,78.0,85,2114.0,square1,r,0.2798,0,S,5.0
S5,25.0,89.0,77.0,77.0,76.0,89,2203.0,square1,r,0.2787,0,S,5.0
S5,26.0,84.0,71.0,81.0,75.0,84,2287.0,square1,r,0.2387,0,S,5.0
S5,27.0,84.0,75.0,82.0,71.0,84,2371.0,square1,r,0.2692,0,S,5.0
S5,28.0,83.0,72.0,82.0,78.0,83,2454.0,square1,r,0.3855,0,S,5.0
S5,29.0,91.0,67.0,79.0,74.0,91,2545.0,square1,r,0.2691,0,S,5.0
S5,30.0,82.0,69.0,81.0,77.0,82,2627.0,square1,r,0.2354,0,S,5.0
S5,31.0,82.0,72.0,80.0,78.0,82,2709.0,square1,r,0.4477,0,S,5.0
S5,32.0,83.0,73.0,91.0,80.0,83,2792.0,square1,r,0.121,0,S,5.0
S5,33.0,83.0,68.0,85.0,78.0,83,2875.0,square1,r,0.2947,0,S,5.0
S5,34.0,89.0,79.0,83.0,77.0,89,2964.0,square1,r,0.265,0,S,5.0
S5,35.0,88.0,72.0,79.0,80.0,88,3052.0,square1,r,0.4008,0,S,5.0
S5,36.0,90.0,74.0,84.0,76.0,74,3126.0,square2,j,0.4223,1,S,5.0
S5,37.0,85.0,75.0,80.0,82.0,85,3211.0,square1,r,0.2241,0,S,5.0
S5,38.0,78.0,74.0,85.0,79.0,78,3289.0,square1,r,0.3513,0,S,5.0
S5,39.0,87.0,73.0,87.0,85.0,85,3374.0,square4,f,0.116,3,S,5.0
S5,40.0,83.0,67.0,81.0,80.0,80,3454.0,square4,f,0.2407,3,S,5.0
S5,41.0,82.0,69.0,88.0,80.0,82,3536.0,square1,r,0.0972,0,S,5.0
S5,42.0,85.0,78.0,91.0,80.0,85,3621.0,square1,r,0.3278,0,S,5.0
S5,43.0,89.0,74.0,78.0,74.0,89,3710.0,square1,r,0.2648,0,S,5.0
S5,44.0,90.0,74.0,77.0,85.0,90,3800.0,square1,r,0.391,0,S,5.0
S5,45.0,89.0,68.0,81.0,78.0,89,3889.0,square1,r,0.2162,0,S,5.0
S5,46.0,86.0,70.0,86.0,68.0,86,3975.0,square1,r,0.2584,0,S,5.0
S5,47.0,90.0,77.0,85.0,84.0,90,4065.0,square1,r,0.1638,0,S,5.0
S5,48.0,76.0,66.0,82.0,79.0,76,4141.0,square1,r,0.2216,0,S,5.0
S5,49.0,84.0,73.0,82.0,75.0,84,4225.0,square1,r,0.3458,0,S,5.0
S9,0.0,36.0,36.0,32.0,32.0,32,32.0,square4,r,1.0419,3,S,9.0
S9,1.0,40.0,29.0,36.0,24.0,29,61.0,square2,i,0.5237,1,S,9.0
S9,2.0,31.0,43.0,22.0,29.0,22,83.0,square3,f,0.2071,2,S,9.0
S9,3.0,41.0,33.0,28.0,27.0,41,124.0,square1,j,0.2948,0,S,9.0
S9,4.0,34.0,29.0,32.0,31.0,34,158.0,square1,j,0.2609,0,S,9.0
S9,5.0,41.0,32.0,22.0,29.0,41,199.0,square1,j,0.5997,0,S,9.0
S9,6.0,44.0,30.0,21.0,28.0,44,243.0,square1,j,0.2234,0,S,9.0
S9,7.0,39.0,37.0,26.0,24.0,39,282.0,square1,j,0.2662,0,S,9.0
S9,8.0,41.0,33.0,23.0,20.0,23,305.0,square3,f,0.0184,2,S,9.0
S9,9.0,30.0,35.0,24.0,27.0,27,332.0,square4,r,0.362,3,S,9.0
S9,10.0,41.0,29.0,23.0,28.0,29,361.0,square2,i,0.2704,1,S,9.0
S9,11.0,37.0,38.0,22.0,33.0,37,398.0,square1,j,0.0247,0,S,9.0
S9,12.0,35.0,31.0,27.0,32.0,35,433.0,square1,j,0.2642,0,S,9.0
S9,13.0,38.0,37.0,30.0,29.0,38,471.0,square1,j,0.2669,0,S,9.0
S9,14.0,36.0,38.0,30.0,37.0,36,507.0,square1,j,0.2477,0,S,9.0
S9,15.0,40.0,29.0,27.0,24.0,40,547.0,square1,j,0.2661,0,S,9.0
S9,16.0,33.0,37.0,29.0,28.0,33,580.0,square1,j,0.2285,0,S,9.0
S9,17.0,41.0,32.0,36.0,31.0,41,621.0,square1,j,0.2325,0,S,9.0
S9,18.0,39.0,26.0,16.0,35.0,39,660.0,square1,j,0.2286,0,S,9.0
S9,19.0,35.0,30.0,23.0,27.0,35,695.0,square1,j,0.2671,0,S,9.0
S9,20.0,39.0,34.0,23.0,29.0,39,734.0,square1,j,0.23,0,S,9.0
S9,21.0,35.0,37.0,28.0,31.0,35,769.0,square1,j,0.2819,0,S,9.0
S9,22.0,37.0,30.0,23.0,38.0,37,806.0,square1,j,0.3541,0,S,9.0
S9,23.0,37.0,34.0,27.0,34.0,37,843.0,square1,j,0.3685,0,S,9.0
S9,24.0,31.0,34.0,26.0,27.0,31,874.0,square1,j,0.307,0,S,9.0
S9,25.0,38.0,40.0,29.0,24.0,38,912.0,square1,j,0.2844,0,S,9.0
S9,26.0,43.0,31.0,21.0,24.0,43,955.0,square1,j,0.2976,0,S,9.0
S9,27.0,30.0,31.0,23.0,28.0,30,985.0,square1,j,0.2681,0,S,9.0
S9,28.0,44.0,32.0,31.0,32.0,44,1029.0,square1,j,0.4173,0,S,9.0
S9,29.0,36.0,38.0,22.0,22.0,22,1051.0,square3,f,0.3858,2,S,9.0
S9,30.0,41.0,30.0,26.0,29.0,41,1092.0,square1,j,0.2798,0,S,9.0
S9,31.0,39.0,37.0,30.0,32.0,39,1131.0,square1,j,0.1637,0,S,9.0
S9,32.0,35.0,39.0,28.0,31.0,35,1166.0,square1,j,0.3143,0,S,9.0
S9,33.0,37.0,39.0,29.0,32.0,37,1203.0,square1,j,0.2986,0,S,9.0
S9,34.0,46.0,33.0,21.0,25.0,46,1249.0,square1,j,0.3387,0,S,9.0
S9,35.0,38.0,33.0,28.0,28.0,38,1287.0,square1,j,0.2389,0,S,9.0
S9,36.0,40.0,37.0,21.0,32.0,40,1327.0,square1,j,0.1287,0,S,9.0
S9,37.0,38.0,43.0,23.0,37.0,38,1365.0,square1,j,0.0284,0,S,9.0
S9,38.0,36.0,31.0,29.0,29.0,36,1401.0,square1,j,0.3139,0,S,9.0
S9,39.0,41.0,29.0,26.0,28.0,41,1442.0,square1,j,0.3285,0,S,9.0
S9,40.0,32.0,36.0,26.0,28.0,32,1474.0,square1,j,0.2566,0,S,9.0
S9,41.0,40.0,37.0,35.0,28.0,40,1514.0,square1,j,0.1175,0,S,9.0
S9,42.0,43.0,32.0,26.0,37.0,43,1557.0,square1,j,0.2591,0,S,9.0
S9,43.0,40.0,31.0,23.0,31.0,40,1597.0,square1,j,0.264,0,S,9.0
S9,44.0,42.0,38.0,24.0,40.0,42,1639.0,square1,j,0.2535,0,S,9.0
S9,45.0,36.0,35.0,30.0,33.0,36,1675.0,square1,j,0.2664,0,S,9.0
S9,46.0,38.0,30.0,33.0,26.0,38,1713.0,square1,j,0.3114,0,S,9.0
S9,47.0,39.0,37.0,25.0,26.0,39,1752.0,square1,j,0.2633,0,S,9.0
S9,48.0,36.0,35.0,26.0,27.0,36,1788.0,square1,j,0.2676,0,S,9.0
S9,49.0,40.0,32.0,24.0,28.0,40,1828.0,square1,j,0.3536,0,S,9.0
S6,0.0,40.0,29.0,39.0,26.0,99999,0.0,invalid,,,-1,S,6.0
S6,1.0,34.0,40.0,31.0,25.0,31,31.0,square3,r,0.9817,2,S,6.0
S6,2.0,37.0,31.0,25.0,30.0,31,62.0,square2,f,0.5044,1,S,6.0
S6,3.0,39.0,37.0,30.0,27.0,39,101.0,square1,i,0.2483,0,S,6.0
S6,4.0,42.0,40.0,28.0,32.0,32,133.0,square4,j,0.1804,3,S,6.0
S6,5.0,35.0,35.0,39.0,29.0,39,172.0,square3,r,0.1633,2,S,6.0
S6,6.0,48.0,30.0,37.0,33.0,37,209.0,square3,r,0.4399,2,S,6.0
S6,7.0,47.0,34.0,31.0,29.0,47,256.0,square1,i,0.1857,0,S,6.0
S6,8.0,43.0,35.0,30.0,25.0,43,299.0,square1,i,0.2498,0,S,6.0
S6,9.0,36.0,38.0,35.0,35.0,36,335.0,square1,i,0.2527,0,S,6.0
S6,10.0,38.0,35.0,31.0,21.0,38,373.0,square1,i,0.2706,0,S,6.0
S6,11.0,30.0,36.0,31.0,20.0,36,409.0,square2,f,0.345,1,S,6.0
S6,12.0,37.0,40.0,33.0,22.0,37,446.0,square1,i,0.1713,0,S,6.0
S6,13.0,32.0,41.0,35.0,29.0,32,478.0,square1,i,0.3292,0,S,6.0
S6,14.0,41.0,29.0,30.0,32.0,30,508.0,square3,r,0.0704,2,S,6.0
S6,15.0,43.0,37.0,31.0,27.0,43,551.0,square1,i,0.3288,0,S,6.0
S6,16.0,34.0,34.0,35.0,31.0,34,585.0,square1,i,0.2451,0,S,6.0
S6,17.0,47.0,40.0,29.0,28.0,28,613.0,square4,j,0.2469,3,S,6.0
S6,18.0,37.0,38.0,34.0,35.0,37,650.0,square1,i,0.3003,0,S,6.0
S6,19.0,36.0,39.0,31.0,26.0,36,686.0,square1,i,0.0288,0,S,6.0
S6,20.0,44.0,40.0,31.0,25.0,44,730.0,square1,i,0.169,0,S,6.0
S6,21.0,39.0,41.0,35.0,24.0,39,769.0,square1,i,0.106,0,S,6.0
S6,22.0,41.0,38.0,41.0,31.0,41,810.0,square1,i,0.2541,0,S,6.0
S6,23.0,37.0,31.0,30.0,32.0,37,847.0,square1,i,0.6906,0,S,6.0
S6,24.0,48.0,34.0,34.0,21.0,34,881.0,square3,r,0.2854,2,S,6.0
S6,25.0,42.0,45.0,26.0,29.0,42,923.0,square1,i,0.2989,0,S,6.0
S6,26.0,40.0,39.0,36.0,28.0,40,963.0,square1,i,0.2831,0,S,6.0
S6,27.0,42.0,33.0,29.0,29.0,42,1005.0,square1,i,0.2651,0,S,6.0
S6,28.0,41.0,30.0,29.0,29.0,41,1046.0,square1,i,0.0568,0,S,6.0
S6,29.0,42.0,40.0,32.0,27.0,42,1088.0,square1,i,0.195,0,S,6.0
S6,30.0,42.0,36.0,30.0,26.0,42,1130.0,square1,i,0.1329,0,S,6.0
S6,31.0,42.0,34.0,35.0,29.0,42,1172.0,square1,i,0.0961,0,S,6.0
S6,32.0,35.0,36.0,31.0,23.0,35,1207.0,square1,i,0.1333,0,S,6.0
S6,33.0,35.0,31.0,35.0,30.0,35,1242.0,square1,i,0.0046,0,S,6.0
S6,34.0,40.0,38.0,31.0,27.0,40,1282.0,square1,i,0.2216,0,S,6.0
S6,35.0,42.0,37.0,34.0,34.0,42,1324.0,square1,i,0.264,0,S,6.0
S6,36.0,37.0,46.0,31.0,34.0,37,1361.0,square1,i,0.2627,0,S,6.0
S6,37.0,38.0,40.0,30.0,26.0,38,1399.0,square1,i,0.2515,0,S,6.0
S6,38.0,36.0,34.0,31.0,33.0,36,1435.0,square1,i,0.249,0,S,6.0
S6,39.0,44.0,37.0,33.0,31.0,44,1479.0,square1,i,0.3073,0,S,6.0
S6,40.0,40.0,38.0,31.0,25.0,40,1519.0,square1,i,0.2253,0,S,6.0
S6,41.0,49.0,35.0,35.0,28.0,49,1568.0,square1,i,0.2121,0,S,6.0
S6,42.0,44.0,40.0,32.0,28.0,44,1612.0,square1,i,0.2659,0,S,6.0
S6,43.0,43.0,36.0,33.0,26.0,43,1655.0,square1,i,0.239,0,S,6.0
S6,44.0,38.0,33.0,34.0,26.0,38,1693.0,square1,i,0.2543,0,S,6.0
S6,45.0,32.0,35.0,30.0,28.0,32,1725.0,square1,i,0.199,0,S,6.0
S6,46.0,38.0,36.0,34.0,30.0,38,1763.0,square1,i,0.2315,0,S,6.0
S6,47.0,44.0,35.0,32.0,31.0,44,1807.0,square1,i,0.2538,0,S,6.0
S6,48.0,40.0,40.0,31.0,33.0,40,1847.0,square1,i,0.3217,0,S,6.0
S6,49.0,41.0,29.0,29.0,29.0,41,1888.0,square1,i,0.2801,0,S,6.0
S4,0.0,18.0,16.0,34.0,20.0,34,34.0,square3,f,1.332,2,S,4.0
S4,1.0,33.0,26.0,26.0,23.0,99999,34.0,invalid,,,-1,S,4.0
S4,2.0,35.0,15.0,33.0,22.0,22,56.0,square4,r,0.5054,3,S,4.0
S4,3.0,28.0,19.0,27.0,27.0,27,83.0,square3,f,0.318,2,S,4.0
S4,4.0,27.0,16.0,25.0,28.0,27,110.0,square1,j,0.268,0,S,4.0
S4,5.0,23.0,22.0,31.0,24.0,22,132.0,square2,i,0.1953,1,S,4.0
S4,6.0,25.0,20.0,34.0,23.0,23,155.0,square4,r,0.2669,3,S,4.0
S4,7.0,21.0,22.0,30.0,21.0,30,185.0,square3,f,0.3143,2,S,4.0
S4,8.0,33.0,24.0,33.0,17.0,33,218.0,square1,j,0.2797,0,S,4.0
S4,9.0,24.0,18.0,31.0,28.0,24,242.0,square1,j,0.3157,0,S,4.0
S4,10.0,31.0,26.0,35.0,20.0,35,277.0,square3,f,0.2485,2,S,4.0
S4,11.0,25.0,15.0,31.0,25.0,31,308.0,square3,f,0.354,2,S,4.0
S4,12.0,24.0,16.0,29.0,22.0,29,337.0,square3,f,0.3564,2,S,4.0
S4,13.0,28.0,23.0,25.0,17.0,28,365.0,square1,j,0.2786,0,S,4.0
S4,14.0,22.0,23.0,21.0,23.0,22,387.0,square1,j,0.225,0,S,4.0
S4,15.0,25.0,19.0,28.0,25.0,25,412.0,square1,j,0.2697,0,S,4.0
S4,16.0,26.0,17.0,30.0,21.0,30,442.0,square3,f,0.258,2,S,4.0
S4,17.0,22.0,21.0,29.0,22.0,29,471.0,square3,f,0.1913,2,S,4.0
S4,18.0,28.0,22.0,32.0,22.0,32,503.0,square3,f,0.2245,2,S,4.0
S4,19.0,26.0,19.0,31.0,26.0,31,534.0,square3,f,0.0009,2,S,4.0
S4,20.0,28.0,18.0,28.0,25.0,28,562.0,square3,f,0.1177,2,S,4.0
S4,21.0,33.0,26.0,21.0,29.0,21,583.0,square3,f,0.1234,2,S,4.0
S4,22.0,31.0,19.0,29.0,20.0,29,612.0,square3,f,0.166,2,S,4.0
S4,23.0,27.0,21.0,36.0,26.0,36,648.0,square3,f,0.022,2,S,4.0
S4,24.0,28.0,15.0,32.0,21.0,32,680.0,square3,f,0.2621,2,S,4.0
S4,25.0,27.0,18.0,28.0,25.0,28,708.0,square3,f,0.2045,2,S,4.0
S4,26.0,26.0,20.0,27.0,14.0,27,735.0,square3,f,0.2235,2,S,4.0
S4,27.0,28.0,19.0,36.0,18.0,36,771.0,square3,f,0.2393,2,S,4.0
S4,28.0,28.0,19.0,28.0,23.0,28,799.0,square3,f,0.3198,2,S,4.0
S4,29.0,25.0,22.0,29.0,23.0,29,828.0,square3,f,0.2387,2,S,4.0
S4,30.0,26.0,16.0,30.0,20.0,30,858.0,square3,f,0.2398,2,S,4.0
S4,31.0,23.0,25.0,26.0,30.0,26,884.0,square3,f,0.2283,2,S,4.0
S4,32.0,21.0,26.0,22.0,23.0,22,906.0,square3,f,0.1981,2,S,4.0
S4,33.0,25.0,22.0,24.0,17.0,24,930.0,square3,f,0.2516,2,S,4.0
S4,34.0,30.0,22.0,33.0,24.0,33,963.0,square3,f,0.2629,2,S,4.0
S4,35.0,23.0,21.0,35.0,26.0,35,998.0,square3,f,0.2208,2,S,4.0
S4,36.0,19.0,21.0,33.0,24.0,33,1031.0,square3,f,0.2624,2,S,4.0
S4,37.0,20.0,17.0,26.0,26.0,26,1057.0,square3,f,0.2289,2,S,4.0
S4,38.0,28.0,20.0,28.0,26.0,28,1085.0,square3,f,0.2799,2,S,4.0
S4,39.0,28.0,23.0,40.0,27.0,40,1125.0,square3,f,0.2464,2,S,4.0
S4,40.0,25.0,24.0,32.0,22.0,32,1157.0,square3,f,0.2508,2,S,4.0
S4,41.0,23.0,23.0,26.0,17.0,26,1183.0,square3,f,0.2551,2,S,4.0
S4,42.0,26.0,18.0,33.0,22.0,33,1216.0,square3,f,0.0397,2,S,4.0
S4,43.0,22.0,21.0,36.0,25.0,36,1252.0,square3,f,0.2125,2,S,4.0
S4,44.0,21.0,18.0,33.0,14.0,33,1285.0,square3,f,0.2225,2,S,4.0
S4,45.0,29.0,19.0,30.0,29.0,30,1315.0,square3,f,0.1963,2,S,4.0
S4,46.0,21.0,16.0,22.0,23.0,22,1337.0,square3,f,0.2958,2,S,4.0
S4,47.0,22.0,18.0,28.0,22.0,28,1365.0,square3,f,0.2395,2,S,4.0
S4,48.0,33.0,21.0,32.0,26.0,32,1397.0,square3,f,0.2496,2,S,4.0
S4,49.0,23.0,17.0,20.0,21.0,20,1417.0,square3,f,0.2343,2,S,4.0
S1,0.0,72.0,58.0,70.0,66.0,99999,0.0,invalid,,,-1,S,1.0
S1,1.0,75.0,64.0,66.0,69.0,66,66.0,square3,r,0.5584,2,S,1.0
S1,2.0,75.0,62.0,62.0,79.0,79,145.0,square4,i,0.1297,3,S,1.0
S1,3.0,68.0,62.0,63.0,69.0,68,213.0,square1,f,0.2625,0,S,1.0
S1,4.0,82.0,63.0,64.0,73.0,63,276.0,square2,j,0.2419,1,S,1.0
S1,5.0,66.0,70.0,65.0,73.0,73,349.0,square4,i,0.5626,3,S,1.0
S1,6.0,73.0,65.0,62.0,65.0,65,414.0,square4,i,0.2413,3,S,1.0
S1,7.0,70.0,61.0,65.0,66.0,66,480.0,square4,i,0.5135,3,S,1.0
S1,8.0,78.0,63.0,67.0,68.0,67,547.0,square3,r,0.2224,2,S,1.0
S1,9.0,74.0,67.0,66.0,68.0,66,613.0,square3,r,0.2748,2,S,1.0
S1,10.0,73.0,59.0,68.0,68.0,68,681.0,square3,r,0.2485,2,S,1.0
S1,11.0,76.0,65.0,62.0,81.0,81,762.0,square4,i,0.2134,3,S,1.0
S1,12.0,77.0,66.0,69.0,63.0,63,825.0,square4,i,0.2159,3,S,1.0
S1,13.0,75.0,63.0,68.0,73.0,73,898.0,square4,i,0.2347,3,S,1.0
S1,14.0,67.0,60.0,67.0,69.0,69,967.0,square4,i,0.295,3,S,1.0
S1,15.0,70.0,63.0,69.0,73.0,73,1040.0,square4,i,0.3586,3,S,1.0
S1,16.0,69.0,61.0,69.0,69.0,69,1109.0,square4,i,0.1188,3,S,1.0
S1,17.0,73.0,68.0,67.0,73.0,73,1182.0,square4,i,0.2015,3,S,1.0
S1,18.0,70.0,58.0,73.0,66.0,66,1248.0,square4,i,0.2211,3,S,1.0
S1,19.0,75.0,58.0,62.0,68.0,75,1323.0,square1,f,0.0957,0,S,1.0
S1,20.0,76.0,58.0,72.0,67.0,76,1399.0,square1,f,0.5523,0,S,1.0
S1,21.0,69.0,66.0,66.0,67.0,69,1468.0,square1,f,0.2355,0,S,1.0
S1,22.0,70.0,68.0,65.0,65.0,68,1536.0,square2,j,0.0807,1,S,1.0
S1,23.0,71.0,60.0,64.0,64.0,60,1596.0,square2,j,0.4179,1,S,1.0
S1,24.0,70.0,72.0,62.0,67.0,67,1663.0,square4,i,0.1404,3,S,1.0
S1,25.0,68.0,60.0,70.0,65.0,65,1728.0,square4,i,0.1209,3,S,1.0
S1,26.0,76.0,64.0,72.0,69.0,69,1797.0,square4,i,0.2796,3,S,1.0
S1,27.0,71.0,56.0,70.0,65.0,65,1862.0,square4,i,0.3551,3,S,1.0
S1,28.0,67.0,67.0,71.0,76.0,76,1938.0,square4,i,0.2845,3,S,1.0
S1,29.0,78.0,64.0,64.0,74.0,74,2012.0,square4,i,0.3284,3,S,1.0
S1,30.0,74.0,63.0,65.0,71.0,71,2083.0,square4,i,0.2998,3,S,1.0
S1,31.0,78.0,58.0,69.0,69.0,78,2161.0,square1,f,0.2564,0,S,1.0
S1,32.0,71.0,67.0,68.0,60.0,71,2232.0,square1,f,0.2208,0,S,1.0
S1,33.0,68.0,63.0,65.0,73.0,68,2300.0,square1,f,0.3004,0,S,1.0
S1,34.0,71.0,62.0,74.0,73.0,71,2371.0,square1,f,0.1874,0,S,1.0
S1,35.0,75.0,59.0,67.0,77.0,75,2446.0,square1,f,0.2543,0,S,1.0
S1,36.0,77.0,60.0,66.0,67.0,77,2523.0,square1,f,0.2588,0,S,1.0
S1,37.0,69.0,60.0,69.0,75.0,69,2592.0,square1,f,0.2426,0,S,1.0
S1,38.0,77.0,64.0,62.0,70.0,77,2669.0,square1,f,0.1904,0,S,1.0
S1,39.0,72.0,66.0,69.0,65.0,72,2741.0,square1,f,0.1895,0,S,1.0
S1,40.0,69.0,63.0,66.0,69.0,69,2810.0,square1,f,0.2885,0,S,1.0
S1,41.0,72.0,62.0,70.0,70.0,72,2882.0,square1,f,0.2784,0,S,1.0
S1,42.0,78.0,60.0,63.0,62.0,78,2960.0,square1,f,0.3388,0,S,1.0
S1,43.0,71.0,62.0,67.0,73.0,71,3031.0,square1,f,0.2722,0,S,1.0
S1,44.0,75.0,63.0,69.0,73.0,75,3106.0,square1,f,0.297,0,S,1.0
S1,45.0,66.0,60.0,68.0,73.0,66,3172.0,square1,f,0.2378,0,S,1.0
S1,46.0,74.0,67.0,69.0,71.0,74,3246.0,square1,f,0.2346,0,S,1.0
S1,47.0,71.0,66.0,68.0,70.0,71,3317.0,square1,f,0.262,0,S,1.0
S1,48.0,72.0,75.0,71.0,77.0,72,3389.0,square1,f,0.2467,0,S,1.0
S1,49.0,65.0,57.0,66.0,75.0,65,3454.0,square1,f,0.2356,0,S,1.0
S10,0.0,72.0,76.0,80.0,64.0,72,72.0,square1,r,0.6436,0,S,10.0
S10,1.0,76.0,75.0,74.0,65.0,75,147.0,square2,i,0.6028,1,S,10.0
S10,2.0,70.0,72.0,79.0,74.0,72,219.0,square2,i,0.8744,1,S,10.0
S10,3.0,69.0,77.0,76.0,68.0,77,296.0,square2,i,0.3212,1,S,10.0
S10,4.0,72.0,79.0,77.0,70.0,72,368.0,square1,r,0.3892,0,S,10.0
S10,5.0,68.0,74.0,72.0,64.0,68,436.0,square1,r,0.2549,0,S,10.0
S10,6.0,70.0,77.0,72.0,62.0,70,506.0,square1,r,0.29,0,S,10.0
S10,7.0,78.0,81.0,80.0,74.0,74,580.0,square4,f,0.3543,3,S,10.0
S10,8.0,78.0,78.0,82.0,66.0,66,646.0,square4,f,0.2478,3,S,10.0
S10,9.0,69.0,76.0,77.0,65.0,65,711.0,square4,f,0.2806,3,S,10.0
S10,10.0,72.0,78.0,72.0,75.0,72,783.0,square3,j,0.2949,2,S,10.0
S10,11.0,71.0,76.0,78.0,66.0,78,861.0,square3,j,0.2289,2,S,10.0
S10,12.0,73.0,83.0,79.0,69.0,79,940.0,square3,j,0.2966,2,S,10.0
S10,13.0,68.0,77.0,65.0,65.0,77,1017.0,square2,i,0.1946,1,S,10.0
S10,14.0,69.0,84.0,79.0,65.0,84,1101.0,square2,i,0.0862,1,S,10.0
S10,15.0,72.0,84.0,70.0,71.0,84,1185.0,square2,i,0.2337,1,S,10.0
S10,16.0,79.0,80.0,82.0,67.0,82,1267.0,square3,j,0.237,2,S,10.0
S10,17.0,69.0,83.0,75.0,70.0,75,1342.0,square3,j,0.2575,2,S,10.0
S10,18.0,69.0,75.0,69.0,68.0,69,1411.0,square3,j,0.2826,2,S,10.0
S10,19.0,70.0,83.0,73.0,66.0,83,1494.0,square2,i,0.2539,1,S,10.0
S10,20.0,69.0,83.0,75.0,66.0,83,1577.0,square2,i,0.0617,1,S,10.0
S10,21.0,77.0,70.0,75.0,70.0,70,1647.0,square2,i,0.1738,1,S,10.0
S10,22.0,73.0,77.0,81.0,69.0,77,1724.0,square2,i,0.0673,1,S,10.0
S10,23.0,73.0,78.0,70.0,65.0,78,1802.0,square2,i,0.2636,1,S,10.0
S10,24.0,70.0,80.0,75.0,66.0,80,1882.0,square2,i,0.1078,1,S,10.0
S10,25.0,70.0,80.0,73.0,72.0,80,1962.0,square2,i,0.6176,1,S,10.0
S10,26.0,73.0,75.0,73.0,75.0,75,2037.0,square2,i,0.2838,1,S,10.0
S10,27.0,77.0,81.0,83.0,66.0,81,2118.0,square2,i,0.0574,1,S,10.0
S10,28.0,73.0,79.0,79.0,73.0,79,2197.0,square2,i,0.1968,1,S,10.0
S10,29.0,73.0,79.0,72.0,69.0,79,2276.0,square2,i,0.2303,1,S,10.0
S10,30.0,71.0,85.0,79.0,69.0,79,2355.0,square3,j,0.5051,2,S,10.0
S10,31.0,71.0,85.0,83.0,66.0,85,2440.0,square2,i,0.2072,1,S,10.0
S10,32.0,78.0,79.0,77.0,65.0,79,2519.0,square2,i,0.2681,1,S,10.0
S10,33.0,83.0,79.0,72.0,68.0,79,2598.0,square2,i,0.2717,1,S,10.0
S10,34.0,68.0,74.0,79.0,72.0,74,2672.0,square2,i,0.2355,1,S,10.0
S10,35.0,70.0,83.0,79.0,67.0,83,2755.0,square2,i,0.1614,1,S,10.0
S10,36.0,67.0,76.0,75.0,72.0,76,2831.0,square2,i,0.1166,1,S,10.0
S10,37.0,76.0,82.0,79.0,60.0,82,2913.0,square2,i,0.4976,1,S,10.0
S10,38.0,72.0,75.0,69.0,68.0,75,2988.0,square2,i,0.0916,1,S,10.0
S10,39.0,73.0,78.0,76.0,70.0,78,3066.0,square2,i,0.6044,1,S,10.0
S10,40.0,76.0,77.0,66.0,60.0,77,3143.0,square2,i,0.2463,1,S,10.0
S10,41.0,74.0,83.0,73.0,67.0,83,3226.0,square2,i,0.2786,1,S,10.0
S10,42.0,72.0,69.0,80.0,63.0,69,3295.0,square2,i,0.2717,1,S,10.0
S10,43.0,69.0,74.0,72.0,68.0,74,3369.0,square2,i,0.2919,1,S,10.0
S10,44.0,67.0,76.0,70.0,65.0,76,3445.0,square2,i,0.3045,1,S,10.0
S10,45.0,76.0,81.0,74.0,72.0,81,3526.0,square2,i,0.3975,1,S,10.0
S10,46.0,76.0,79.0,76.0,66.0,79,3605.0,square2,i,0.3218,1,S,10.0
S10,47.0,67.0,81.0,84.0,60.0,81,3686.0,square2,i,0.263,1,S,10.0
S10,48.0,73.0,83.0,75.0,66.0,83,3769.0,square2,i,0.2835,1,S,10.0
S10,49.0,66.0,77.0,74.0,71.0,77,3846.0,square2,i,0.3704,1,S,10.0
V1,0.0,46.0,61.0,52.0,71.0,52,52.0,square3,r,0.7334,2,V,1.0
V1,1.0,45.0,63.0,54.0,78.0,45,97.0,square1,i,0.2896,0,V,1.0
V1,2.0,51.0,58.0,59.0,77.0,58,155.0,square2,f,0.1458,1,V,1.0
V1,3.0,53.0,65.0,56.0,75.0,65,220.0,square2,f,0.2641,1,V,1.0
V1,4.0,49.0,68.0,53.0,72.0,68,288.0,square2,f,0.254,1,V,1.0
V1,5.0,47.0,70.0,59.0,76.0,70,358.0,square2,f,0.0639,1,V,1.0
V1,6.0,55.0,63.0,54.0,76.0,63,421.0,square2,f,0.2248,1,V,1.0
V1,7.0,47.0,67.0,55.0,74.0,74,495.0,square4,j,0.318,3,V,1.0
V1,8.0,47.0,65.0,46.0,76.0,76,571.0,square4,j,0.2388,3,V,1.0
V1,9.0,46.0,68.0,59.0,78.0,78,649.0,square4,j,0.2546,3,V,1.0
V1,10.0,58.0,67.0,58.0,79.0,79,728.0,square4,j,0.2395,3,V,1.0
V1,11.0,44.0,61.0,54.0,72.0,72,800.0,square4,j,0.2184,3,V,1.0
V1,12.0,44.0,65.0,56.0,75.0,75,875.0,square4,j,0.2643,3,V,1.0
V1,13.0,47.0,63.0,53.0,73.0,73,948.0,square4,j,0.2711,3,V,1.0
V1,14.0,49.0,66.0,56.0,75.0,75,1023.0,square4,j,0.2489,3,V,1.0
V1,15.0,49.0,66.0,52.0,79.0,79,1102.0,square4,j,0.2411,3,V,1.0
V1,16.0,51.0,61.0,48.0,72.0,72,1174.0,square4,j,0.2627,3,V,1.0
V1,17.0,46.0,61.0,59.0,71.0,59,1233.0,square3,r,0.4693,2,V,1.0
V1,18.0,45.0,61.0,53.0,72.0,72,1305.0,square4,j,0.2798,3,V,1.0
V1,19.0,49.0,63.0,54.0,76.0,76,1381.0,square4,j,0.2704,3,V,1.0
V1,20.0,46.0,66.0,52.0,72.0,72,1453.0,square4,j,0.2572,3,V,1.0
V1,21.0,50.0,65.0,51.0,73.0,73,1526.0,square4,j,0.2448,3,V,1.0
V1,22.0,56.0,62.0,56.0,77.0,77,1603.0,square4,j,0.1687,3,V,1.0
V1,23.0,45.0,67.0,54.0,83.0,83,1686.0,square4,j,0.1223,3,V,1.0
V1,24.0,46.0,69.0,57.0,71.0,71,1757.0,square4,j,0.2127,3,V,1.0
V1,25.0,41.0,65.0,55.0,76.0,76,1833.0,square4,j,0.2127,3,V,1.0
V1,26.0,51.0,60.0,55.0,74.0,74,1907.0,square4,j,0.2281,3,V,1.0
V1,27.0,52.0,63.0,56.0,73.0,73,1980.0,square4,j,0.2341,3,V,1.0
V1,28.0,50.0,68.0,50.0,76.0,68,2048.0,square2,f,0.2294,1,V,1.0
V1,29.0,51.0,60.0,54.0,74.0,74,2122.0,square4,j,0.2783,3,V,1.0
V1,30.0,35.0,67.0,57.0,40.0,35,2157.0,square1,i,0.2244,0,V,1.0
V1,31.0,38.0,60.0,52.0,35.0,35,2192.0,square4,j,0.2522,3,V,1.0
V1,32.0,37.0,67.0,52.0,41.0,52,2244.0,square3,r,0.2948,2,V,1.0
V1,33.0,37.0,62.0,53.0,42.0,62,2306.0,square2,f,0.4126,1,V,1.0
V1,34.0,35.0,58.0,54.0,43.0,58,2364.0,square2,f,0.2855,1,V,1.0
V1,35.0,40.0,60.0,50.0,44.0,40,2404.0,square1,i,0.2628,0,V,1.0
V1,36.0,39.0,66.0,50.0,39.0,39,2443.0,square4,j,0.2164,3,V,1.0
V1,37.0,32.0,59.0,54.0,38.0,54,2497.0,square3,r,0.2736,2,V,1.0
V1,38.0,32.0,64.0,50.0,39.0,64,2561.0,square2,f,0.2827,1,V,1.0
V1,39.0,37.0,60.0,45.0,40.0,60,2621.0,square2,f,0.5021,1,V,1.0
V1,40.0,35.0,61.0,54.0,43.0,61,2682.0,square2,f,0.2836,1,V,1.0
V1,41.0,33.0,62.0,49.0,42.0,62,2744.0,square2,f,0.1682,1,V,1.0
V1,42.0,31.0,70.0,52.0,42.0,70,2814.0,square2,f,0.2638,1,V,1.0
V1,43.0,37.0,59.0,48.0,41.0,59,2873.0,square2,f,0.2705,1,V,1.0
V1,44.0,39.0,63.0,53.0,44.0,63,2936.0,square2,f,0.2945,1,V,1.0
V1,45.0,37.0,62.0,48.0,41.0,62,2998.0,square2,f,0.3247,1,V,1.0
V1,46.0,34.0,65.0,52.0,39.0,65,3063.0,square2,f,0.0299,1,V,1.0
V1,47.0,42.0,59.0,52.0,43.0,59,3122.0,square2,f,0.1707,1,V,1.0
V1,48.0,39.0,62.0,50.0,38.0,62,3184.0,square2,f,0.2334,1,V,1.0
V1,49.0,33.0,63.0,49.0,40.0,63,3247.0,square2,f,0.2458,1,V,1.0
V1,50.0,38.0,66.0,54.0,37.0,66,3313.0,square2,f,0.228,1,V,1.0
V1,51.0,33.0,66.0,50.0,37.0,66,3379.0,square2,f,0.2815,1,V,1.0
V1,52.0,41.0,65.0,55.0,44.0,44,3423.0,square4,j,0.2801,3,V,1.0
V1,53.0,75.0,50.0,46.0,60.0,50,3473.0,square2,f,0.2541,1,V,1.0
V1,54.0,74.0,53.0,45.0,61.0,45,3518.0,square3,r,0.3073,2,V,1.0
V1,55.0,74.0,54.0,43.0,65.0,74,3592.0,square1,i,0.3034,0,V,1.0
V1,56.0,73.0,54.0,44.0,56.0,73,3665.0,square1,i,0.2559,0,V,1.0
V1,57.0,67.0,58.0,52.0,63.0,67,3732.0,square1,i,0.2703,0,V,1.0
V1,58.0,72.0,51.0,43.0,62.0,72,3804.0,square1,i,0.1955,0,V,1.0
V1,59.0,68.0,47.0,49.0,56.0,68,3872.0,square1,i,0.1803,0,V,1.0
V1,60.0,72.0,55.0,46.0,65.0,72,3944.0,square1,i,0.2147,0,V,1.0
V1,61.0,76.0,50.0,46.0,62.0,76,4020.0,square1,i,0.28,0,V,1.0
V1,62.0,77.0,58.0,46.0,66.0,77,4097.0,square1,i,0.5961,0,V,1.0
V1,63.0,72.0,53.0,48.0,66.0,72,4169.0,square1,i,0.2463,0,V,1.0
V1,64.0,70.0,49.0,49.0,60.0,70,4239.0,square1,i,0.2883,0,V,1.0
V1,65.0,68.0,49.0,46.0,66.0,68,4307.0,square1,i,0.2449,0,V,1.0
V1,66.0,77.0,52.0,41.0,64.0,77,4384.0,square1,i,0.3508,0,V,1.0
V1,67.0,74.0,56.0,42.0,69.0,74,4458.0,square1,i,0.2868,0,V,1.0
V1,68.0,77.0,50.0,46.0,68.0,77,4535.0,square1,i,0.0542,0,V,1.0
V1,69.0,76.0,48.0,45.0,63.0,76,4611.0,square1,i,0.1583,0,V,1.0
V1,70.0,71.0,53.0,50.0,65.0,71,4682.0,square1,i,0.3,0,V,1.0
V1,71.0,70.0,56.0,44.0,59.0,70,4752.0,square1,i,0.2658,0,V,1.0
V1,72.0,74.0,54.0,55.0,61.0,74,4826.0,square1,i,0.3068,0,V,1.0
V1,73.0,73.0,53.0,47.0,61.0,73,4899.0,square1,i,0.2344,0,V,1.0
V1,74.0,71.0,53.0,51.0,65.0,71,4970.0,square1,i,0.2521,0,V,1.0
V1,75.0,72.0,51.0,48.0,64.0,72,5042.0,square1,i,0.2626,0,V,1.0
V1,76.0,72.0,53.0,49.0,62.0,72,5114.0,square1,i,0.2304,0,V,1.0
V1,77.0,62.0,76.0,64.0,86.0,62,5176.0,square1,i,0.3286,0,V,1.0
V1,78.0,61.0,74.0,63.0,87.0,61,5237.0,square1,i,0.395,0,V,1.0
V1,79.0,56.0,78.0,67.0,89.0,67,5304.0,square3,r,0.34,2,V,1.0
V1,80.0,59.0,75.0,63.0,84.0,63,5367.0,square3,r,0.3022,2,V,1.0
V1,81.0,63.0,74.0,68.0,82.0,68,5435.0,square3,r,0.2949,2,V,1.0
V1,82.0,59.0,75.0,67.0,80.0,67,5502.0,square3,r,0.2458,2,V,1.0
V1,83.0,58.0,77.0,63.0,82.0,63,5565.0,square3,r,0.3391,2,V,1.0
V1,84.0,57.0,76.0,64.0,87.0,57,5622.0,square1,i,0.3005,0,V,1.0
V1,85.0,61.0,73.0,66.0,83.0,66,5688.0,square3,r,0.2899,2,V,1.0
V1,86.0,60.0,71.0,66.0,85.0,66,5754.0,square3,r,0.2794,2,V,1.0
V1,87.0,61.0,80.0,73.0,84.0,73,5827.0,square3,r,0.2174,2,V,1.0
V1,88.0,67.0,77.0,67.0,85.0,67,5894.0,square3,r,0.2642,2,V,1.0
V1,89.0,60.0,79.0,63.0,86.0,79,5973.0,square2,f,0.2618,1,V,1.0
V1,90.0,60.0,74.0,66.0,88.0,74,6047.0,square2,f,0.2505,1,V,1.0
V1,91.0,57.0,81.0,61.0,79.0,81,6128.0,square2,f,0.2625,1,V,1.0
V1,92.0,61.0,78.0,61.0,84.0,78,6206.0,square2,f,0.1151,1,V,1.0
V1,93.0,64.0,72.0,69.0,83.0,72,6278.0,square2,f,0.2114,1,V,1.0
V1,94.0,64.0,73.0,68.0,83.0,73,6351.0,square2,f,0.0737,1,V,1.0
V1,95.0,61.0,69.0,68.0,87.0,69,6420.0,square2,f,0.1619,1,V,1.0
V1,96.0,55.0,77.0,65.0,88.0,77,6497.0,square2,f,0.1539,1,V,1.0
V1,97.0,61.0,75.0,63.0,82.0,75,6572.0,square2,f,0.1574,1,V,1.0
V1,98.0,59.0,71.0,66.0,82.0,71,6643.0,square2,f,0.1979,1,V,1.0
V1,99.0,61.0,69.0,67.0,84.0,69,6712.0,square2,f,0.0446,1,V,1.0
V9,0.0,20.0,29.0,37.0,45.0,45,45.0,square4,r,0.4031,3,V,9.0
V9,1.0,21.0,32.0,39.0,45.0,32,77.0,square2,i,0.2165,1,V,9.0
V9,2.0,16.0,27.0,41.0,48.0,41,118.0,square3,f,0.2784,2,V,9.0
V9,3.0,20.0,30.0,42.0,50.0,20,138.0,square1,j,0.2338,0,V,9.0
V9,4.0,22.0,34.0,37.0,47.0,47,185.0,square4,r,0.1962,3,V,9.0
V9,5.0,17.0,32.0,38.0,49.0,49,234.0,square4,r,0.1455,3,V,9.0
V9,6.0,17.0,25.0,39.0,47.0,47,281.0,square4,r,0.1871,3,V,9.0
V9,7.0,22.0,28.0,33.0,48.0,48,329.0,square4,r,0.2463,3,V,9.0
V9,8.0,20.0,24.0,34.0,41.0,41,370.0,square4,r,0.2375,3,V,9.0
V9,9.0,20.0,33.0,30.0,51.0,51,421.0,square4,r,0.2279,3,V,9.0
V9,10.0,21.0,35.0,38.0,50.0,50,471.0,square4,r,0.2173,3,V,9.0
V9,11.0,19.0,29.0,44.0,45.0,45,516.0,square4,r,0.2782,3,V,9.0
V9,12.0,27.0,24.0,38.0,54.0,54,570.0,square4,r,0.2734,3,V,9.0
V9,13.0,15.0,26.0,37.0,50.0,50,620.0,square4,r,0.2533,3,V,9.0
V9,14.0,24.0,26.0,39.0,42.0,42,662.0,square4,r,0.2003,3,V,9.0
V9,15.0,26.0,27.0,43.0,49.0,43,705.0,square3,f,0.2559,2,V,9.0
V9,16.0,19.0,30.0,42.0,49.0,42,747.0,square3,f,0.2452,2,V,9.0
V9,17.0,21.0,30.0,34.0,49.0,34,781.0,square3,f,0.1708,2,V,9.0
V9,18.0,25.0,33.0,41.0,51.0,51,832.0,square4,r,0.1993,3,V,9.0
V9,19.0,17.0,31.0,41.0,45.0,45,877.0,square4,r,0.2779,3,V,9.0
V9,20.0,19.0,31.0,34.0,49.0,49,926.0,square4,r,0.2465,3,V,9.0
V9,21.0,23.0,29.0,37.0,48.0,48,974.0,square4,r,0.1447,3,V,9.0
V9,22.0,15.0,32.0,36.0,48.0,48,1022.0,square4,r,0.2486,3,V,9.0
V9,23.0,25.0,33.0,39.0,47.0,47,1069.0,square4,r,0.2306,3,V,9.0
V9,24.0,21.0,30.0,38.0,52.0,52,1121.0,square4,r,0.2392,3,V,9.0
V9,25.0,25.0,29.0,42.0,48.0,48,1169.0,square4,r,0.2631,3,V,9.0
V9,26.0,22.0,29.0,39.0,47.0,47,1216.0,square4,r,0.2242,3,V,9.0
V9,27.0,17.0,31.0,45.0,41.0,17,1233.0,square1,j,0.1351,0,V,9.0
V9,28.0,29.0,28.0,43.0,43.0,43,1276.0,square4,r,0.2247,3,V,9.0
V9,29.0,20.0,31.0,43.0,49.0,49,1325.0,square4,r,0.3214,3,V,9.0
V9,30.0,23.0,33.0,39.0,48.0,48,1373.0,square4,r,0.2164,3,V,9.0
V9,31.0,20.0,27.0,38.0,53.0,27,1400.0,square2,i,0.2181,1,V,9.0
V9,32.0,23.0,29.0,37.0,49.0,49,1449.0,square4,r,0.1128,3,V,9.0
V9,33.0,24.0,33.0,37.0,49.0,49,1498.0,square4,r,0.2363,3,V,9.0
V9,34.0,43.0,58.0,48.0,30.0,30,1528.0,square4,r,0.1631,3,V,9.0
V9,35.0,48.0,59.0,45.0,34.0,34,1562.0,square4,r,0.3343,3,V,9.0
V9,36.0,39.0,56.0,54.0,32.0,54,1616.0,square3,f,0.2448,2,V,9.0
V9,37.0,40.0,57.0,50.0,35.0,50,1666.0,square3,f,0.2216,2,V,9.0
V9,38.0,49.0,62.0,51.0,33.0,51,1717.0,square3,f,0.2664,2,V,9.0
V9,39.0,45.0,61.0,48.0,34.0,48,1765.0,square3,f,0.3465,2,V,9.0
V9,40.0,40.0,65.0,51.0,29.0,51,1816.0,square3,f,0.4308,2,V,9.0
V9,41.0,44.0,57.0,50.0,38.0,50,1866.0,square3,f,0.336,2,V,9.0
V9,42.0,40.0,57.0,49.0,33.0,49,1915.0,square3,f,0.261,2,V,9.0
V9,43.0,42.0,64.0,54.0,35.0,54,1969.0,square3,f,0.2905,2,V,9.0
V9,44.0,44.0,55.0,49.0,39.0,49,2018.0,square3,f,0.2406,2,V,9.0
V9,45.0,37.0,66.0,51.0,35.0,51,2069.0,square3,f,0.2957,2,V,9.0
V9,46.0,40.0,59.0,51.0,32.0,51,2120.0,square3,f,0.3207,2,V,9.0
V9,47.0,38.0,62.0,57.0,31.0,57,2177.0,square3,f,0.3301,2,V,9.0
V9,48.0,43.0,61.0,54.0,34.0,54,2231.0,square3,f,0.2917,2,V,9.0
V9,49.0,43.0,61.0,49.0,40.0,49,2280.0,square3,f,0.2406,2,V,9.0
V9,50.0,37.0,58.0,51.0,32.0,51,2331.0,square3,f,0.2708,2,V,9.0
V9,51.0,44.0,63.0,48.0,39.0,48,2379.0,square3,f,0.2963,2,V,9.0
V9,52.0,35.0,65.0,48.0,30.0,48,2427.0,square3,f,0.2448,2,V,9.0
V9,53.0,43.0,59.0,48.0,39.0,48,2475.0,square3,f,0.1642,2,V,9.0
V9,54.0,43.0,59.0,52.0,30.0,52,2527.0,square3,f,0.2241,2,V,9.0
V9,55.0,41.0,58.0,51.0,34.0,51,2578.0,square3,f,0.2275,2,V,9.0
V9,56.0,44.0,63.0,50.0,33.0,50,2628.0,square3,f,0.2584,2,V,9.0
V9,57.0,42.0,60.0,49.0,32.0,49,2677.0,square3,f,0.2334,2,V,9.0
V9,58.0,44.0,62.0,57.0,30.0,57,2734.0,square3,f,0.4135,2,V,9.0
V9,59.0,45.0,61.0,45.0,31.0,45,2779.0,square3,f,0.2387,2,V,9.0
V9,60.0,43.0,63.0,53.0,33.0,53,2832.0,square3,f,0.3015,2,V,9.0
V9,61.0,39.0,56.0,55.0,31.0,55,2887.0,square3,f,0.3383,2,V,9.0
V9,62.0,39.0,61.0,50.0,34.0,50,2937.0,square3,f,0.4741,2,V,9.0
V9,63.0,44.0,57.0,48.0,36.0,48,2985.0,square3,f,0.2961,2,V,9.0
V9,64.0,40.0,60.0,58.0,35.0,58,3043.0,square3,f,0.2462,2,V,9.0
V9,65.0,42.0,60.0,54.0,38.0,54,3097.0,square3,f,0.1784,2,V,9.0
V9,66.0,41.0,60.0,54.0,37.0,54,3151.0,square3,f,0.2296,2,V,9.0
V9,67.0,43.0,61.0,54.0,40.0,54,3205.0,square3,f,0.2692,2,V,9.0
V9,68.0,45.0,40.0,26.0,18.0,26,3231.0,square3,f,0.2168,2,V,9.0
V9,69.0,50.0,41.0,29.0,20.0,20,3251.0,square4,r,0.2949,3,V,9.0
V9,70.0,43.0,36.0,27.0,15.0,43,3294.0,square1,j,0.2709,0,V,9.0
V9,71.0,44.0,40.0,28.0,18.0,40,3334.0,square2,i,0.2844,1,V,9.0
V9,72.0,42.0,38.0,27.0,18.0,42,3376.0,square1,j,0.1972,0,V,9.0
V9,73.0,46.0,33.0,25.0,19.0,46,3422.0,square1,j,0.2958,0,V,9.0
V9,74.0,47.0,40.0,28.0,20.0,47,3469.0,square1,j,0.2641,0,V,9.0
V9,75.0,39.0,39.0,27.0,25.0,39,3508.0,square1,j,0.2628,0,V,9.0
V9,76.0,50.0,31.0,29.0,23.0,31,3539.0,square2,i,0.2633,1,V,9.0
V9,77.0,44.0,37.0,28.0,13.0,44,3583.0,square1,j,0.2354,0,V,9.0
V9,78.0,43.0,36.0,23.0,17.0,43,3626.0,square1,j,0.2515,0,V,9.0
V9,79.0,42.0,36.0,28.0,24.0,42,3668.0,square1,j,0.2982,0,V,9.0
V9,80.0,47.0,35.0,30.0,14.0,47,3715.0,square1,j,0.589,0,V,9.0
V9,81.0,46.0,33.0,29.0,18.0,46,3761.0,square1,j,0.2744,0,V,9.0
V9,82.0,46.0,35.0,28.0,18.0,46,3807.0,square1,j,0.4458,0,V,9.0
V9,83.0,47.0,41.0,32.0,15.0,47,3854.0,square1,j,0.2683,0,V,9.0
V9,84.0,45.0,38.0,31.0,18.0,45,3899.0,square1,j,0.2724,0,V,9.0
V9,85.0,42.0,35.0,30.0,21.0,42,3941.0,square1,j,0.286,0,V,9.0
V9,86.0,49.0,39.0,23.0,18.0,49,3990.0,square1,j,0.2371,0,V,9.0
V9,87.0,49.0,39.0,27.0,16.0,49,4039.0,square1,j,0.231,0,V,9.0
V9,88.0,45.0,38.0,25.0,14.0,45,4084.0,square1,j,0.3783,0,V,9.0
V9,89.0,45.0,32.0,28.0,19.0,45,4129.0,square1,j,0.2802,0,V,9.0
V9,90.0,44.0,35.0,29.0,20.0,44,4173.0,square1,j,0.2469,0,V,9.0
V9,91.0,42.0,38.0,32.0,16.0,42,4215.0,square1,j,0.2636,0,V,9.0
V9,92.0,45.0,36.0,23.0,20.0,45,4260.0,square1,j,0.2842,0,V,9.0
V9,93.0,45.0,35.0,26.0,18.0,45,4305.0,square1,j,0.2616,0,V,9.0
V9,94.0,44.0,37.0,27.0,13.0,44,4349.0,square1,j,0.3823,0,V,9.0
V9,95.0,46.0,36.0,25.0,20.0,46,4395.0,square1,j,0.4114,0,V,9.0
V9,96.0,43.0,39.0,27.0,16.0,43,4438.0,square1,j,0.4334,0,V,9.0
V9,97.0,48.0,39.0,30.0,16.0,48,4486.0,square1,j,0.4191,0,V,9.0
V9,98.0,49.0,40.0,26.0,20.0,49,4535.0,square1,j,0.4796,0,V,9.0
V9,99.0,49.0,41.0,27.0,18.0,49,4584.0,square1,j,0.3997,0,V,9.0
V6,0.0,43.0,59.0,68.0,49.0,49,49.0,square4,i,0.6381,3,V,6.0
V6,1.0,43.0,62.0,71.0,50.0,43,92.0,square1,r,0.3143,0,V,6.0
V6,2.0,48.0,61.0,72.0,51.0,61,153.0,square2,f,0.2889,1,V,6.0
V6,3.0,46.0,55.0,71.0,51.0,71,224.0,square3,j,0.2726,2,V,6.0
V6,4.0,44.0,61.0,74.0,48.0,74,298.0,square3,j,0.328,2,V,6.0
V6,5.0,45.0,62.0,70.0,51.0,70,368.0,square3,j,0.2787,2,V,6.0
V6,6.0,42.0,67.0,73.0,46.0,73,441.0,square3,j,0.2753,2,V,6.0
V6,7.0,44.0,63.0,71.0,53.0,71,512.0,square3,j,0.2968,2,V,6.0
V6,8.0,41.0,62.0,73.0,52.0,73,585.0,square3,j,0.2268,2,V,6.0
V6,9.0,46.0,59.0,72.0,54.0,72,657.0,square3,j,0.2294,2,V,6.0
V6,10.0,45.0,59.0,70.0,53.0,70,727.0,square3,j,0.1046,2,V,6.0
V6,11.0,45.0,60.0,70.0,49.0,70,797.0,square3,j,0.263,2,V,6.0
V6,12.0,45.0,66.0,64.0,48.0,64,861.0,square3,j,0.2183,2,V,6.0
V6,13.0,45.0,61.0,69.0,47.0,69,930.0,square3,j,0.2118,2,V,6.0
V6,14.0,47.0,60.0,71.0,56.0,71,1001.0,square3,j,0.2833,2,V,6.0
V6,15.0,46.0,64.0,67.0,52.0,67,1068.0,square3,j,0.1282,2,V,6.0
V6,16.0,50.0,60.0,69.0,54.0,69,1137.0,square3,j,0.1187,2,V,6.0
V6,17.0,43.0,60.0,70.0,53.0,70,1207.0,square3,j,0.0918,2,V,6.0
V6,18.0,46.0,63.0,72.0,55.0,72,1279.0,square3,j,0.0307,2,V,6.0
V6,19.0,46.0,65.0,73.0,51.0,73,1352.0,square3,j,0.1177,2,V,6.0
V6,20.0,44.0,63.0,66.0,51.0,66,1418.0,square3,j,0.1736,2,V,6.0
V6,21.0,43.0,63.0,70.0,49.0,70,1488.0,square3,j,0.195,2,V,6.0
V6,22.0,45.0,63.0,71.0,50.0,71,1559.0,square3,j,0.1622,2,V,6.0
V6,23.0,45.0,38.0,28.0,60.0,28,1587.0,square3,j,0.1402,2,V,6.0
V6,24.0,46.0,33.0,33.0,53.0,46,1633.0,square1,r,0.2626,0,V,6.0
V6,25.0,45.0,36.0,32.0,63.0,36,1669.0,square2,f,0.197,1,V,6.0
V6,26.0,52.0,37.0,28.0,57.0,57,1726.0,square4,i,0.0541,3,V,6.0
V6,27.0,45.0,33.0,30.0,62.0,62,1788.0,square4,i,0.228,3,V,6.0
V6,28.0,43.0,37.0,24.0,51.0,51,1839.0,square4,i,0.2878,3,V,6.0
V6,29.0,48.0,39.0,34.0,61.0,61,1900.0,square4,i,0.1467,3,V,6.0
V6,30.0,48.0,44.0,35.0,59.0,59,1959.0,square4,i,0.1893,3,V,6.0
V6,31.0,50.0,39.0,34.0,53.0,53,2012.0,square4,i,0.2137,3,V,6.0
V6,32.0,44.0,33.0,33.0,54.0,54,2066.0,square4,i,0.2294,3,V,6.0
V6,33.0,48.0,37.0,30.0,56.0,56,2122.0,square4,i,0.2324,3,V,6.0
V6,34.0,52.0,37.0,27.0,59.0,59,2181.0,square4,i,0.0008,3,V,6.0
V6,35.0,47.0,32.0,29.0,59.0,59,2240.0,square4,i,0.1823,3,V,6.0
V6,36.0,45.0,37.0,27.0,56.0,56,2296.0,square4,i,0.2295,3,V,6.0
V6,37.0,39.0,37.0,31.0,57.0,57,2353.0,square4,i,0.1291,3,V,6.0
V6,38.0,50.0,38.0,29.0,56.0,56,2409.0,square4,i,0.0463,3,V,6.0
V6,39.0,48.0,37.0,27.0,57.0,57,2466.0,square4,i,0.2221,3,V,6.0
V6,40.0,53.0,37.0,29.0,57.0,57,2523.0,square4,i,0.2283,3,V,6.0
V6,41.0,41.0,34.0,33.0,58.0,58,2581.0,square4,i,0.2451,3,V,6.0
V6,42.0,50.0,37.0,31.0,57.0,57,2638.0,square4,i,0.2166,3,V,6.0
V6,43.0,48.0,34.0,30.0,58.0,58,2696.0,square4,i,0.241,3,V,6.0
V6,44.0,44.0,37.0,33.0,60.0,60,2756.0,square4,i,0.1963,3,V,6.0
V6,45.0,44.0,32.0,33.0,55.0,55,2811.0,square4,i,0.2162,3,V,6.0
V6,46.0,44.0,36.0,33.0,59.0,59,2870.0,square4,i,0.2087,3,V,6.0
V6,47.0,42.0,34.0,29.0,52.0,52,2922.0,square4,i,0.2559,3,V,6.0
V6,48.0,46.0,41.0,28.0,60.0,60,2982.0,square4,i,0.2285,3,V,6.0
V6,49.0,46.0,40.0,27.0,55.0,55,3037.0,square4,i,0.2169,3,V,6.0
V6,50.0,46.0,41.0,32.0,55.0,55,3092.0,square4,i,0.2115,3,V,6.0
V6,51.0,41.0,39.0,30.0,55.0,55,3147.0,square4,i,0.5964,3,V,6.0
V6,52.0,47.0,37.0,31.0,55.0,55,3202.0,square4,i,0.1711,3,V,6.0
V6,53.0,57.0,36.0,30.0,58.0,58,3260.0,square4,i,0.1133,3,V,6.0
V6,54.0,42.0,38.0,28.0,50.0,50,3310.0,square4,i,0.0449,3,V,6.0
V6,55.0,56.0,42.0,67.0,46.0,46,3356.0,square4,i,0.3126,3,V,6.0
V6,56.0,54.0,37.0,68.0,46.0,46,3402.0,square4,i,0.1612,3,V,6.0
V6,57.0,57.0,40.0,64.0,52.0,52,3454.0,square4,i,0.1961,3,V,6.0
V6,58.0,53.0,45.0,68.0,45.0,45,3499.0,square4,i,0.1164,3,V,6.0
V6,59.0,59.0,41.0,69.0,49.0,59,3558.0,square1,r,0.3449,0,V,6.0
V6,60.0,62.0,41.0,71.0,51.0,62,3620.0,square1,r,0.4195,0,V,6.0
V6,61.0,58.0,50.0,72.0,51.0,58,3678.0,square1,r,0.3554,0,V,6.0
V6,62.0,61.0,43.0,65.0,47.0,61,3739.0,square1,r,0.2501,0,V,6.0
V6,63.0,55.0,40.0,67.0,51.0,40,3779.0,square2,f,0.3515,1,V,6.0
V6,64.0,56.0,43.0,67.0,47.0,56,3835.0,square1,r,0.2462,0,V,6.0
V6,65.0,62.0,46.0,67.0,48.0,62,3897.0,square1,r,0.2778,0,V,6.0
V6,66.0,55.0,44.0,67.0,48.0,55,3952.0,square1,r,0.5122,0,V,6.0
V6,67.0,61.0,46.0,70.0,49.0,70,4022.0,square3,j,0.3793,2,V,6.0
V6,68.0,63.0,41.0,72.0,46.0,72,4094.0,square3,j,0.3175,2,V,6.0
V6,69.0,59.0,41.0,68.0,48.0,68,4162.0,square3,j,0.334,2,V,6.0
V6,70.0,59.0,37.0,70.0,45.0,70,4232.0,square3,j,0.3195,2,V,6.0
V6,71.0,83.0,64.0,56.0,70.0,56,4288.0,square3,j,0.3615,2,V,6.0
V6,72.0,82.0,59.0,53.0,75.0,53,4341.0,square3,j,0.2795,2,V,6.0
V6,73.0,85.0,67.0,58.0,73.0,58,4399.0,square3,j,0.203,2,V,6.0
V6,74.0,79.0,67.0,61.0,73.0,67,4466.0,square2,f,0.3705,1,V,6.0
V6,75.0,84.0,62.0,53.0,69.0,62,4528.0,square2,f,0.3619,1,V,6.0
V6,76.0,81.0,60.0,55.0,76.0,81,4609.0,square1,r,0.0243,0,V,6.0
V6,77.0,84.0,61.0,60.0,72.0,84,4693.0,square1,r,0.4875,0,V,6.0
V6,78.0,90.0,61.0,54.0,74.0,90,4783.0,square1,r,0.2792,0,V,6.0
V6,79.0,80.0,64.0,51.0,75.0,80,4863.0,square1,r,0.263,0,V,6.0
V6,80.0,85.0,62.0,56.0,78.0,85,4948.0,square1,r,0.2639,0,V,6.0
V6,81.0,86.0,65.0,58.0,69.0,86,5034.0,square1,r,0.2616,0,V,6.0
V6,82.0,83.0,62.0,58.0,77.0,83,5117.0,square1,r,0.2832,0,V,6.0
V6,83.0,87.0,61.0,59.0,70.0,87,5204.0,square1,r,0.2162,0,V,6.0
V6,84.0,89.0,65.0,54.0,78.0,89,5293.0,square1,r,0.2728,0,V,6.0
V6,85.0,78.0,63.0,55.0,75.0,78,5371.0,square1,r,0.2525,0,V,6.0
V6,86.0,87.0,67.0,52.0,75.0,87,5458.0,square1,r,0.2292,0,V,6.0
V6,87.0,86.0,62.0,60.0,75.0,86,5544.0,square1,r,0.2799,0,V,6.0
V6,88.0,79.0,67.0,56.0,76.0,79,5623.0,square1,r,0.2301,0,V,6.0
V6,89.0,83.0,61.0,57.0,75.0,83,5706.0,square1,r,0.2826,0,V,6.0
V6,90.0,83.0,67.0,51.0,76.0,83,5789.0,square1,r,0.3179,0,V,6.0
V6,91.0,83.0,63.0,55.0,69.0,83,5872.0,square1,r,0.3299,0,V,6.0
V6,92.0,89.0,56.0,53.0,68.0,89,5961.0,square1,r,0.279,0,V,6.0
V6,93.0,84.0,61.0,59.0,74.0,84,6045.0,square1,r,0.2957,0,V,6.0
V6,94.0,77.0,58.0,58.0,76.0,77,6122.0,square1,r,0.3147,0,V,6.0
V6,95.0,82.0,60.0,53.0,74.0,82,6204.0,square1,r,0.4926,0,V,6.0
V6,96.0,87.0,61.0,56.0,71.0,87,6291.0,square1,r,0.3851,0,V,6.0
V6,97.0,83.0,66.0,55.0,75.0,83,6374.0,square1,r,0.2867,0,V,6.0
V6,98.0,81.0,63.0,55.0,76.0,81,6455.0,square1,r,0.2897,0,V,6.0
V6,99.0,92.0,63.0,61.0,78.0,92,6547.0,square1,r,0.268,0,V,6.0
