block,Trial,square1,square2,square3,square4,currPoints,totalPoints,square,choiceKey.keys,choiceKey.rt,armNum,blockType,blockNum
prac,0.0,100.0,0.0,0.0,0.0,100.0,100.0,square1,,,0,p,0.0
prac,1.0,100.0,0.0,0.0,0.0,0.0,100.0,square3,,,2,p,0.0
prac,2.0,100.0,0.0,0.0,0.0,0.0,100.0,square4,,,3,p,0.0
prac,3.0,100.0,0.0,0.0,0.0,0.0,100.0,square2,,,1,p,0.0
prac,4.0,100.0,0.0,0.0,0.0,100.0,200.0,square1,,,0,p,0.0
prac,5.0,100.0,0.0,0.0,0.0,100.0,300.0,square1,,,0,p,0.0
prac,6.0,100.0,0.0,0.0,0.0,100.0,400.0,square1,,,0,p,0.0
prac,7.0,100.0,0.0,0.0,0.0,100.0,500.0,square1,,,0,p,0.0
prac,8.0,100.0,0.0,0.0,0.0,100.0,600.0,square1,,,0,p,0.0
prac,9.0,100.0,0.0,0.0,0.0,100.0,700.0,square1,,,0,p,0.0
V6,0.0,43.0,59.0,68.0,49.0,59.0,59.0,square2,r,0.9025,1,V,6.0
V6,1.0,43.0,62.0,71.0,50.0,71.0,130.0,square3,i,0.6624,2,V,6.0
V6,2.0,48.0,61.0,72.0,51.0,48.0,178.0,square1,j,0.2813,0,V,6.0
V6,3.0,46.0,55.0,71.0,51.0,51.0,229.0,square4,f,0.2462,3,V,6.0
V6,4.0,44.0,61.0,74.0,48.0,74.0,303.0,square3,i,0.205,2,V,6.0
V6,5.0,45.0,62.0,70.0,51.0,70.0,373.0,square3,i,0.1883,2,V,6.0
V6,6.0,42.0,67.0,73.0,46.0,73.0,446.0,square3,i,0.3144,2,V,6.0
V6,7.0,44.0,63.0,71.0,53.0,71.0,517.0,square3,i,0.3803,2,V,6.0
V6,8.0,41.0,62.0,73.0,52.0,73.0,590.0,square3,i,0.5396,2,V,6.0
V6,9.0,46.0,59.0,72.0,54.0,72.0,662.0,square3,i,0.9969,2,V,6.0
V6,10.0,45.0,59.0,70.0,53.0,70.0,732.0,square3,i,0.505,2,V,6.0
V6,11.0,45.0,60.0,70.0,49.0,70.0,802.0,square3,i,0.2209,2,V,6.0
V6,12.0,45.0,66.0,64.0,48.0,64.0,866.0,square3,i,0.2476,2,V,6.0
V6,13.0,45.0,61.0,69.0,47.0,61.0,927.0,square2,r,0.5698,1,V,6.0
V6,14.0,47.0,60.0,71.0,56.0,47.0,974.0,square1,j,0.2352,0,V,6.0
V6,15.0,46.0,64.0,67.0,52.0,52.0,1026.0,square4,f,0.2317,3,V,6.0
V6,16.0,50.0,60.0,69.0,54.0,69.0,1095.0,square3,i,0.0211,2,V,6.0
V6,17.0,43.0,60.0,70.0,53.0,60.0,1155.0,square2,r,0.2539,1,V,6.0
V6,18.0,46.0,63.0,72.0,55.0,72.0,1227.0,square3,i,0.2385,2,V,6.0
V6,19.0,46.0,65.0,73.0,51.0,73.0,1300.0,square3,i,0.2742,2,V,6.0
V6,20.0,44.0,63.0,66.0,51.0,66.0,1366.0,square3,i,0.24,2,V,6.0
V6,21.0,43.0,63.0,70.0,49.0,70.0,1436.0,square3,i,0.8553,2,V,6.0
V6,22.0,45.0,63.0,71.0,50.0,71.0,1507.0,square3,i,0.2528,2,V,6.0
V6,23.0,45.0,38.0,28.0,60.0,28.0,1535.0,square3,i,0.216,2,V,6.0
V6,24.0,46.0,33.0,33.0,53.0,33.0,1568.0,square2,r,0.2474,1,V,6.0
V6,25.0,45.0,36.0,32.0,63.0,63.0,1631.0,square4,f,0.136,3,V,6.0
V6,26.0,52.0,37.0,28.0,57.0,52.0,1683.0,square1,j,0.1903,0,V,6.0
V6,27.0,45.0,33.0,30.0,62.0,30.0,1713.0,square3,i,0.2013,2,V,6.0
V6,28.0,43.0,37.0,24.0,51.0,51.0,1764.0,square4,f,0.2187,3,V,6.0
V6,29.0,48.0,39.0,34.0,61.0,39.0,1803.0,square2,r,0.1625,1,V,6.0
V6,30.0,48.0,44.0,35.0,59.0,48.0,1851.0,square1,j,0.1169,0,V,6.0
V6,31.0,50.0,39.0,34.0,53.0,53.0,1904.0,square4,f,0.1674,3,V,6.0
V6,32.0,44.0,33.0,33.0,54.0,33.0,1937.0,square3,i,0.1836,2,V,6.0
V6,33.0,48.0,37.0,30.0,56.0,56.0,1993.0,square4,f,0.001,3,V,6.0
V6,34.0,52.0,37.0,27.0,59.0,59.0,2052.0,square4,f,0.1488,3,V,6.0
V6,35.0,47.0,32.0,29.0,59.0,59.0,2111.0,square4,f,0.1899,3,V,6.0
V6,36.0,45.0,37.0,27.0,56.0,56.0,2167.0,square4,f,0.245,3,V,6.0
V6,37.0,39.0,37.0,31.0,57.0,37.0,2204.0,square2,r,0.228,1,V,6.0
V6,38.0,50.0,38.0,29.0,56.0,29.0,2233.0,square3,i,0.1134,2,V,6.0
V6,39.0,48.0,37.0,27.0,57.0,48.0,2281.0,square1,j,0.1171,0,V,6.0
V6,40.0,53.0,37.0,29.0,57.0,57.0,2338.0,square4,f,0.1463,3,V,6.0
V6,41.0,41.0,34.0,33.0,58.0,58.0,2396.0,square4,f,0.1813,3,V,6.0
V6,42.0,50.0,37.0,31.0,57.0,57.0,2453.0,square4,f,0.0888,3,V,6.0
V6,43.0,48.0,34.0,30.0,58.0,58.0,2511.0,square4,f,0.0863,3,V,6.0
V6,44.0,44.0,37.0,33.0,60.0,60.0,2571.0,square4,f,0.2154,3,V,6.0
V6,45.0,44.0,32.0,33.0,55.0,55.0,2626.0,square4,f,0.2641,3,V,6.0
V6,46.0,44.0,36.0,33.0,59.0,59.0,2685.0,square4,f,0.7733,3,V,6.0
V6,47.0,42.0,34.0,29.0,52.0,52.0,2737.0,square4,f,0.106,3,V,6.0
V6,48.0,46.0,41.0,28.0,60.0,41.0,2778.0,square2,r,0.2466,1,V,6.0
V6,49.0,46.0,40.0,27.0,55.0,27.0,2805.0,square3,i,0.487,2,V,6.0
V6,50.0,46.0,41.0,32.0,55.0,46.0,2851.0,square1,j,0.2345,0,V,6.0
V6,51.0,41.0,39.0,30.0,55.0,55.0,2906.0,square4,f,0.1037,3,V,6.0
V6,52.0,47.0,37.0,31.0,55.0,55.0,2961.0,square4,f,0.2521,3,V,6.0
V6,53.0,57.0,36.0,30.0,58.0,58.0,3019.0,square4,f,0.2653,3,V,6.0
V6,54.0,42.0,38.0,28.0,50.0,50.0,3069.0,square4,f,0.2597,3,V,6.0
V6,55.0,56.0,42.0,67.0,46.0,42.0,3111.0,square2,r,0.2873,1,V,6.0
V6,56.0,54.0,37.0,68.0,46.0,68.0,3179.0,square3,i,0.0434,2,V,6.0
V6,57.0,57.0,40.0,64.0,52.0,64.0,3243.0,square3,i,0.3461,2,V,6.0
V6,58.0,53.0,45.0,68.0,45.0,68.0,3311.0,square3,i,0.2584,2,V,6.0
V6,59.0,59.0,41.0,69.0,49.0,69.0,3380.0,square3,i,0.2557,2,V,6.0
V6,60.0,62.0,41.0,71.0,51.0,71.0,3451.0,square3,i,0.1694,2,V,6.0
V6,61.0,58.0,50.0,72.0,51.0,72.0,3523.0,square3,i,0.2303,2,V,6.0
V6,62.0,61.0,43.0,65.0,47.0,65.0,3588.0,square3,i,0.18,2,V,6.0
V6,63.0,55.0,40.0,67.0,51.0,67.0,3655.0,square3,i,0.0612,2,V,6.0
V6,64.0,56.0,43.0,67.0,47.0,67.0,3722.0,square3,i,0.498,2,V,6.0
V6,65.0,62.0,46.0,67.0,48.0,67.0,3789.0,square3,i,0.2805,2,V,6.0
V6,66.0,55.0,44.0,67.0,48.0,67.0,3856.0,square3,i,0.2395,2,V,6.0
V6,67.0,61.0,46.0,70.0,49.0,70.0,3926.0,square3,i,0.2302,2,V,6.0
V6,68.0,63.0,41.0,72.0,46.0,72.0,3998.0,square3,i,0.2351,2,V,6.0
V6,69.0,59.0,41.0,68.0,48.0,68.0,4066.0,square3,i,0.2533,2,V,6.0
V6,70.0,59.0,37.0,70.0,45.0,70.0,4136.0,square3,i,0.2376,2,V,6.0
V6,71.0,83.0,64.0,56.0,70.0,56.0,4192.0,square3,i,0.2217,2,V,6.0
V6,72.0,82.0,59.0,53.0,75.0,82.0,4274.0,square1,j,0.4834,0,V,6.0
V6,73.0,85.0,67.0,58.0,73.0,85.0,4359.0,square1,j,0.2424,0,V,6.0
V6,74.0,79.0,67.0,61.0,73.0,79.0,4438.0,square1,j,0.2378,0,V,6.0
V6,75.0,84.0,62.0,53.0,69.0,84.0,4522.0,square1,j,0.2389,0,V,6.0
V6,76.0,81.0,60.0,55.0,76.0,81.0,4603.0,square1,j,0.1988,0,V,6.0
V6,77.0,84.0,61.0,60.0,72.0,84.0,4687.0,square1,j,0.2398,0,V,6.0
V6,78.0,90.0,61.0,54.0,74.0,90.0,4777.0,square1,j,0.2437,0,V,6.0
V6,79.0,80.0,64.0,51.0,75.0,80.0,4857.0,square1,j,0.2322,0,V,6.0
V6,80.0,85.0,62.0,56.0,78.0,85.0,4942.0,square1,j,0.1689,0,V,6.0
V6,81.0,86.0,65.0,58.0,69.0,86.0,5028.0,square1,j,0.2149,0,V,6.0
V6,82.0,83.0,62.0,58.0,77.0,83.0,5111.0,square1,j,0.1965,0,V,6.0
V6,83.0,87.0,61.0,59.0,70.0,87.0,5198.0,square1,j,0.2123,0,V,6.0
V6,84.0,89.0,65.0,54.0,78.0,89.0,5287.0,square1,j,0.241,0,V,6.0
V6,85.0,78.0,63.0,55.0,75.0,78.0,5365.0,square1,j,0.1896,0,V,6.0
V6,86.0,87.0,67.0,52.0,75.0,87.0,5452.0,square1,j,0.0548,0,V,6.0
V6,87.0,86.0,62.0,60.0,75.0,86.0,5538.0,square1,j,0.214,0,V,6.0
V6,88.0,79.0,67.0,56.0,76.0,79.0,5617.0,square1,j,0.1518,0,V,6.0
V6,89.0,83.0,61.0,57.0,75.0,83.0,5700.0,square1,j,0.2148,0,V,6.0
V6,90.0,83.0,67.0,51.0,76.0,83.0,5783.0,square1,j,0.2485,0,V,6.0
V6,91.0,83.0,63.0,55.0,69.0,83.0,5866.0,square1,j,0.2731,0,V,6.0
V6,92.0,89.0,56.0,53.0,68.0,89.0,5955.0,square1,j,0.1827,0,V,6.0
V6,93.0,84.0,61.0,59.0,74.0,84.0,6039.0,square1,j,0.1814,0,V,6.0
V6,94.0,77.0,58.0,58.0,76.0,77.0,6116.0,square1,j,0.2025,0,V,6.0
V6,95.0,82.0,60.0,53.0,74.0,82.0,6198.0,square1,j,0.1945,0,V,6.0
V6,96.0,87.0,61.0,56.0,71.0,87.0,6285.0,square1,j,0.2348,0,V,6.0
V6,97.0,83.0,66.0,55.0,75.0,83.0,6368.0,square1,j,0.2249,0,V,6.0
V6,98.0,81.0,63.0,55.0,76.0,81.0,6449.0,square1,j,0.2156,0,V,6.0
V6,99.0,92.0,63.0,61.0,78.0,92.0,6541.0,square1,j,1.0747,0,V,6.0
V3,0.0,62.0,45.0,70.0,53.0,53.0,53.0,square4,i,1.101,3,V,3.0
V3,1.0,63.0,47.0,76.0,60.0,76.0,129.0,square3,j,0.5389,2,V,3.0
V3,2.0,65.0,54.0,73.0,57.0,54.0,183.0,square2,f,0.301,1,V,3.0
V3,3.0,68.0,51.0,71.0,51.0,68.0,251.0,square1,r,0.2298,0,V,3.0
V3,4.0,61.0,49.0,75.0,53.0,75.0,326.0,square3,j,0.2248,2,V,3.0
V3,5.0,65.0,47.0,74.0,50.0,74.0,400.0,square3,j,0.2208,2,V,3.0
V3,6.0,61.0,51.0,72.0,57.0,72.0,472.0,square3,j,0.0761,2,V,3.0
V3,7.0,67.0,49.0,75.0,55.0,75.0,547.0,square3,j,0.2221,2,V,3.0
V3,8.0,64.0,48.0,76.0,56.0,76.0,623.0,square3,j,0.1751,2,V,3.0
V3,9.0,67.0,49.0,71.0,56.0,71.0,694.0,square3,j,0.1807,2,V,3.0
V3,10.0,65.0,50.0,71.0,56.0,71.0,765.0,square3,j,0.1481,2,V,3.0
V3,11.0,63.0,43.0,78.0,58.0,78.0,843.0,square3,j,0.1135,2,V,3.0
V3,12.0,66.0,53.0,73.0,54.0,73.0,916.0,square3,j,0.1962,2,V,3.0
V3,13.0,64.0,46.0,78.0,51.0,78.0,994.0,square3,j,0.176,2,V,3.0
V3,14.0,67.0,51.0,71.0,58.0,71.0,1065.0,square3,j,0.2071,2,V,3.0
V3,15.0,61.0,50.0,73.0,54.0,73.0,1138.0,square3,j,0.2095,2,V,3.0
V3,16.0,64.0,52.0,74.0,54.0,74.0,1212.0,square3,j,0.1152,2,V,3.0
V3,17.0,61.0,48.0,74.0,55.0,74.0,1286.0,square3,j,0.1973,2,V,3.0
V3,18.0,65.0,50.0,70.0,59.0,59.0,1345.0,square4,i,0.2333,3,V,3.0
V3,19.0,64.0,52.0,76.0,56.0,64.0,1409.0,square1,r,0.0633,0,V,3.0
V3,20.0,64.0,50.0,69.0,58.0,50.0,1459.0,square2,f,0.1193,1,V,3.0
V3,21.0,66.0,50.0,72.0,56.0,72.0,1531.0,square3,j,0.1574,2,V,3.0
V3,22.0,43.0,48.0,40.0,62.0,40.0,1571.0,square3,j,0.2216,2,V,3.0
V3,23.0,41.0,51.0,35.0,59.0,35.0,1606.0,square3,j,0.2652,2,V,3.0
V3,24.0,51.0,51.0,37.0,60.0,37.0,1643.0,square3,j,0.2328,2,V,3.0
V3,25.0,45.0,53.0,36.0,57.0,36.0,1679.0,square3,j,0.2161,2,V,3.0
V3,26.0,44.0,51.0,38.0,59.0,59.0,1738.0,square4,i,1.0628,3,V,3.0
V3,27.0,43.0,51.0,34.0,66.0,43.0,1781.0,square1,r,0.215,0,V,3.0
V3,28.0,47.0,51.0,40.0,67.0,51.0,1832.0,square2,f,0.1889,1,V,3.0
V3,29.0,42.0,55.0,35.0,65.0,35.0,1867.0,square3,j,0.2279,2,V,3.0
V3,30.0,49.0,54.0,36.0,62.0,62.0,1929.0,square4,i,0.0964,3,V,3.0
V3,31.0,50.0,53.0,42.0,66.0,66.0,1995.0,square4,i,0.2241,3,V,3.0
V3,32.0,47.0,53.0,34.0,58.0,58.0,2053.0,square4,i,0.2562,3,V,3.0
V3,33.0,45.0,56.0,34.0,62.0,62.0,2115.0,square4,i,0.1923,3,V,3.0
V3,34.0,48.0,54.0,38.0,64.0,64.0,2179.0,square4,i,0.1457,3,V,3.0
V3,35.0,39.0,55.0,42.0,65.0,65.0,2244.0,square4,i,0.1463,3,V,3.0
V3,36.0,46.0,57.0,41.0,63.0,63.0,2307.0,square4,i,0.1893,3,V,3.0
V3,37.0,43.0,54.0,41.0,65.0,65.0,2372.0,square4,i,0.2162,3,V,3.0
V3,38.0,47.0,52.0,37.0,63.0,63.0,2435.0,square4,i,0.194,3,V,3.0
V3,39.0,47.0,53.0,38.0,55.0,55.0,2490.0,square4,i,0.1968,3,V,3.0
V3,40.0,41.0,54.0,39.0,64.0,41.0,2531.0,square1,r,0.2461,0,V,3.0
V3,41.0,48.0,52.0,38.0,64.0,52.0,2583.0,square2,f,0.141,1,V,3.0
V3,42.0,45.0,50.0,34.0,63.0,34.0,2617.0,square3,j,0.0441,2,V,3.0
V3,43.0,44.0,50.0,34.0,62.0,62.0,2679.0,square4,i,0.4819,3,V,3.0
V3,44.0,47.0,55.0,39.0,65.0,65.0,2744.0,square4,i,0.2644,3,V,3.0
V3,45.0,45.0,55.0,31.0,63.0,63.0,2807.0,square4,i,0.8201,3,V,3.0
V3,46.0,42.0,52.0,38.0,64.0,64.0,2871.0,square4,i,0.2312,3,V,3.0
V3,47.0,44.0,53.0,37.0,55.0,55.0,2926.0,square4,i,0.2304,3,V,3.0
V3,48.0,44.0,49.0,37.0,58.0,37.0,2963.0,square3,j,0.464,2,V,3.0
V3,49.0,48.0,58.0,35.0,54.0,54.0,3017.0,square4,i,0.0839,3,V,3.0
V3,50.0,42.0,28.0,30.0,52.0,28.0,3045.0,square2,f,0.247,1,V,3.0
V3,51.0,46.0,29.0,32.0,51.0,46.0,3091.0,square1,r,0.1984,0,V,3.0
V3,52.0,37.0,20.0,36.0,50.0,50.0,3141.0,square4,i,0.18,3,V,3.0
V3,53.0,44.0,22.0,34.0,55.0,55.0,3196.0,square4,i,0.2436,3,V,3.0
V3,54.0,37.0,27.0,26.0,50.0,50.0,3246.0,square4,i,0.1267,3,V,3.0
V3,55.0,41.0,21.0,39.0,53.0,53.0,3299.0,square4,i,0.1846,3,V,3.0
V3,56.0,40.0,20.0,38.0,51.0,51.0,3350.0,square4,i,0.1311,3,V,3.0
V3,57.0,44.0,28.0,31.0,57.0,57.0,3407.0,square4,i,0.1408,3,V,3.0
V3,58.0,46.0,20.0,28.0,49.0,49.0,3456.0,square4,i,0.2312,3,V,3.0
V3,59.0,44.0,24.0,30.0,55.0,30.0,3486.0,square3,j,0.2563,2,V,3.0
V3,60.0,42.0,29.0,29.0,51.0,29.0,3515.0,square2,f,0.1698,1,V,3.0
V3,61.0,41.0,21.0,30.0,46.0,41.0,3556.0,square1,r,0.091,0,V,3.0
V3,62.0,41.0,27.0,31.0,49.0,49.0,3605.0,square4,i,0.1146,3,V,3.0
V3,63.0,42.0,27.0,34.0,51.0,51.0,3656.0,square4,i,0.2216,3,V,3.0
V3,64.0,41.0,24.0,30.0,47.0,47.0,3703.0,square4,i,0.0878,3,V,3.0
V3,65.0,36.0,18.0,34.0,48.0,48.0,3751.0,square4,i,0.139,3,V,3.0
V3,66.0,39.0,28.0,35.0,45.0,45.0,3796.0,square4,i,0.1767,3,V,3.0
V3,67.0,42.0,21.0,32.0,46.0,46.0,3842.0,square4,i,0.2095,3,V,3.0
V3,68.0,40.0,24.0,35.0,53.0,53.0,3895.0,square4,i,0.3692,3,V,3.0
V3,69.0,48.0,23.0,34.0,50.0,50.0,3945.0,square4,i,0.2131,3,V,3.0
V3,70.0,40.0,27.0,31.0,49.0,49.0,3994.0,square4,i,0.3458,3,V,3.0
V3,71.0,41.0,23.0,28.0,51.0,51.0,4045.0,square4,i,0.1102,3,V,3.0
V3,72.0,42.0,25.0,33.0,55.0,55.0,4100.0,square4,i,0.2802,3,V,3.0
V3,73.0,41.0,24.0,35.0,55.0,55.0,4155.0,square4,i,0.1923,3,V,3.0
V3,74.0,38.0,26.0,28.0,53.0,28.0,4183.0,square3,j,0.2553,2,V,3.0
V3,75.0,54.0,39.0,69.0,50.0,39.0,4222.0,square2,f,0.1325,1,V,3.0
V3,76.0,55.0,42.0,64.0,53.0,55.0,4277.0,square1,r,0.2269,0,V,3.0
V3,77.0,59.0,37.0,66.0,44.0,44.0,4321.0,square4,i,0.2295,3,V,3.0
V3,78.0,58.0,38.0,60.0,46.0,58.0,4379.0,square1,r,0.1782,0,V,3.0
V3,79.0,54.0,35.0,66.0,49.0,54.0,4433.0,square1,r,0.235,0,V,3.0
V3,80.0,60.0,36.0,68.0,44.0,60.0,4493.0,square1,r,0.2091,0,V,3.0
V3,81.0,55.0,38.0,66.0,51.0,55.0,4548.0,square1,r,0.1799,0,V,3.0
V3,82.0,57.0,47.0,64.0,50.0,57.0,4605.0,square1,r,0.1823,0,V,3.0
V3,83.0,57.0,37.0,63.0,45.0,57.0,4662.0,square1,r,0.1221,0,V,3.0
V3,84.0,54.0,40.0,65.0,53.0,54.0,4716.0,square1,r,0.146,0,V,3.0
V3,85.0,58.0,41.0,63.0,48.0,58.0,4774.0,square1,r,0.2253,0,V,3.0
V3,86.0,53.0,38.0,57.0,49.0,53.0,4827.0,square1,r,0.2312,0,V,3.0
V3,87.0,49.0,42.0,60.0,43.0,49.0,4876.0,square1,r,0.0497,0,V,3.0
V3,88.0,56.0,35.0,70.0,46.0,46.0,4922.0,square4,i,0.2038,3,V,3.0
V3,89.0,58.0,39.0,63.0,52.0,63.0,4985.0,square3,j,0.1226,2,V,3.0
V3,90.0,59.0,43.0,63.0,45.0,63.0,5048.0,square3,j,0.23,2,V,3.0
V3,91.0,54.0,37.0,69.0,49.0,69.0,5117.0,square3,j,0.2267,2,V,3.0
V3,92.0,56.0,41.0,61.0,47.0,61.0,5178.0,square3,j,0.2038,2,V,3.0
V3,93.0,58.0,35.0,68.0,47.0,68.0,5246.0,square3,j,0.2006,2,V,3.0
V3,94.0,61.0,37.0,67.0,51.0,67.0,5313.0,square3,j,0.2653,2,V,3.0
V3,95.0,57.0,32.0,64.0,47.0,64.0,5377.0,square3,j,0.166,2,V,3.0
V3,96.0,53.0,38.0,63.0,48.0,63.0,5440.0,square3,j,0.0811,2,V,3.0
V3,97.0,57.0,44.0,71.0,50.0,71.0,5511.0,square3,j,0.1353,2,V,3.0
V3,98.0,56.0,39.0,70.0,47.0,70.0,5581.0,square3,j,0.2468,2,V,3.0
V3,99.0,62.0,40.0,67.0,49.0,67.0,5648.0,square3,j,0.2199,2,V,3.0
V1,0.0,46.0,61.0,52.0,71.0,46.0,46.0,square1,f,0.6171,0,V,1.0
V1,1.0,45.0,63.0,54.0,78.0,78.0,124.0,square4,j,0.2006,3,V,1.0
V1,2.0,51.0,58.0,59.0,77.0,58.0,182.0,square2,i,0.2499,1,V,1.0
V1,3.0,53.0,65.0,56.0,75.0,56.0,238.0,square3,r,0.1209,2,V,1.0
V1,4.0,49.0,68.0,53.0,72.0,72.0,310.0,square4,j,0.2168,3,V,1.0
V1,5.0,47.0,70.0,59.0,76.0,76.0,386.0,square4,j,0.2164,3,V,1.0
V1,6.0,55.0,63.0,54.0,76.0,76.0,462.0,square4,j,0.2164,3,V,1.0
V1,7.0,47.0,67.0,55.0,74.0,74.0,536.0,square4,j,0.2342,3,V,1.0
V1,8.0,47.0,65.0,46.0,76.0,76.0,612.0,square4,j,0.2376,3,V,1.0
V1,9.0,46.0,68.0,59.0,78.0,78.0,690.0,square4,j,0.1975,3,V,1.0
V1,10.0,58.0,67.0,58.0,79.0,79.0,769.0,square4,j,0.2337,3,V,1.0
V1,11.0,44.0,61.0,54.0,72.0,72.0,841.0,square4,j,0.2094,3,V,1.0
V1,12.0,44.0,65.0,56.0,75.0,75.0,916.0,square4,j,0.2501,3,V,1.0
V1,13.0,47.0,63.0,53.0,73.0,73.0,989.0,square4,j,0.1978,3,V,1.0
V1,14.0,49.0,66.0,56.0,75.0,75.0,1064.0,square4,j,0.251,3,V,1.0
V1,15.0,49.0,66.0,52.0,79.0,79.0,1143.0,square4,j,0.2175,3,V,1.0
V1,16.0,51.0,61.0,48.0,72.0,72.0,1215.0,square4,j,0.2514,3,V,1.0
V1,17.0,46.0,61.0,59.0,71.0,71.0,1286.0,square4,j,0.2504,3,V,1.0
V1,18.0,45.0,61.0,53.0,72.0,72.0,1358.0,square4,j,0.2037,3,V,1.0
V1,19.0,49.0,63.0,54.0,76.0,76.0,1434.0,square4,j,0.2166,3,V,1.0
V1,20.0,46.0,66.0,52.0,72.0,72.0,1506.0,square4,j,0.2001,3,V,1.0
V1,21.0,50.0,65.0,51.0,73.0,73.0,1579.0,square4,j,0.2215,3,V,1.0
V1,22.0,56.0,62.0,56.0,77.0,77.0,1656.0,square4,j,0.2383,3,V,1.0
V1,23.0,45.0,67.0,54.0,83.0,83.0,1739.0,square4,j,0.2169,3,V,1.0
V1,24.0,46.0,69.0,57.0,71.0,71.0,1810.0,square4,j,0.2507,3,V,1.0
V1,25.0,41.0,65.0,55.0,76.0,65.0,1875.0,square2,i,0.3313,1,V,1.0
V1,26.0,51.0,60.0,55.0,74.0,55.0,1930.0,square3,r,0.1168,2,V,1.0
V1,27.0,52.0,63.0,56.0,73.0,52.0,1982.0,square1,f,0.212,0,V,1.0
V1,28.0,50.0,68.0,50.0,76.0,76.0,2058.0,square4,j,0.2167,3,V,1.0
V1,29.0,51.0,60.0,54.0,74.0,74.0,2132.0,square4,j,0.1511,3,V,1.0
V1,30.0,35.0,67.0,57.0,40.0,40.0,2172.0,square4,j,0.2,3,V,1.0
V1,31.0,38.0,60.0,52.0,35.0,60.0,2232.0,square2,i,0.2156,1,V,1.0
V1,32.0,37.0,67.0,52.0,41.0,52.0,2284.0,square3,r,0.218,2,V,1.0
V1,33.0,37.0,62.0,53.0,42.0,37.0,2321.0,square1,f,0.167,0,V,1.0
V1,34.0,35.0,58.0,54.0,43.0,58.0,2379.0,square2,i,0.1298,1,V,1.0
V1,35.0,40.0,60.0,50.0,44.0,44.0,2423.0,square4,j,0.2842,3,V,1.0
V1,36.0,39.0,66.0,50.0,39.0,66.0,2489.0,square2,i,0.1183,1,V,1.0
V1,37.0,32.0,59.0,54.0,38.0,59.0,2548.0,square2,i,0.2504,1,V,1.0
V1,38.0,32.0,64.0,50.0,39.0,64.0,2612.0,square2,i,0.1946,1,V,1.0
V1,39.0,37.0,60.0,45.0,40.0,60.0,2672.0,square2,i,0.0673,1,V,1.0
V1,40.0,35.0,61.0,54.0,43.0,61.0,2733.0,square2,i,0.1215,1,V,1.0
V1,41.0,33.0,62.0,49.0,42.0,62.0,2795.0,square2,i,0.1684,1,V,1.0
V1,42.0,31.0,70.0,52.0,42.0,70.0,2865.0,square2,i,0.1172,1,V,1.0
V1,43.0,37.0,59.0,48.0,41.0,59.0,2924.0,square2,i,0.1877,1,V,1.0
V1,44.0,39.0,63.0,53.0,44.0,53.0,2977.0,square3,r,0.2992,2,V,1.0
V1,45.0,37.0,62.0,48.0,41.0,37.0,3014.0,square1,f,0.1504,0,V,1.0
V1,46.0,34.0,65.0,52.0,39.0,39.0,3053.0,square4,j,0.1666,3,V,1.0
V1,47.0,42.0,59.0,52.0,43.0,59.0,3112.0,square2,i,0.0664,1,V,1.0
V1,48.0,39.0,62.0,50.0,38.0,62.0,3174.0,square2,i,0.2057,1,V,1.0
V1,49.0,33.0,63.0,49.0,40.0,63.0,3237.0,square2,i,0.1355,1,V,1.0
V1,50.0,38.0,66.0,54.0,37.0,66.0,3303.0,square2,i,0.1836,1,V,1.0
V1,51.0,33.0,66.0,50.0,37.0,66.0,3369.0,square2,i,0.101,1,V,1.0
V1,52.0,41.0,65.0,55.0,44.0,65.0,3434.0,square2,i,0.3434,1,V,1.0
V1,53.0,75.0,50.0,46.0,60.0,50.0,3484.0,square2,i,0.0676,1,V,1.0
V1,54.0,74.0,53.0,45.0,61.0,53.0,3537.0,square2,i,0.0656,1,V,1.0
V1,55.0,74.0,54.0,43.0,65.0,54.0,3591.0,square2,i,0.1175,1,V,1.0
V1,56.0,73.0,54.0,44.0,56.0,54.0,3645.0,square2,i,0.0372,1,V,1.0
V1,57.0,67.0,58.0,52.0,63.0,52.0,3697.0,square3,r,0.2676,2,V,1.0
V1,58.0,72.0,51.0,43.0,62.0,72.0,3769.0,square1,f,0.168,0,V,1.0
V1,59.0,68.0,47.0,49.0,56.0,68.0,3837.0,square1,f,0.2334,0,V,1.0
V1,60.0,72.0,55.0,46.0,65.0,72.0,3909.0,square1,f,0.2512,0,V,1.0
V1,61.0,76.0,50.0,46.0,62.0,76.0,3985.0,square1,f,0.2669,0,V,1.0
V1,62.0,77.0,58.0,46.0,66.0,77.0,4062.0,square1,f,0.2064,0,V,1.0
V1,63.0,72.0,53.0,48.0,66.0,72.0,4134.0,square1,f,0.1266,0,V,1.0
V1,64.0,70.0,49.0,49.0,60.0,70.0,4204.0,square1,f,0.1342,0,V,1.0
V1,65.0,68.0,49.0,46.0,66.0,68.0,4272.0,square1,f,0.0734,0,V,1.0
V1,66.0,77.0,52.0,41.0,64.0,77.0,4349.0,square1,f,0.001,0,V,1.0
V1,67.0,74.0,56.0,42.0,69.0,74.0,4423.0,square1,f,0.1339,0,V,1.0
V1,68.0,77.0,50.0,46.0,68.0,77.0,4500.0,square1,f,0.2204,0,V,1.0
V1,69.0,76.0,48.0,45.0,63.0,76.0,4576.0,square1,f,0.6503,0,V,1.0
V1,70.0,71.0,53.0,50.0,65.0,71.0,4647.0,square1,f,0.2274,0,V,1.0
V1,71.0,70.0,56.0,44.0,59.0,70.0,4717.0,square1,f,0.217,0,V,1.0
V1,72.0,74.0,54.0,55.0,61.0,74.0,4791.0,square1,f,0.217,0,V,1.0
V1,73.0,73.0,53.0,47.0,61.0,73.0,4864.0,square1,f,0.1794,0,V,1.0
V1,74.0,71.0,53.0,51.0,65.0,71.0,4935.0,square1,f,0.1258,0,V,1.0
V1,75.0,72.0,51.0,48.0,64.0,72.0,5007.0,square1,f,0.1868,0,V,1.0
V1,76.0,72.0,53.0,49.0,62.0,72.0,5079.0,square1,f,0.1445,0,V,1.0
V1,77.0,62.0,76.0,64.0,86.0,62.0,5141.0,square1,f,0.2192,0,V,1.0
V1,78.0,61.0,74.0,63.0,87.0,61.0,5202.0,square1,f,0.2329,0,V,1.0
V1,79.0,56.0,78.0,67.0,89.0,89.0,5291.0,square4,j,0.084,3,V,1.0
V1,80.0,59.0,75.0,63.0,84.0,84.0,5375.0,square4,j,0.1734,3,V,1.0
V1,81.0,63.0,74.0,68.0,82.0,82.0,5457.0,square4,j,0.1674,3,V,1.0
V1,82.0,59.0,75.0,67.0,80.0,80.0,5537.0,square4,j,0.251,3,V,1.0
V1,83.0,58.0,77.0,63.0,82.0,82.0,5619.0,square4,j,0.2172,3,V,1.0
V1,84.0,57.0,76.0,64.0,87.0,87.0,5706.0,square4,j,0.0834,3,V,1.0
V1,85.0,61.0,73.0,66.0,83.0,83.0,5789.0,square4,j,0.0045,3,V,1.0
V1,86.0,60.0,71.0,66.0,85.0,85.0,5874.0,square4,j,0.4675,3,V,1.0
V1,87.0,61.0,80.0,73.0,84.0,84.0,5958.0,square4,j,0.1341,3,V,1.0
V1,88.0,67.0,77.0,67.0,85.0,85.0,6043.0,square4,j,0.1421,3,V,1.0
V1,89.0,60.0,79.0,63.0,86.0,86.0,6129.0,square4,j,0.1916,3,V,1.0
V1,90.0,60.0,74.0,66.0,88.0,88.0,6217.0,square4,j,0.2177,3,V,1.0
V1,91.0,57.0,81.0,61.0,79.0,79.0,6296.0,square4,j,0.2232,3,V,1.0
V1,92.0,61.0,78.0,61.0,84.0,84.0,6380.0,square4,j,0.2014,3,V,1.0
V1,93.0,64.0,72.0,69.0,83.0,83.0,6463.0,square4,j,0.2327,3,V,1.0
V1,94.0,64.0,73.0,68.0,83.0,83.0,6546.0,square4,j,0.2534,3,V,1.0
V1,95.0,61.0,69.0,68.0,87.0,87.0,6633.0,square4,j,0.0859,3,V,1.0
V1,96.0,55.0,77.0,65.0,88.0,88.0,6721.0,square4,j,0.1346,3,V,1.0
V1,97.0,61.0,75.0,63.0,82.0,82.0,6803.0,square4,j,0.1334,3,V,1.0
V1,98.0,59.0,71.0,66.0,82.0,82.0,6885.0,square4,j,0.2386,3,V,1.0
V1,99.0,61.0,69.0,67.0,84.0,84.0,6969.0,square4,j,0.4165,3,V,1.0
S12,0.0,38.0,42.0,30.0,42.0,42.0,42.0,square4,r,0.9288,3,S,12.0
S12,1.0,30.0,42.0,28.0,37.0,28.0,70.0,square3,i,0.7533,2,S,12.0
S12,2.0,34.0,41.0,38.0,43.0,34.0,104.0,square1,j,0.2582,0,S,12.0
S12,3.0,38.0,51.0,38.0,38.0,51.0,155.0,square2,f,0.2702,1,S,12.0
S12,4.0,32.0,37.0,33.0,45.0,37.0,192.0,square2,f,0.2365,1,S,12.0
S12,5.0,38.0,52.0,36.0,35.0,38.0,230.0,square1,j,0.5294,0,S,12.0
S12,6.0,30.0,43.0,30.0,38.0,30.0,260.0,square3,i,0.1892,2,S,12.0
S12,7.0,38.0,39.0,30.0,39.0,39.0,299.0,square4,r,0.2295,3,S,12.0
S12,8.0,37.0,49.0,35.0,38.0,38.0,337.0,square4,r,0.2514,3,S,12.0
S12,9.0,37.0,44.0,29.0,38.0,38.0,375.0,square4,r,0.2673,3,S,12.0
S12,10.0,35.0,42.0,30.0,45.0,45.0,420.0,square4,r,0.1868,3,S,12.0
S12,11.0,34.0,45.0,36.0,32.0,32.0,452.0,square4,r,0.2642,3,S,12.0
S12,12.0,33.0,45.0,35.0,42.0,35.0,487.0,square3,i,0.2005,2,S,12.0
S12,13.0,36.0,36.0,29.0,40.0,36.0,523.0,square1,j,0.1982,0,S,12.0
S12,14.0,36.0,49.0,32.0,42.0,49.0,572.0,square2,f,0.2183,1,S,12.0
S12,15.0,35.0,43.0,35.0,46.0,43.0,615.0,square2,f,0.3567,1,S,12.0
S12,16.0,39.0,48.0,41.0,43.0,48.0,663.0,square2,f,0.2368,1,S,12.0
S12,17.0,35.0,47.0,27.0,38.0,47.0,710.0,square2,f,0.1895,1,S,12.0
S12,18.0,37.0,51.0,33.0,33.0,51.0,761.0,square2,f,0.1397,1,S,12.0
S12,19.0,41.0,42.0,33.0,36.0,42.0,803.0,square2,f,0.2014,1,S,12.0
S12,20.0,34.0,44.0,26.0,41.0,41.0,844.0,square4,r,0.2893,3,S,12.0
S12,21.0,35.0,37.0,29.0,35.0,29.0,873.0,square3,i,0.1308,2,S,12.0
S12,22.0,37.0,48.0,31.0,41.0,37.0,910.0,square1,j,0.1969,0,S,12.0
S12,23.0,36.0,43.0,27.0,45.0,43.0,953.0,square2,f,0.1818,1,S,12.0
S12,24.0,39.0,48.0,38.0,38.0,48.0,1001.0,square2,f,0.2216,1,S,12.0
S12,25.0,31.0,43.0,30.0,40.0,43.0,1044.0,square2,f,0.2269,1,S,12.0
S12,26.0,35.0,48.0,34.0,33.0,48.0,1092.0,square2,f,0.2244,1,S,12.0
S12,27.0,46.0,46.0,28.0,38.0,46.0,1138.0,square2,f,0.1745,1,S,12.0
S12,28.0,32.0,37.0,32.0,40.0,37.0,1175.0,square2,f,0.1717,1,S,12.0
S12,29.0,38.0,41.0,32.0,44.0,44.0,1219.0,square4,r,0.2473,3,S,12.0
S12,30.0,32.0,48.0,29.0,42.0,42.0,1261.0,square4,r,0.4024,3,S,12.0
S12,31.0,34.0,46.0,30.0,42.0,30.0,1291.0,square3,i,0.2073,2,S,12.0
S12,32.0,39.0,43.0,41.0,40.0,39.0,1330.0,square1,j,0.2085,0,S,12.0
S12,33.0,36.0,47.0,33.0,46.0,46.0,1376.0,square4,r,0.165,3,S,12.0
S12,34.0,36.0,41.0,34.0,41.0,41.0,1417.0,square4,r,0.2259,3,S,12.0
S12,35.0,34.0,42.0,31.0,43.0,43.0,1460.0,square4,r,0.247,3,S,12.0
S12,36.0,39.0,43.0,26.0,33.0,33.0,1493.0,square4,r,0.2153,3,S,12.0
S12,37.0,39.0,49.0,30.0,42.0,49.0,1542.0,square2,f,0.2328,1,S,12.0
S12,38.0,33.0,47.0,36.0,41.0,47.0,1589.0,square2,f,0.1524,1,S,12.0
S12,39.0,29.0,46.0,35.0,36.0,46.0,1635.0,square2,f,0.2015,1,S,12.0
S12,40.0,39.0,39.0,29.0,36.0,39.0,1674.0,square2,f,0.2024,1,S,12.0
S12,41.0,33.0,44.0,31.0,40.0,31.0,1705.0,square3,i,0.3295,2,S,12.0
S12,42.0,34.0,46.0,25.0,37.0,34.0,1739.0,square1,j,0.1817,0,S,12.0
S12,43.0,37.0,42.0,30.0,42.0,42.0,1781.0,square2,f,0.1256,1,S,12.0
S12,44.0,33.0,49.0,36.0,39.0,49.0,1830.0,square2,f,0.2325,1,S,12.0
S12,45.0,35.0,40.0,30.0,47.0,40.0,1870.0,square2,f,0.1157,1,S,12.0
S12,46.0,40.0,41.0,29.0,35.0,41.0,1911.0,square2,f,0.2405,1,S,12.0
S12,47.0,32.0,42.0,28.0,43.0,42.0,1953.0,square2,f,0.2161,1,S,12.0
S12,48.0,43.0,47.0,31.0,38.0,47.0,2000.0,square2,f,0.1138,1,S,12.0
S12,49.0,37.0,41.0,35.0,40.0,41.0,2041.0,square2,f,0.1308,1,S,12.0
S7,0.0,68.0,73.0,62.0,57.0,68.0,68.0,square1,r,0.7482,0,S,7.0
S7,1.0,74.0,67.0,66.0,59.0,67.0,135.0,square2,i,0.0184,1,S,7.0
S7,2.0,68.0,69.0,65.0,60.0,65.0,200.0,square3,j,0.2197,2,S,7.0
S7,3.0,74.0,68.0,65.0,63.0,63.0,263.0,square4,f,0.1015,3,S,7.0
S7,4.0,68.0,74.0,67.0,63.0,68.0,331.0,square1,r,0.2824,0,S,7.0
S7,5.0,68.0,67.0,61.0,57.0,68.0,399.0,square1,r,0.0624,0,S,7.0
S7,6.0,72.0,64.0,65.0,51.0,72.0,471.0,square1,r,0.1391,0,S,7.0
S7,7.0,69.0,63.0,69.0,63.0,69.0,540.0,square1,r,0.1964,0,S,7.0
S7,8.0,71.0,68.0,63.0,54.0,71.0,611.0,square1,r,0.1291,0,S,7.0
S7,9.0,81.0,66.0,68.0,62.0,81.0,692.0,square1,r,0.2201,0,S,7.0
S7,10.0,72.0,73.0,68.0,61.0,72.0,764.0,square1,r,0.1148,0,S,7.0
S7,11.0,72.0,72.0,62.0,58.0,72.0,836.0,square1,r,0.1869,0,S,7.0
S7,12.0,66.0,66.0,62.0,61.0,66.0,902.0,square1,r,0.1597,0,S,7.0
S7,13.0,73.0,75.0,75.0,68.0,75.0,977.0,square2,i,0.1083,1,S,7.0
S7,14.0,71.0,73.0,72.0,66.0,72.0,1049.0,square3,j,0.1452,2,S,7.0
S7,15.0,75.0,68.0,68.0,65.0,65.0,1114.0,square4,f,0.1629,3,S,7.0
S7,16.0,67.0,65.0,62.0,56.0,65.0,1179.0,square2,i,0.0677,1,S,7.0
S7,17.0,72.0,67.0,63.0,64.0,63.0,1242.0,square3,j,0.2482,2,S,7.0
S7,18.0,73.0,69.0,66.0,65.0,73.0,1315.0,square1,r,0.0905,0,S,7.0
S7,19.0,75.0,70.0,62.0,58.0,75.0,1390.0,square1,r,0.1664,0,S,7.0
S7,20.0,76.0,63.0,67.0,62.0,76.0,1466.0,square1,r,0.1862,0,S,7.0
S7,21.0,79.0,76.0,63.0,64.0,79.0,1545.0,square1,r,0.1811,0,S,7.0
S7,22.0,67.0,72.0,63.0,62.0,67.0,1612.0,square1,r,0.1043,0,S,7.0
S7,23.0,69.0,71.0,70.0,62.0,69.0,1681.0,square1,r,0.1983,0,S,7.0
S7,24.0,74.0,67.0,70.0,62.0,67.0,1748.0,square2,i,0.1383,1,S,7.0
S7,25.0,70.0,67.0,72.0,62.0,70.0,1818.0,square1,r,0.1088,0,S,7.0
S7,26.0,72.0,62.0,74.0,65.0,74.0,1892.0,square3,j,0.1888,2,S,7.0
S7,27.0,69.0,70.0,68.0,62.0,62.0,1954.0,square4,f,0.1741,3,S,7.0
S7,28.0,65.0,66.0,60.0,62.0,60.0,2014.0,square3,j,0.1647,2,S,7.0
S7,29.0,70.0,64.0,60.0,68.0,70.0,2084.0,square1,r,0.1139,0,S,7.0
S7,30.0,69.0,69.0,64.0,57.0,69.0,2153.0,square1,r,0.1898,0,S,7.0
S7,31.0,77.0,67.0,65.0,60.0,77.0,2230.0,square1,r,0.5236,0,S,7.0
S7,32.0,67.0,75.0,65.0,58.0,67.0,2297.0,square1,r,0.0781,0,S,7.0
S7,33.0,74.0,66.0,66.0,60.0,74.0,2371.0,square1,r,0.5219,0,S,7.0
S7,34.0,72.0,72.0,66.0,61.0,72.0,2443.0,square2,i,0.2351,1,S,7.0
S7,35.0,67.0,68.0,64.0,62.0,64.0,2507.0,square3,j,0.2356,2,S,7.0
S7,36.0,64.0,63.0,70.0,58.0,58.0,2565.0,square4,f,0.1505,3,S,7.0
S7,37.0,80.0,72.0,64.0,53.0,80.0,2645.0,square1,r,0.317,0,S,7.0
S7,38.0,78.0,69.0,76.0,67.0,78.0,2723.0,square1,r,0.2078,0,S,7.0
S7,39.0,69.0,66.0,60.0,67.0,69.0,2792.0,square1,r,0.2184,0,S,7.0
S7,40.0,72.0,71.0,63.0,66.0,72.0,2864.0,square1,r,0.2168,0,S,7.0
S7,41.0,80.0,73.0,65.0,63.0,80.0,2944.0,square1,r,0.216,0,S,7.0
S7,42.0,77.0,60.0,65.0,59.0,77.0,3021.0,square1,r,0.0726,0,S,7.0
S7,43.0,70.0,72.0,70.0,63.0,70.0,3091.0,square1,r,0.2644,0,S,7.0
S7,44.0,77.0,70.0,66.0,58.0,77.0,3168.0,square1,r,0.1129,0,S,7.0
S7,45.0,75.0,69.0,73.0,58.0,75.0,3243.0,square1,r,0.1835,0,S,7.0
S7,46.0,74.0,71.0,63.0,63.0,74.0,3317.0,square1,r,0.1417,0,S,7.0
S7,47.0,73.0,75.0,71.0,64.0,73.0,3390.0,square1,r,0.2395,0,S,7.0
S7,48.0,78.0,79.0,64.0,58.0,78.0,3468.0,square1,r,0.1923,0,S,7.0
S7,49.0,75.0,72.0,66.0,72.0,75.0,3543.0,square1,r,0.2572,0,S,7.0
S5,0.0,90.0,70.0,79.0,84.0,84.0,84.0,square4,r,0.6182,3,S,5.0
S5,1.0,92.0,77.0,83.0,81.0,83.0,167.0,square3,i,0.0309,2,S,5.0
S5,2.0,83.0,72.0,81.0,76.0,83.0,250.0,square1,j,0.1805,0,S,5.0
S5,3.0,87.0,72.0,79.0,81.0,72.0,322.0,square2,f,0.1971,1,S,5.0
S5,4.0,86.0,81.0,78.0,72.0,72.0,394.0,square4,r,0.152,3,S,5.0
S5,5.0,89.0,70.0,79.0,83.0,79.0,473.0,square3,i,0.183,2,S,5.0
S5,6.0,86.0,69.0,81.0,81.0,86.0,559.0,square1,j,0.1827,0,S,5.0
S5,7.0,82.0,72.0,86.0,80.0,72.0,631.0,square2,f,0.2226,1,S,5.0
S5,8.0,84.0,67.0,80.0,77.0,84.0,715.0,square1,j,0.2232,0,S,5.0
S5,9.0,92.0,80.0,86.0,84.0,86.0,801.0,square3,i,0.149,2,S,5.0
S5,10.0,82.0,71.0,80.0,80.0,80.0,881.0,square4,r,0.2077,3,S,5.0
S5,11.0,80.0,75.0,79.0,75.0,75.0,956.0,square2,f,0.233,1,S,5.0
S5,12.0,84.0,75.0,80.0,82.0,84.0,1040.0,square1,j,0.1992,0,S,5.0
S5,13.0,85.0,74.0,74.0,81.0,74.0,1114.0,square3,i,0.1884,2,S,5.0
S5,14.0,81.0,79.0,85.0,81.0,81.0,1195.0,square1,j,0.2339,0,S,5.0
S5,15.0,81.0,75.0,76.0,77.0,77.0,1272.0,square4,r,0.2021,3,S,5.0
S5,16.0,86.0,74.0,78.0,74.0,86.0,1358.0,square1,j,0.1631,0,S,5.0
S5,17.0,81.0,77.0,81.0,77.0,77.0,1435.0,square2,f,0.1485,1,S,5.0
S5,18.0,87.0,70.0,84.0,82.0,84.0,1519.0,square3,i,0.1804,2,S,5.0
S5,19.0,84.0,76.0,83.0,76.0,84.0,1603.0,square1,j,0.1308,0,S,5.0
S5,20.0,79.0,78.0,82.0,76.0,82.0,1685.0,square3,i,0.1807,2,S,5.0
S5,21.0,86.0,68.0,80.0,72.0,86.0,1771.0,square1,j,0.1964,0,S,5.0
S5,22.0,93.0,80.0,85.0,84.0,85.0,1856.0,square3,i,0.1224,2,S,5.0
S5,23.0,87.0,73.0,76.0,70.0,87.0,1943.0,square1,j,0.1527,0,S,5.0
S5,24.0,85.0,69.0,81.0,78.0,81.0,2024.0,square3,i,0.1914,2,S,5.0
S5,25.0,89.0,77.0,77.0,76.0,89.0,2113.0,square1,j,0.2089,0,S,5.0
S5,26.0,84.0,71.0,81.0,75.0,81.0,2194.0,square3,i,0.0632,2,S,5.0
S5,27.0,84.0,75.0,82.0,71.0,84.0,2278.0,square1,j,0.2209,0,S,5.0
S5,28.0,83.0,72.0,82.0,78.0,72.0,2350.0,square2,f,0.1388,1,S,5.0
S5,29.0,91.0,67.0,79.0,74.0,74.0,2424.0,square4,r,0.1805,3,S,5.0
S5,30.0,82.0,69.0,81.0,77.0,81.0,2505.0,square3,i,0.1904,2,S,5.0
S5,31.0,82.0,72.0,80.0,78.0,82.0,2587.0,square1,j,0.2185,0,S,5.0
S5,32.0,83.0,73.0,91.0,80.0,91.0,2678.0,square3,i,0.1422,2,S,5.0
S5,33.0,83.0,68.0,85.0,78.0,83.0,2761.0,square1,j,0.2502,0,S,5.0
S5,34.0,89.0,79.0,83.0,77.0,83.0,2844.0,square3,i,0.1041,2,S,5.0
S5,35.0,88.0,72.0,79.0,80.0,88.0,2932.0,square1,j,0.1192,0,S,5.0
S5,36.0,90.0,74.0,84.0,76.0,84.0,3016.0,square3,i,0.1692,2,S,5.0
S5,37.0,85.0,75.0,80.0,82.0,85.0,3101.0,square1,j,0.1988,0,S,5.0
S5,38.0,78.0,74.0,85.0,79.0,74.0,3175.0,square2,f,0.0764,1,S,5.0
S5,39.0,87.0,73.0,87.0,85.0,85.0,3260.0,square4,r,0.2007,3,S,5.0
S5,40.0,83.0,67.0,81.0,80.0,81.0,3341.0,square3,i,0.1468,2,S,5.0
S5,41.0,82.0,69.0,88.0,80.0,82.0,3423.0,square1,j,0.2314,0,S,5.0
S5,42.0,85.0,78.0,91.0,80.0,80.0,3503.0,square4,r,0.0699,3,S,5.0
S5,43.0,89.0,74.0,78.0,74.0,78.0,3581.0,square3,i,0.1963,2,S,5.0
S5,44.0,90.0,74.0,77.0,85.0,85.0,3666.0,square4,r,0.218,3,S,5.0
S5,45.0,89.0,68.0,81.0,78.0,89.0,3755.0,square1,j,0.1663,0,S,5.0
S5,46.0,86.0,70.0,86.0,68.0,68.0,3823.0,square4,r,0.1062,3,S,5.0
S5,47.0,90.0,77.0,85.0,84.0,85.0,3908.0,square3,i,0.2315,2,S,5.0
S5,48.0,76.0,66.0,82.0,79.0,76.0,3984.0,square1,j,0.1304,0,S,5.0
S5,49.0,84.0,73.0,82.0,75.0,73.0,4057.0,square2,f,0.2335,1,S,5.0
S1,0.0,72.0,58.0,70.0,66.0,72.0,72.0,square1,r,0.6996,0,S,1.0
S1,1.0,75.0,64.0,66.0,69.0,64.0,136.0,square2,i,0.1597,1,S,1.0
S1,2.0,75.0,62.0,62.0,79.0,62.0,198.0,square3,j,0.2315,2,S,1.0
S1,3.0,68.0,62.0,63.0,69.0,69.0,267.0,square4,f,0.1862,3,S,1.0
S1,4.0,82.0,63.0,64.0,73.0,82.0,349.0,square1,r,0.1052,0,S,1.0
S1,5.0,66.0,70.0,65.0,73.0,66.0,415.0,square1,r,0.1509,0,S,1.0
S1,6.0,73.0,65.0,62.0,65.0,73.0,488.0,square1,r,0.0716,0,S,1.0
S1,7.0,70.0,61.0,65.0,66.0,70.0,558.0,square1,r,0.1153,0,S,1.0
S1,8.0,78.0,63.0,67.0,68.0,78.0,636.0,square1,r,0.0326,0,S,1.0
S1,9.0,74.0,67.0,66.0,68.0,67.0,703.0,square2,i,0.0574,1,S,1.0
S1,10.0,73.0,59.0,68.0,68.0,68.0,771.0,square3,j,0.0817,2,S,1.0
S1,11.0,76.0,65.0,62.0,81.0,81.0,852.0,square4,f,0.1464,3,S,1.0
S1,12.0,77.0,66.0,69.0,63.0,63.0,915.0,square4,f,0.2469,3,S,1.0
S1,13.0,75.0,63.0,68.0,73.0,75.0,990.0,square1,r,0.2339,0,S,1.0
S1,14.0,67.0,60.0,67.0,69.0,60.0,1050.0,square2,i,0.1814,1,S,1.0
S1,15.0,70.0,63.0,69.0,73.0,69.0,1119.0,square3,j,0.0667,2,S,1.0
S1,16.0,69.0,61.0,69.0,69.0,69.0,1188.0,square1,r,0.2454,0,S,1.0
S1,17.0,73.0,68.0,67.0,73.0,73.0,1261.0,square1,r,0.1381,0,S,1.0
S1,18.0,70.0,58.0,73.0,66.0,70.0,1331.0,square1,r,0.0965,0,S,1.0
S1,19.0,75.0,58.0,62.0,68.0,75.0,1406.0,square1,r,0.1152,0,S,1.0
S1,20.0,76.0,58.0,72.0,67.0,76.0,1482.0,square1,r,0.2057,0,S,1.0
S1,21.0,69.0,66.0,66.0,67.0,69.0,1551.0,square1,r,0.1731,0,S,1.0
S1,22.0,70.0,68.0,65.0,65.0,70.0,1621.0,square1,r,0.148,0,S,1.0
S1,23.0,71.0,60.0,64.0,64.0,71.0,1692.0,square1,r,0.1366,0,S,1.0
S1,24.0,70.0,72.0,62.0,67.0,70.0,1762.0,square1,r,0.1686,0,S,1.0
S1,25.0,68.0,60.0,70.0,65.0,68.0,1830.0,square1,r,0.1962,0,S,1.0
S1,26.0,76.0,64.0,72.0,69.0,76.0,1906.0,square1,r,0.1685,0,S,1.0
S1,27.0,71.0,56.0,70.0,65.0,65.0,1971.0,square4,f,0.271,3,S,1.0
S1,28.0,67.0,67.0,71.0,76.0,67.0,2038.0,square2,i,0.3511,1,S,1.0
S1,29.0,78.0,64.0,64.0,74.0,64.0,2102.0,square3,j,0.3015,2,S,1.0
S1,30.0,74.0,63.0,65.0,71.0,74.0,2176.0,square1,r,0.2531,0,S,1.0
S1,31.0,78.0,58.0,69.0,69.0,78.0,2254.0,square1,r,0.1534,0,S,1.0
S1,32.0,71.0,67.0,68.0,60.0,60.0,2314.0,square4,f,0.2235,3,S,1.0
S1,33.0,68.0,63.0,65.0,73.0,68.0,2382.0,square1,r,0.106,0,S,1.0
S1,34.0,71.0,62.0,74.0,73.0,71.0,2453.0,square1,r,0.1219,0,S,1.0
S1,35.0,75.0,59.0,67.0,77.0,75.0,2528.0,square1,r,0.1167,0,S,1.0
S1,36.0,77.0,60.0,66.0,67.0,77.0,2605.0,square1,r,0.1353,0,S,1.0
S1,37.0,69.0,60.0,69.0,75.0,69.0,2674.0,square1,r,0.1627,0,S,1.0
S1,38.0,77.0,64.0,62.0,70.0,77.0,2751.0,square1,r,0.1308,0,S,1.0
S1,39.0,72.0,66.0,69.0,65.0,72.0,2823.0,square1,r,0.1342,0,S,1.0
S1,40.0,69.0,63.0,66.0,69.0,69.0,2892.0,square1,r,0.1137,0,S,1.0
S1,41.0,72.0,62.0,70.0,70.0,72.0,2964.0,square1,r,0.0976,0,S,1.0
S1,42.0,78.0,60.0,63.0,62.0,78.0,3042.0,square1,r,0.1241,0,S,1.0
S1,43.0,71.0,62.0,67.0,73.0,71.0,3113.0,square1,r,0.1678,0,S,1.0
S1,44.0,75.0,63.0,69.0,73.0,75.0,3188.0,square1,r,0.2303,0,S,1.0
S1,45.0,66.0,60.0,68.0,73.0,66.0,3254.0,square1,r,0.1886,0,S,1.0
S1,46.0,74.0,67.0,69.0,71.0,67.0,3321.0,square2,i,0.4304,1,S,1.0
S1,47.0,71.0,66.0,68.0,70.0,68.0,3389.0,square3,j,0.1239,2,S,1.0
S1,48.0,72.0,75.0,71.0,77.0,71.0,3460.0,square3,j,0.28,2,S,1.0
S1,49.0,65.0,57.0,66.0,75.0,66.0,3526.0,square3,j,0.173,2,S,1.0
S4,0.0,18.0,16.0,34.0,20.0,16.0,16.0,square2,r,0.66,1,S,4.0
S4,1.0,33.0,26.0,26.0,23.0,26.0,42.0,square3,f,0.097,2,S,4.0
S4,2.0,35.0,15.0,33.0,22.0,35.0,77.0,square1,j,0.0634,0,S,4.0
S4,3.0,28.0,19.0,27.0,27.0,27.0,104.0,square4,i,0.13,3,S,4.0
S4,4.0,27.0,16.0,25.0,28.0,27.0,131.0,square1,j,0.1141,0,S,4.0
S4,5.0,23.0,22.0,31.0,24.0,23.0,154.0,square1,j,0.1969,0,S,4.0
S4,6.0,25.0,20.0,34.0,23.0,25.0,179.0,square1,j,0.2135,0,S,4.0
S4,7.0,21.0,22.0,30.0,21.0,21.0,200.0,square1,j,0.0874,0,S,4.0
S4,8.0,33.0,24.0,33.0,17.0,33.0,233.0,square3,f,0.1136,2,S,4.0
S4,9.0,24.0,18.0,31.0,28.0,18.0,251.0,square2,r,0.0971,1,S,4.0
S4,10.0,31.0,26.0,35.0,20.0,20.0,271.0,square4,i,0.0461,3,S,4.0
S4,11.0,25.0,15.0,31.0,25.0,31.0,302.0,square3,f,0.1058,2,S,4.0
S4,12.0,24.0,16.0,29.0,22.0,29.0,331.0,square3,f,0.138,2,S,4.0
S4,13.0,28.0,23.0,25.0,17.0,28.0,359.0,square1,j,0.1259,0,S,4.0
S4,14.0,22.0,23.0,21.0,23.0,23.0,382.0,square4,i,0.1273,3,S,4.0
S4,15.0,25.0,19.0,28.0,25.0,19.0,401.0,square2,r,0.067,1,S,4.0
S4,16.0,26.0,17.0,30.0,21.0,30.0,431.0,square3,f,0.348,2,S,4.0
S4,17.0,22.0,21.0,29.0,22.0,29.0,460.0,square3,f,0.1794,2,S,4.0
S4,18.0,28.0,22.0,32.0,22.0,32.0,492.0,square3,f,0.2133,2,S,4.0
S4,19.0,26.0,19.0,31.0,26.0,31.0,523.0,square3,f,0.2045,2,S,4.0
S4,20.0,28.0,18.0,28.0,25.0,28.0,551.0,square3,f,0.1474,2,S,4.0
S4,21.0,33.0,26.0,21.0,29.0,21.0,572.0,square3,f,0.1933,2,S,4.0
S4,22.0,31.0,19.0,29.0,20.0,29.0,601.0,square3,f,0.2389,2,S,4.0
S4,23.0,27.0,21.0,36.0,26.0,26.0,627.0,square4,i,0.2167,3,S,4.0
S4,24.0,28.0,15.0,32.0,21.0,28.0,655.0,square1,j,0.2193,0,S,4.0
S4,25.0,27.0,18.0,28.0,25.0,18.0,673.0,square2,r,0.214,1,S,4.0
S4,26.0,26.0,20.0,27.0,14.0,26.0,699.0,square1,j,0.1491,0,S,4.0
S4,27.0,28.0,19.0,36.0,18.0,36.0,735.0,square3,f,0.1973,2,S,4.0
S4,28.0,28.0,19.0,28.0,23.0,28.0,763.0,square3,f,0.1805,2,S,4.0
S4,29.0,25.0,22.0,29.0,23.0,23.0,786.0,square4,i,0.2311,3,S,4.0
S4,30.0,26.0,16.0,30.0,20.0,26.0,812.0,square1,j,0.1198,0,S,4.0
S4,31.0,23.0,25.0,26.0,30.0,26.0,838.0,square3,f,0.2014,2,S,4.0
S4,32.0,21.0,26.0,22.0,23.0,22.0,860.0,square3,f,0.1858,2,S,4.0
S4,33.0,25.0,22.0,24.0,17.0,25.0,885.0,square1,j,0.1833,0,S,4.0
S4,34.0,30.0,22.0,33.0,24.0,30.0,915.0,square1,j,0.2675,0,S,4.0
S4,35.0,23.0,21.0,35.0,26.0,23.0,938.0,square1,j,0.2236,0,S,4.0
S4,36.0,19.0,21.0,33.0,24.0,33.0,971.0,square3,f,0.1789,2,S,4.0
S4,37.0,20.0,17.0,26.0,26.0,26.0,997.0,square3,f,0.1423,2,S,4.0
S4,38.0,28.0,20.0,28.0,26.0,28.0,1025.0,square1,j,0.2178,0,S,4.0
S4,39.0,28.0,23.0,40.0,27.0,27.0,1052.0,square4,i,0.2678,3,S,4.0
S4,40.0,25.0,24.0,32.0,22.0,32.0,1084.0,square3,f,0.2163,2,S,4.0
S4,41.0,23.0,23.0,26.0,17.0,26.0,1110.0,square3,f,0.2344,2,S,4.0
S4,42.0,26.0,18.0,33.0,22.0,26.0,1136.0,square1,j,0.1376,0,S,4.0
S4,43.0,22.0,21.0,36.0,25.0,21.0,1157.0,square2,r,0.1301,1,S,4.0
S4,44.0,21.0,18.0,33.0,14.0,14.0,1171.0,square4,i,0.1908,3,S,4.0
S4,45.0,29.0,19.0,30.0,29.0,30.0,1201.0,square3,f,0.1304,2,S,4.0
S4,46.0,21.0,16.0,22.0,23.0,21.0,1222.0,square1,j,0.1311,0,S,4.0
S4,47.0,22.0,18.0,28.0,22.0,28.0,1250.0,square3,f,0.117,2,S,4.0
S4,48.0,33.0,21.0,32.0,26.0,32.0,1282.0,square3,f,0.0515,2,S,4.0
S4,49.0,23.0,17.0,20.0,21.0,20.0,1302.0,square3,f,0.1577,2,S,4.0
S8,0.0,58.0,60.0,52.0,45.0,58.0,58.0,square1,r,0.545,0,S,8.0
S8,1.0,55.0,57.0,56.0,52.0,57.0,115.0,square2,i,0.1599,1,S,8.0
S8,2.0,54.0,58.0,58.0,49.0,58.0,173.0,square3,j,0.2319,2,S,8.0
S8,3.0,55.0,62.0,52.0,53.0,53.0,226.0,square4,f,0.1385,3,S,8.0
S8,4.0,55.0,60.0,49.0,51.0,55.0,281.0,square1,r,0.1985,0,S,8.0
S8,5.0,48.0,63.0,61.0,49.0,61.0,342.0,square3,j,0.132,2,S,8.0
S8,6.0,58.0,63.0,59.0,55.0,59.0,401.0,square3,j,0.2154,2,S,8.0
S8,7.0,56.0,53.0,49.0,51.0,49.0,450.0,square3,j,0.1197,2,S,8.0
S8,8.0,61.0,63.0,66.0,49.0,63.0,513.0,square2,i,0.1757,1,S,8.0
S8,9.0,60.0,59.0,53.0,47.0,59.0,572.0,square2,i,0.184,1,S,8.0
S8,10.0,55.0,63.0,52.0,55.0,63.0,635.0,square2,i,0.1467,1,S,8.0
S8,11.0,62.0,60.0,54.0,50.0,60.0,695.0,square2,i,0.2004,1,S,8.0
S8,12.0,58.0,64.0,51.0,52.0,64.0,759.0,square2,i,0.0905,1,S,8.0
S8,13.0,62.0,59.0,53.0,53.0,59.0,818.0,square2,i,0.0887,1,S,8.0
S8,14.0,51.0,62.0,61.0,54.0,51.0,869.0,square1,r,0.2648,0,S,8.0
S8,15.0,56.0,68.0,56.0,50.0,50.0,919.0,square4,f,0.0889,3,S,8.0
S8,16.0,58.0,64.0,56.0,50.0,56.0,975.0,square3,j,0.0803,2,S,8.0
S8,17.0,64.0,63.0,60.0,42.0,63.0,1038.0,square2,i,0.0812,1,S,8.0
S8,18.0,54.0,64.0,57.0,55.0,64.0,1102.0,square2,i,0.1478,1,S,8.0
S8,19.0,56.0,53.0,57.0,53.0,53.0,1155.0,square2,i,0.2306,1,S,8.0
S8,20.0,59.0,64.0,56.0,49.0,56.0,1211.0,square3,j,0.1788,2,S,8.0
S8,21.0,54.0,59.0,55.0,48.0,54.0,1265.0,square1,r,0.186,0,S,8.0
S8,22.0,63.0,63.0,59.0,49.0,49.0,1314.0,square4,f,0.112,3,S,8.0
S8,23.0,59.0,60.0,48.0,52.0,60.0,1374.0,square2,i,0.1649,1,S,8.0
S8,24.0,55.0,53.0,60.0,50.0,53.0,1427.0,square2,i,0.2092,1,S,8.0
S8,25.0,57.0,60.0,55.0,54.0,60.0,1487.0,square2,i,0.181,1,S,8.0
S8,26.0,62.0,66.0,57.0,58.0,66.0,1553.0,square2,i,0.0558,1,S,8.0
S8,27.0,58.0,55.0,52.0,48.0,55.0,1608.0,square2,i,0.0167,1,S,8.0
S8,28.0,53.0,59.0,53.0,55.0,59.0,1667.0,square2,i,0.0595,1,S,8.0
S8,29.0,60.0,58.0,57.0,53.0,58.0,1725.0,square2,i,0.3739,1,S,8.0
S8,30.0,57.0,67.0,52.0,56.0,67.0,1792.0,square2,i,0.1221,1,S,8.0
S8,31.0,60.0,58.0,52.0,50.0,58.0,1850.0,square2,i,0.2163,1,S,8.0
S8,32.0,54.0,61.0,56.0,57.0,61.0,1911.0,square2,i,0.2806,1,S,8.0
S8,33.0,66.0,64.0,63.0,52.0,64.0,1975.0,square2,i,0.0802,1,S,8.0
S8,34.0,54.0,65.0,66.0,56.0,65.0,2040.0,square2,i,0.0864,1,S,8.0
S8,35.0,54.0,62.0,61.0,48.0,62.0,2102.0,square2,i,0.0798,1,S,8.0
S8,36.0,53.0,63.0,54.0,55.0,63.0,2165.0,square2,i,0.1249,1,S,8.0
S8,37.0,64.0,58.0,57.0,51.0,58.0,2223.0,square2,i,0.1149,1,S,8.0
S8,38.0,68.0,65.0,59.0,57.0,59.0,2282.0,square3,j,0.1756,2,S,8.0
S8,39.0,64.0,65.0,51.0,55.0,64.0,2346.0,square1,r,0.2798,0,S,8.0
S8,40.0,63.0,61.0,57.0,47.0,63.0,2409.0,square1,r,0.1743,0,S,8.0
S8,41.0,65.0,58.0,55.0,49.0,65.0,2474.0,square1,r,0.4292,0,S,8.0
S8,42.0,52.0,60.0,51.0,56.0,52.0,2526.0,square1,r,0.2319,0,S,8.0
S8,43.0,63.0,57.0,48.0,50.0,57.0,2583.0,square2,i,0.1219,1,S,8.0
S8,44.0,59.0,63.0,53.0,53.0,53.0,2636.0,square3,j,0.1882,2,S,8.0
S8,45.0,62.0,62.0,60.0,53.0,53.0,2689.0,square4,f,0.1467,3,S,8.0
S8,46.0,56.0,62.0,57.0,60.0,62.0,2751.0,square2,i,0.1118,1,S,8.0
S8,47.0,60.0,63.0,58.0,56.0,63.0,2814.0,square2,i,0.198,1,S,8.0
S8,48.0,59.0,63.0,49.0,53.0,63.0,2877.0,square2,i,0.1059,1,S,8.0
S8,49.0,67.0,67.0,59.0,55.0,67.0,2944.0,square2,i,0.1978,1,S,8.0
