block,Trial,square1,square2,square3,square4,currPoints,totalPoints,square,choiceKey.keys,choiceKey.rt,armNum,blockType,blockNum
prac,0.0,100.0,0.0,0.0,0.0,100,100.0,square1,,,0,p,0.0
prac,1.0,100.0,0.0,0.0,0.0,100,200.0,square1,,,0,p,0.0
prac,2.0,100.0,0.0,0.0,0.0,100,300.0,square1,,,0,p,0.0
prac,3.0,100.0,0.0,0.0,0.0,100,400.0,square1,,,0,p,0.0
prac,4.0,100.0,0.0,0.0,0.0,100,500.0,square1,,,0,p,0.0
prac,5.0,100.0,0.0,0.0,0.0,100,600.0,square1,,,0,p,0.0
prac,6.0,100.0,0.0,0.0,0.0,0,600.0,square3,,,2,p,0.0
prac,7.0,100.0,0.0,0.0,0.0,0,600.0,square4,,,3,p,0.0
prac,8.0,100.0,0.0,0.0,0.0,0,600.0,square2,,,1,p,0.0
prac,9.0,100.0,0.0,0.0,0.0,100,700.0,square1,,,0,p,0.0
V7,0.0,86.0,61.0,78.0,68.0,78,78.0,square3,r,0.5912,2,V,7.0
V7,1.0,95.0,62.0,79.0,70.0,62,140.0,square2,i,0.2487,1,V,7.0
V7,2.0,89.0,67.0,81.0,77.0,77,217.0,square4,j,0.1815,3,V,7.0
V7,3.0,90.0,56.0,85.0,72.0,85,302.0,square3,r,0.5163,2,V,7.0
V7,4.0,91.0,65.0,77.0,71.0,65,367.0,square2,i,0.2485,1,V,7.0
V7,5.0,91.0,58.0,84.0,72.0,84,451.0,square3,r,0.2428,2,V,7.0
V7,6.0,94.0,65.0,87.0,72.0,72,523.0,square4,j,0.3334,3,V,7.0
V7,7.0,89.0,67.0,79.0,67.0,79,602.0,square3,r,0.1941,2,V,7.0
V7,8.0,91.0,65.0,84.0,68.0,68,670.0,square4,j,0.2366,3,V,7.0
V7,9.0,92.0,60.0,87.0,69.0,87,757.0,square3,r,0.2449,2,V,7.0
V7,10.0,90.0,67.0,81.0,76.0,81,838.0,square3,r,0.1748,2,V,7.0
V7,11.0,86.0,67.0,83.0,73.0,86,924.0,square1,f,0.1514,0,V,7.0
V7,12.0,90.0,62.0,80.0,72.0,90,1014.0,square1,f,0.1934,0,V,7.0
V7,13.0,84.0,60.0,88.0,71.0,84,1098.0,square1,f,0.2877,0,V,7.0
V7,14.0,95.0,64.0,80.0,70.0,95,1193.0,square1,f,0.2373,0,V,7.0
V7,15.0,86.0,60.0,81.0,70.0,86,1279.0,square1,f,0.2025,0,V,7.0
V7,16.0,85.0,65.0,77.0,69.0,85,1364.0,square1,f,0.206,0,V,7.0
V7,17.0,91.0,65.0,81.0,70.0,91,1455.0,square1,f,0.5211,0,V,7.0
V7,18.0,95.0,61.0,81.0,76.0,95,1550.0,square1,f,0.2593,0,V,7.0
V7,19.0,90.0,58.0,79.0,72.0,90,1640.0,square1,f,0.1951,0,V,7.0
V7,20.0,94.0,68.0,80.0,79.0,94,1734.0,square1,f,0.158,0,V,7.0
V7,21.0,92.0,66.0,82.0,70.0,92,1826.0,square1,f,0.1214,0,V,7.0
V7,22.0,92.0,64.0,83.0,72.0,92,1918.0,square1,f,0.0677,0,V,7.0
V7,23.0,91.0,68.0,82.0,73.0,91,2009.0,square1,f,0.0483,0,V,7.0
V7,24.0,87.0,71.0,82.0,72.0,87,2096.0,square1,f,0.4609,0,V,7.0
V7,25.0,91.0,68.0,90.0,74.0,91,2187.0,square1,f,0.2306,0,V,7.0
V7,26.0,89.0,65.0,83.0,72.0,89,2276.0,square1,f,0.3764,0,V,7.0
V7,27.0,91.0,61.0,81.0,73.0,61,2337.0,square2,i,0.2662,1,V,7.0
V7,28.0,90.0,66.0,81.0,72.0,81,2418.0,square3,r,0.1815,2,V,7.0
V7,29.0,89.0,67.0,77.0,71.0,89,2507.0,square1,f,0.1161,0,V,7.0
V7,30.0,95.0,68.0,84.0,71.0,95,2602.0,square1,f,0.2663,0,V,7.0
V7,31.0,95.0,61.0,81.0,70.0,95,2697.0,square1,f,0.206,0,V,7.0
V7,32.0,89.0,65.0,82.0,75.0,89,2786.0,square1,f,0.2427,0,V,7.0
V7,33.0,77.0,50.0,80.0,61.0,77,2863.0,square1,f,0.0531,0,V,7.0
V7,34.0,76.0,54.0,78.0,61.0,61,2924.0,square4,j,0.697,3,V,7.0
V7,35.0,71.0,51.0,80.0,64.0,51,2975.0,square2,i,0.1248,1,V,7.0
V7,36.0,75.0,51.0,80.0,62.0,80,3055.0,square3,r,0.0636,2,V,7.0
V7,37.0,73.0,58.0,86.0,63.0,86,3141.0,square3,r,0.2298,2,V,7.0
V7,38.0,73.0,50.0,86.0,61.0,86,3227.0,square3,r,0.0395,2,V,7.0
V7,39.0,67.0,53.0,78.0,61.0,78,3305.0,square3,r,0.061,2,V,7.0
V7,40.0,71.0,53.0,84.0,58.0,71,3376.0,square1,f,0.2089,0,V,7.0
V7,41.0,75.0,51.0,83.0,63.0,83,3459.0,square3,r,0.1866,2,V,7.0
V7,42.0,69.0,48.0,87.0,63.0,87,3546.0,square3,r,0.2272,2,V,7.0
V7,43.0,70.0,58.0,81.0,60.0,81,3627.0,square3,r,0.1874,2,V,7.0
V7,44.0,68.0,56.0,76.0,63.0,76,3703.0,square3,r,0.0792,2,V,7.0
V7,45.0,74.0,59.0,76.0,56.0,74,3777.0,square1,f,0.4821,0,V,7.0
V7,46.0,72.0,54.0,77.0,61.0,77,3854.0,square3,r,0.224,2,V,7.0
V7,47.0,69.0,47.0,81.0,62.0,81,3935.0,square3,r,0.2847,2,V,7.0
V7,48.0,75.0,52.0,81.0,57.0,81,4016.0,square3,r,0.2328,2,V,7.0
V7,49.0,74.0,55.0,78.0,60.0,78,4094.0,square3,r,0.2061,2,V,7.0
V7,50.0,71.0,51.0,80.0,61.0,80,4174.0,square3,r,0.1024,2,V,7.0
V7,51.0,75.0,55.0,85.0,62.0,85,4259.0,square3,r,0.1517,2,V,7.0
V7,52.0,75.0,59.0,76.0,59.0,76,4335.0,square3,r,0.3384,2,V,7.0
V7,53.0,72.0,53.0,84.0,66.0,72,4407.0,square1,f,0.3936,0,V,7.0
V7,54.0,69.0,51.0,81.0,60.0,81,4488.0,square3,r,0.2007,2,V,7.0
V7,55.0,74.0,56.0,75.0,54.0,75,4563.0,square3,r,0.139,2,V,7.0
V7,56.0,76.0,51.0,83.0,58.0,83,4646.0,square3,r,0.2765,2,V,7.0
V7,57.0,71.0,53.0,80.0,64.0,53,4699.0,square2,i,0.1814,1,V,7.0
V7,58.0,81.0,56.0,79.0,61.0,61,4760.0,square4,j,0.139,3,V,7.0
V7,59.0,71.0,55.0,83.0,59.0,83,4843.0,square3,r,0.1477,2,V,7.0
V7,60.0,73.0,53.0,83.0,64.0,83,4926.0,square3,r,0.2908,2,V,7.0
V7,61.0,70.0,53.0,77.0,63.0,77,5003.0,square3,r,0.1874,2,V,7.0
V7,62.0,71.0,54.0,76.0,61.0,76,5079.0,square3,r,0.2533,2,V,7.0
V7,63.0,68.0,45.0,79.0,65.0,79,5158.0,square3,r,0.1939,2,V,7.0
V7,64.0,65.0,55.0,79.0,59.0,79,5237.0,square3,r,0.0093,2,V,7.0
V7,65.0,74.0,54.0,81.0,61.0,81,5318.0,square3,r,0.1615,2,V,7.0
V7,66.0,70.0,56.0,81.0,63.0,81,5399.0,square3,r,0.0674,2,V,7.0
V7,67.0,70.0,85.0,64.0,92.0,64,5463.0,square3,r,0.3466,2,V,7.0
V7,68.0,73.0,85.0,68.0,92.0,73,5536.0,square1,f,0.2655,0,V,7.0
V7,69.0,75.0,83.0,70.0,91.0,91,5627.0,square4,j,0.3591,3,V,7.0
V7,70.0,75.0,85.0,69.0,91.0,91,5718.0,square4,j,0.4571,3,V,7.0
V7,71.0,71.0,86.0,65.0,94.0,94,5812.0,square4,j,0.2869,3,V,7.0
V7,72.0,77.0,86.0,65.0,98.0,98,5910.0,square4,j,0.3333,3,V,7.0
V7,73.0,77.0,84.0,63.0,94.0,94,6004.0,square4,j,0.2305,3,V,7.0
V7,74.0,71.0,86.0,64.0,91.0,91,6095.0,square4,j,0.2438,3,V,7.0
V7,75.0,73.0,90.0,60.0,90.0,90,6185.0,square4,j,0.2252,3,V,7.0
V7,76.0,79.0,84.0,68.0,95.0,95,6280.0,square4,j,0.2118,3,V,7.0
V7,77.0,73.0,85.0,66.0,89.0,89,6369.0,square4,j,0.2482,3,V,7.0
V7,78.0,75.0,82.0,67.0,91.0,91,6460.0,square4,j,0.0728,3,V,7.0
V7,79.0,72.0,85.0,60.0,90.0,90,6550.0,square4,j,0.1661,3,V,7.0
V7,80.0,73.0,83.0,66.0,97.0,97,6647.0,square4,j,0.1943,3,V,7.0
V7,81.0,73.0,84.0,67.0,92.0,92,6739.0,square4,j,0.1896,3,V,7.0
V7,82.0,69.0,84.0,65.0,91.0,91,6830.0,square4,j,0.1884,3,V,7.0
V7,83.0,76.0,83.0,72.0,99.0,99,6929.0,square4,j,0.0383,3,V,7.0
V7,84.0,72.0,84.0,70.0,94.0,94,7023.0,square4,j,0.1543,3,V,7.0
V7,85.0,77.0,83.0,67.0,88.0,88,7111.0,square4,j,0.0799,3,V,7.0
V7,86.0,76.0,80.0,67.0,90.0,90,7201.0,square4,j,0.4067,3,V,7.0
V7,87.0,70.0,86.0,67.0,95.0,95,7296.0,square4,j,0.4122,3,V,7.0
V7,88.0,76.0,84.0,67.0,100.0,100,7396.0,square4,j,0.0633,3,V,7.0
V7,89.0,71.0,88.0,60.0,97.0,97,7493.0,square4,j,0.5577,3,V,7.0
V7,90.0,69.0,82.0,71.0,95.0,95,7588.0,square4,j,0.0735,3,V,7.0
V7,91.0,80.0,84.0,65.0,92.0,92,7680.0,square4,j,0.2482,3,V,7.0
V7,92.0,77.0,85.0,68.0,85.0,85,7765.0,square4,j,0.2791,3,V,7.0
V7,93.0,72.0,84.0,66.0,91.0,91,7856.0,square4,j,0.5702,3,V,7.0
V7,94.0,69.0,83.0,66.0,95.0,95,7951.0,square4,j,0.2673,3,V,7.0
V7,95.0,70.0,86.0,75.0,91.0,91,8042.0,square4,j,0.2311,3,V,7.0
V7,96.0,74.0,85.0,66.0,88.0,88,8130.0,square4,j,0.0789,3,V,7.0
V7,97.0,77.0,82.0,73.0,91.0,91,8221.0,square4,j,0.1089,3,V,7.0
V7,98.0,76.0,91.0,62.0,94.0,94,8315.0,square4,j,0.073,3,V,7.0
V7,99.0,74.0,84.0,67.0,88.0,88,8403.0,square4,j,0.1262,3,V,7.0
V12,0.0,47.0,30.0,38.0,55.0,47,47.0,square1,r,0.8726,0,V,12.0
V12,1.0,46.0,33.0,39.0,57.0,57,104.0,square4,f,0.0095,3,V,12.0
V12,2.0,51.0,29.0,42.0,52.0,42,146.0,square3,i,0.1104,2,V,12.0
V12,3.0,52.0,30.0,38.0,62.0,30,176.0,square2,j,0.0116,1,V,12.0
V12,4.0,48.0,30.0,39.0,62.0,48,224.0,square1,r,0.0853,0,V,12.0
V12,5.0,55.0,34.0,43.0,61.0,55,279.0,square1,r,0.0818,0,V,12.0
V12,6.0,45.0,35.0,42.0,56.0,45,324.0,square1,r,0.0791,0,V,12.0
V12,7.0,48.0,29.0,35.0,57.0,48,372.0,square1,r,0.1061,0,V,12.0
V12,8.0,46.0,33.0,38.0,59.0,38,410.0,square3,i,0.2179,2,V,12.0
V12,9.0,44.0,31.0,42.0,56.0,56,466.0,square4,f,0.0186,3,V,12.0
V12,10.0,48.0,34.0,45.0,55.0,55,521.0,square4,f,0.2275,3,V,12.0
V12,11.0,45.0,32.0,41.0,55.0,55,576.0,square4,f,0.2428,3,V,12.0
V12,12.0,52.0,26.0,42.0,57.0,57,633.0,square4,f,0.2546,3,V,12.0
V12,13.0,56.0,31.0,41.0,54.0,54,687.0,square4,f,0.0978,3,V,12.0
V12,14.0,44.0,34.0,40.0,64.0,64,751.0,square4,f,0.0022,3,V,12.0
V12,15.0,48.0,32.0,39.0,61.0,61,812.0,square4,f,0.2558,3,V,12.0
V12,16.0,49.0,33.0,37.0,58.0,58,870.0,square4,f,0.1091,3,V,12.0
V12,17.0,45.0,33.0,43.0,57.0,57,927.0,square4,f,0.2901,3,V,12.0
V12,18.0,45.0,28.0,40.0,58.0,58,985.0,square4,f,0.103,3,V,12.0
V12,19.0,42.0,33.0,43.0,59.0,59,1044.0,square4,f,0.0303,3,V,12.0
V12,20.0,46.0,30.0,38.0,62.0,62,1106.0,square4,f,0.3638,3,V,12.0
V12,21.0,46.0,35.0,40.0,55.0,55,1161.0,square4,f,1.3637,3,V,12.0
V12,22.0,46.0,34.0,36.0,63.0,63,1224.0,square4,f,0.1641,3,V,12.0
V12,23.0,54.0,34.0,42.0,56.0,56,1280.0,square4,f,0.0129,3,V,12.0
V12,24.0,44.0,30.0,41.0,59.0,59,1339.0,square4,f,0.436,3,V,12.0
V12,25.0,49.0,33.0,37.0,64.0,64,1403.0,square4,f,0.1888,3,V,12.0
V12,26.0,52.0,34.0,39.0,57.0,57,1460.0,square4,f,0.1212,3,V,12.0
V12,27.0,50.0,26.0,37.0,55.0,55,1515.0,square4,f,0.3879,3,V,12.0
V12,28.0,41.0,29.0,46.0,21.0,21,1536.0,square4,f,0.1696,3,V,12.0
V12,29.0,41.0,28.0,51.0,20.0,41,1577.0,square1,r,0.1516,0,V,12.0
V12,30.0,32.0,31.0,46.0,22.0,31,1608.0,square2,j,0.6988,1,V,12.0
V12,31.0,38.0,28.0,45.0,22.0,45,1653.0,square3,i,0.1456,2,V,12.0
V12,32.0,35.0,27.0,44.0,16.0,44,1697.0,square3,i,0.0184,2,V,12.0
V12,33.0,39.0,29.0,49.0,21.0,49,1746.0,square3,i,0.0617,2,V,12.0
V12,34.0,39.0,28.0,49.0,15.0,49,1795.0,square3,i,0.187,2,V,12.0
V12,35.0,36.0,29.0,50.0,17.0,50,1845.0,square3,i,0.1755,2,V,12.0
V12,36.0,41.0,28.0,48.0,12.0,48,1893.0,square3,i,0.189,2,V,12.0
V12,37.0,34.0,29.0,46.0,25.0,34,1927.0,square1,r,0.0916,0,V,12.0
V12,38.0,38.0,28.0,51.0,19.0,28,1955.0,square2,j,0.0784,1,V,12.0
V12,39.0,39.0,31.0,45.0,13.0,13,1968.0,square4,f,0.0004,3,V,12.0
V12,40.0,35.0,28.0,46.0,26.0,46,2014.0,square3,i,0.1247,2,V,12.0
V12,41.0,38.0,27.0,46.0,20.0,46,2060.0,square3,i,0.03,2,V,12.0
V12,42.0,40.0,26.0,50.0,23.0,50,2110.0,square3,i,0.0129,2,V,12.0
V12,43.0,33.0,30.0,45.0,18.0,45,2155.0,square3,i,0.1499,2,V,12.0
V12,44.0,39.0,31.0,46.0,22.0,46,2201.0,square3,i,0.0112,2,V,12.0
V12,45.0,32.0,26.0,42.0,20.0,42,2243.0,square3,i,0.0668,2,V,12.0
V12,46.0,36.0,29.0,43.0,24.0,43,2286.0,square3,i,0.2257,2,V,12.0
V12,47.0,37.0,30.0,46.0,21.0,46,2332.0,square3,i,0.0026,2,V,12.0
V12,48.0,37.0,27.0,44.0,19.0,44,2376.0,square3,i,0.0004,2,V,12.0
V12,49.0,36.0,33.0,55.0,16.0,55,2431.0,square3,i,0.0081,2,V,12.0
V12,50.0,45.0,28.0,44.0,18.0,44,2475.0,square3,i,0.177,2,V,12.0
V12,51.0,35.0,32.0,49.0,19.0,49,2524.0,square3,i,0.1581,2,V,12.0
V12,52.0,36.0,56.0,31.0,52.0,31,2555.0,square3,i,0.0005,2,V,12.0
V12,53.0,36.0,57.0,29.0,45.0,57,2612.0,square2,j,0.1939,1,V,12.0
V12,54.0,38.0,61.0,28.0,51.0,61,2673.0,square2,j,0.0184,1,V,12.0
V12,55.0,35.0,60.0,29.0,47.0,60,2733.0,square2,j,0.879,1,V,12.0
V12,56.0,34.0,62.0,29.0,46.0,62,2795.0,square2,j,0.2015,1,V,12.0
V12,57.0,43.0,57.0,32.0,46.0,43,2838.0,square1,r,0.1763,0,V,12.0
V12,58.0,40.0,59.0,32.0,50.0,50,2888.0,square4,f,0.1701,3,V,12.0
V12,59.0,41.0,62.0,33.0,48.0,62,2950.0,square2,j,0.005,1,V,12.0
V12,60.0,36.0,61.0,32.0,49.0,61,3011.0,square2,j,0.0018,1,V,12.0
V12,61.0,39.0,56.0,32.0,44.0,56,3067.0,square2,j,0.2178,1,V,12.0
V12,62.0,39.0,57.0,30.0,46.0,57,3124.0,square2,j,0.1578,1,V,12.0
V12,63.0,42.0,53.0,29.0,46.0,53,3177.0,square2,j,0.0732,1,V,12.0
V12,64.0,35.0,57.0,32.0,50.0,57,3234.0,square2,j,0.1516,1,V,12.0
V12,65.0,44.0,58.0,32.0,49.0,58,3292.0,square2,j,0.0311,1,V,12.0
V12,66.0,44.0,56.0,29.0,52.0,56,3348.0,square2,j,0.2545,1,V,12.0
V12,67.0,41.0,60.0,30.0,49.0,60,3408.0,square2,j,0.212,1,V,12.0
V12,68.0,42.0,58.0,32.0,45.0,58,3466.0,square2,j,0.1327,1,V,12.0
V12,69.0,36.0,60.0,33.0,50.0,60,3526.0,square2,j,0.1983,1,V,12.0
V12,70.0,36.0,57.0,27.0,46.0,57,3583.0,square2,j,0.1584,1,V,12.0
V12,71.0,41.0,59.0,32.0,48.0,59,3642.0,square2,j,0.2017,1,V,12.0
V12,72.0,34.0,59.0,31.0,49.0,59,3701.0,square2,j,0.1719,1,V,12.0
V12,73.0,71.0,53.0,65.0,49.0,53,3754.0,square2,j,0.002,1,V,12.0
V12,74.0,69.0,49.0,63.0,45.0,49,3803.0,square2,j,0.1601,1,V,12.0
V12,75.0,72.0,51.0,56.0,46.0,51,3854.0,square2,j,0.4496,1,V,12.0
V12,76.0,72.0,48.0,58.0,43.0,48,3902.0,square2,j,0.048,1,V,12.0
V12,77.0,74.0,57.0,59.0,44.0,57,3959.0,square2,j,0.0996,1,V,12.0
V12,78.0,69.0,55.0,63.0,50.0,55,4014.0,square2,j,0.1759,1,V,12.0
V12,79.0,73.0,53.0,58.0,43.0,53,4067.0,square2,j,0.1713,1,V,12.0
V12,80.0,71.0,47.0,65.0,40.0,47,4114.0,square2,j,0.0613,1,V,12.0
V12,81.0,66.0,49.0,57.0,40.0,49,4163.0,square2,j,0.1637,1,V,12.0
V12,82.0,71.0,53.0,57.0,48.0,53,4216.0,square2,j,0.1089,1,V,12.0
V12,83.0,70.0,50.0,56.0,49.0,50,4266.0,square2,j,0.0606,1,V,12.0
V12,84.0,69.0,45.0,64.0,43.0,45,4311.0,square2,j,0.15,1,V,12.0
V12,85.0,64.0,48.0,54.0,42.0,48,4359.0,square2,j,0.1157,1,V,12.0
V12,86.0,71.0,49.0,63.0,44.0,49,4408.0,square2,j,0.0173,1,V,12.0
V12,87.0,72.0,52.0,55.0,42.0,42,4450.0,square4,f,0.0673,3,V,12.0
V12,88.0,64.0,48.0,59.0,44.0,64,4514.0,square1,r,0.0635,0,V,12.0
V12,89.0,69.0,48.0,62.0,45.0,69,4583.0,square1,r,0.0829,0,V,12.0
V12,90.0,68.0,56.0,60.0,42.0,68,4651.0,square1,r,0.1152,0,V,12.0
V12,91.0,69.0,52.0,62.0,45.0,69,4720.0,square1,r,0.2391,0,V,12.0
V12,92.0,65.0,50.0,64.0,47.0,65,4785.0,square1,r,0.5151,0,V,12.0
V12,93.0,68.0,51.0,62.0,43.0,68,4853.0,square1,r,0.2663,0,V,12.0
V12,94.0,68.0,52.0,60.0,38.0,68,4921.0,square1,r,0.0486,0,V,12.0
V12,95.0,71.0,52.0,58.0,47.0,71,4992.0,square1,r,0.225,0,V,12.0
V12,96.0,66.0,49.0,59.0,44.0,66,5058.0,square1,r,0.0963,0,V,12.0
V12,97.0,74.0,47.0,54.0,47.0,74,5132.0,square1,r,0.1823,0,V,12.0
V12,98.0,68.0,43.0,64.0,41.0,68,5200.0,square1,r,0.1019,0,V,12.0
V12,99.0,71.0,53.0,62.0,44.0,71,5271.0,square1,r,0.4981,0,V,12.0
V10,0.0,28.0,21.0,37.0,46.0,37,37.0,square3,r,1.0286,2,V,10.0
V10,1.0,26.0,19.0,41.0,49.0,26,63.0,square1,f,0.1218,0,V,10.0
V10,2.0,29.0,20.0,43.0,48.0,48,111.0,square4,j,0.0554,3,V,10.0
V10,3.0,27.0,27.0,37.0,44.0,27,138.0,square2,i,0.1151,1,V,10.0
V10,4.0,28.0,16.0,36.0,47.0,47,185.0,square4,j,0.0834,3,V,10.0
V10,5.0,33.0,25.0,42.0,54.0,54,239.0,square4,j,0.0809,3,V,10.0
V10,6.0,28.0,19.0,35.0,45.0,45,284.0,square4,j,0.0004,3,V,10.0
V10,7.0,30.0,24.0,35.0,49.0,49,333.0,square4,j,0.1363,3,V,10.0
V10,8.0,37.0,29.0,41.0,47.0,47,380.0,square4,j,0.0974,3,V,10.0
V10,9.0,28.0,21.0,41.0,48.0,48,428.0,square4,j,0.1091,3,V,10.0
V10,10.0,27.0,22.0,39.0,42.0,42,470.0,square4,j,0.0908,3,V,10.0
V10,11.0,32.0,16.0,41.0,48.0,48,518.0,square4,j,0.1408,3,V,10.0
V10,12.0,34.0,15.0,33.0,49.0,49,567.0,square4,j,0.0361,3,V,10.0
V10,13.0,36.0,19.0,41.0,45.0,45,612.0,square4,j,0.1508,3,V,10.0
V10,14.0,28.0,23.0,35.0,53.0,53,665.0,square4,j,0.0065,3,V,10.0
V10,15.0,26.0,28.0,40.0,50.0,50,715.0,square4,j,0.0058,3,V,10.0
V10,16.0,30.0,25.0,42.0,47.0,47,762.0,square4,j,0.0004,3,V,10.0
V10,17.0,31.0,19.0,38.0,50.0,50,812.0,square4,j,0.018,3,V,10.0
V10,18.0,34.0,21.0,35.0,48.0,48,860.0,square4,j,0.1823,3,V,10.0
V10,19.0,31.0,24.0,39.0,46.0,46,906.0,square4,j,0.0004,3,V,10.0
V10,20.0,28.0,22.0,42.0,47.0,47,953.0,square4,j,0.0361,3,V,10.0
V10,21.0,24.0,20.0,41.0,47.0,47,1000.0,square4,j,0.0491,3,V,10.0
V10,22.0,32.0,22.0,34.0,44.0,44,1044.0,square4,j,0.1578,3,V,10.0
V10,23.0,29.0,23.0,37.0,47.0,47,1091.0,square4,j,0.1666,3,V,10.0
V10,24.0,25.0,25.0,38.0,46.0,25,1116.0,square2,i,0.0004,1,V,10.0
V10,25.0,30.0,24.0,41.0,45.0,30,1146.0,square1,f,0.1026,0,V,10.0
V10,26.0,32.0,17.0,38.0,49.0,38,1184.0,square3,r,0.1458,2,V,10.0
V10,27.0,34.0,21.0,38.0,47.0,47,1231.0,square4,j,0.0226,3,V,10.0
V10,28.0,29.0,21.0,37.0,45.0,45,1276.0,square4,j,0.0789,3,V,10.0
V10,29.0,30.0,20.0,31.0,47.0,47,1323.0,square4,j,0.1519,3,V,10.0
V10,30.0,28.0,21.0,35.0,44.0,44,1367.0,square4,j,0.1333,3,V,10.0
V10,31.0,36.0,25.0,14.0,8.0,8,1375.0,square4,j,0.1088,3,V,10.0
V10,32.0,38.0,27.0,19.0,11.0,27,1402.0,square2,i,0.154,1,V,10.0
V10,33.0,39.0,21.0,20.0,13.0,20,1422.0,square3,r,0.5549,2,V,10.0
V10,34.0,34.0,24.0,20.0,10.0,34,1456.0,square1,f,0.166,0,V,10.0
V10,35.0,44.0,29.0,17.0,11.0,44,1500.0,square1,f,0.1329,0,V,10.0
V10,36.0,33.0,30.0,17.0,9.0,30,1530.0,square2,i,0.0539,1,V,10.0
V10,37.0,31.0,27.0,12.0,6.0,31,1561.0,square1,f,0.0737,0,V,10.0
V10,38.0,34.0,29.0,15.0,10.0,15,1576.0,square3,r,0.1693,2,V,10.0
V10,39.0,35.0,21.0,19.0,5.0,35,1611.0,square1,f,0.358,0,V,10.0
V10,40.0,32.0,26.0,18.0,6.0,32,1643.0,square1,f,0.194,0,V,10.0
V10,41.0,34.0,32.0,13.0,9.0,34,1677.0,square1,f,0.1392,0,V,10.0
V10,42.0,35.0,30.0,16.0,8.0,35,1712.0,square1,f,0.1826,0,V,10.0
V10,43.0,38.0,32.0,16.0,8.0,38,1750.0,square1,f,0.1452,0,V,10.0
V10,44.0,34.0,20.0,18.0,3.0,34,1784.0,square1,f,0.0004,0,V,10.0
V10,45.0,38.0,22.0,23.0,9.0,38,1822.0,square1,f,0.1816,0,V,10.0
V10,46.0,36.0,28.0,16.0,10.0,36,1858.0,square1,f,0.1421,0,V,10.0
V10,47.0,36.0,27.0,13.0,8.0,36,1894.0,square1,f,0.1888,0,V,10.0
V10,48.0,35.0,27.0,14.0,12.0,35,1929.0,square1,f,0.015,0,V,10.0
V10,49.0,33.0,28.0,16.0,10.0,33,1962.0,square1,f,0.2367,0,V,10.0
V10,50.0,31.0,29.0,19.0,8.0,8,1970.0,square4,j,0.1461,3,V,10.0
V10,51.0,32.0,21.0,20.0,12.0,21,1991.0,square2,i,0.0414,1,V,10.0
V10,52.0,29.0,25.0,21.0,10.0,21,2012.0,square3,r,0.061,2,V,10.0
V10,53.0,39.0,29.0,23.0,2.0,39,2051.0,square1,f,0.0076,0,V,10.0
V10,54.0,33.0,28.0,19.0,7.0,33,2084.0,square1,f,0.027,0,V,10.0
V10,55.0,34.0,24.0,15.0,8.0,34,2118.0,square1,f,0.0055,0,V,10.0
V10,56.0,35.0,20.0,21.0,9.0,35,2153.0,square1,f,0.0909,0,V,10.0
V10,57.0,33.0,27.0,19.0,7.0,33,2186.0,square1,f,0.076,0,V,10.0
V10,58.0,38.0,24.0,16.0,7.0,38,2224.0,square1,f,0.1918,0,V,10.0
V10,59.0,34.0,29.0,15.0,5.0,34,2258.0,square1,f,0.1692,0,V,10.0
V10,60.0,34.0,22.0,19.0,9.0,34,2292.0,square1,f,0.1498,0,V,10.0
V10,61.0,39.0,31.0,20.0,10.0,39,2331.0,square1,f,0.2828,0,V,10.0
V10,62.0,35.0,24.0,18.0,6.0,35,2366.0,square1,f,0.0728,0,V,10.0
V10,63.0,35.0,26.0,18.0,9.0,35,2401.0,square1,f,0.1586,0,V,10.0
V10,64.0,31.0,55.0,23.0,23.0,31,2432.0,square1,f,0.0903,0,V,10.0
V10,65.0,35.0,50.0,22.0,27.0,35,2467.0,square1,f,0.2794,0,V,10.0
V10,66.0,35.0,53.0,25.0,29.0,35,2502.0,square1,f,0.1762,0,V,10.0
V10,67.0,38.0,44.0,17.0,29.0,38,2540.0,square1,f,0.0174,0,V,10.0
V10,68.0,36.0,48.0,22.0,27.0,36,2576.0,square1,f,0.1408,0,V,10.0
V10,69.0,41.0,53.0,17.0,28.0,41,2617.0,square1,f,0.2869,0,V,10.0
V10,70.0,40.0,48.0,23.0,28.0,40,2657.0,square1,f,0.0907,0,V,10.0
V10,71.0,39.0,43.0,24.0,20.0,39,2696.0,square1,f,0.2776,0,V,10.0
V10,72.0,36.0,49.0,19.0,25.0,36,2732.0,square1,f,0.2002,0,V,10.0
V10,73.0,39.0,49.0,23.0,32.0,39,2771.0,square1,f,0.1715,0,V,10.0
V10,74.0,36.0,44.0,17.0,29.0,36,2807.0,square1,f,0.0753,0,V,10.0
V10,75.0,37.0,46.0,20.0,30.0,37,2844.0,square1,f,0.0788,0,V,10.0
V10,76.0,38.0,47.0,23.0,30.0,38,2882.0,square1,f,0.1163,0,V,10.0
V10,77.0,36.0,49.0,22.0,32.0,36,2918.0,square1,f,0.2487,0,V,10.0
V10,78.0,41.0,44.0,19.0,27.0,41,2959.0,square1,f,0.0788,0,V,10.0
V10,79.0,41.0,48.0,22.0,27.0,41,3000.0,square1,f,0.0672,0,V,10.0
V10,80.0,34.0,44.0,26.0,29.0,34,3034.0,square1,f,0.0139,0,V,10.0
V10,81.0,38.0,47.0,18.0,29.0,38,3072.0,square1,f,0.2392,0,V,10.0
V10,82.0,43.0,43.0,23.0,28.0,28,3100.0,square4,j,0.1582,3,V,10.0
V10,83.0,34.0,51.0,23.0,26.0,51,3151.0,square2,i,0.1481,1,V,10.0
V10,84.0,36.0,46.0,18.0,25.0,18,3169.0,square3,r,0.2577,2,V,10.0
V10,85.0,39.0,46.0,25.0,26.0,46,3215.0,square2,i,0.0868,1,V,10.0
V10,86.0,39.0,50.0,27.0,27.0,39,3254.0,square1,f,0.0495,0,V,10.0
V10,87.0,38.0,46.0,20.0,30.0,46,3300.0,square2,i,0.0732,1,V,10.0
V10,88.0,37.0,49.0,22.0,28.0,49,3349.0,square2,i,0.2602,1,V,10.0
V10,89.0,34.0,51.0,25.0,26.0,51,3400.0,square2,i,0.0185,1,V,10.0
V10,90.0,41.0,49.0,22.0,29.0,49,3449.0,square2,i,0.0933,1,V,10.0
V10,91.0,37.0,45.0,26.0,32.0,45,3494.0,square2,i,0.0936,1,V,10.0
V10,92.0,42.0,42.0,27.0,28.0,42,3536.0,square2,i,0.0205,1,V,10.0
V10,93.0,41.0,48.0,19.0,36.0,48,3584.0,square2,i,0.025,1,V,10.0
V10,94.0,43.0,49.0,23.0,31.0,49,3633.0,square2,i,0.0384,1,V,10.0
V10,95.0,39.0,46.0,18.0,27.0,46,3679.0,square2,i,0.0303,1,V,10.0
V10,96.0,37.0,48.0,24.0,27.0,48,3727.0,square2,i,0.1825,1,V,10.0
V10,97.0,42.0,50.0,23.0,31.0,50,3777.0,square2,i,0.2545,1,V,10.0
V10,98.0,33.0,47.0,25.0,32.0,47,3824.0,square2,i,0.0003,1,V,10.0
V10,99.0,39.0,48.0,23.0,32.0,48,3872.0,square2,i,0.032,1,V,10.0
NS7,0.0,26.0,62.0,36.0,41.0,62,62.0,square2,f,0.8742,1,N,7.0
NS7,1.0,31.0,61.0,40.0,42.0,40,102.0,square3,j,0.1946,2,N,7.0
NS7,2.0,30.0,60.0,46.0,41.0,41,143.0,square4,i,0.0797,3,N,7.0
NS7,3.0,27.0,57.0,46.0,39.0,27,170.0,square1,r,0.1524,0,N,7.0
NS7,4.0,20.0,58.0,45.0,39.0,58,228.0,square2,f,0.1157,1,N,7.0
NS7,5.0,29.0,57.0,46.0,42.0,57,285.0,square2,f,0.1699,1,N,7.0
NS7,6.0,28.0,61.0,44.0,40.0,61,346.0,square2,f,0.0712,1,N,7.0
NS7,7.0,24.0,56.0,46.0,40.0,56,402.0,square2,f,0.0958,1,N,7.0
NS7,8.0,25.0,66.0,45.0,36.0,66,468.0,square2,f,0.0083,1,N,7.0
NS7,9.0,27.0,65.0,46.0,40.0,65,533.0,square2,f,0.0295,1,N,7.0
NS7,10.0,27.0,65.0,41.0,46.0,65,598.0,square2,f,0.1339,1,N,7.0
NS7,11.0,26.0,58.0,40.0,51.0,58,656.0,square2,f,0.1637,1,N,7.0
NS7,12.0,19.0,64.0,43.0,57.0,64,720.0,square2,f,0.2222,1,N,7.0
NS7,13.0,21.0,64.0,43.0,54.0,64,784.0,square2,f,0.1149,1,N,7.0
NS7,14.0,26.0,67.0,44.0,55.0,67,851.0,square2,f,0.2853,1,N,7.0
NS7,15.0,20.0,64.0,40.0,61.0,64,915.0,square2,f,0.0849,1,N,7.0
NS7,16.0,20.0,61.0,38.0,66.0,61,976.0,square2,f,0.1905,1,N,7.0
NS7,17.0,20.0,56.0,39.0,64.0,56,1032.0,square2,f,0.1559,1,N,7.0
NS7,18.0,21.0,56.0,33.0,65.0,56,1088.0,square2,f,0.0751,1,N,7.0
NS7,19.0,21.0,56.0,36.0,68.0,56,1144.0,square2,f,0.1138,1,N,7.0
NS7,20.0,26.0,58.0,37.0,64.0,58,1202.0,square2,f,0.0632,1,N,7.0
NS7,21.0,29.0,62.0,36.0,61.0,62,1264.0,square2,f,0.116,1,N,7.0
NS7,22.0,24.0,63.0,37.0,55.0,63,1327.0,square2,f,0.1214,1,N,7.0
NS7,23.0,26.0,64.0,38.0,54.0,64,1391.0,square2,f,0.1332,1,N,7.0
NS7,24.0,18.0,65.0,39.0,53.0,65,1456.0,square2,f,0.146,1,N,7.0
NS7,25.0,20.0,62.0,36.0,53.0,62,1518.0,square2,f,0.2123,1,N,7.0
NS7,26.0,24.0,56.0,39.0,52.0,56,1574.0,square2,f,0.1274,1,N,7.0
NS7,27.0,31.0,58.0,36.0,51.0,58,1632.0,square2,f,0.1364,1,N,7.0
NS7,28.0,28.0,59.0,42.0,53.0,59,1691.0,square2,f,0.2186,1,N,7.0
NS7,29.0,30.0,57.0,36.0,51.0,36,1727.0,square3,j,0.1488,2,N,7.0
NS7,30.0,29.0,57.0,35.0,53.0,53,1780.0,square4,i,0.0978,3,N,7.0
NS7,31.0,27.0,59.0,37.0,48.0,27,1807.0,square1,r,0.2164,0,N,7.0
NS7,32.0,29.0,59.0,38.0,45.0,59,1866.0,square2,f,0.1343,1,N,7.0
NS7,33.0,35.0,58.0,37.0,52.0,58,1924.0,square2,f,0.036,1,N,7.0
NS7,34.0,33.0,59.0,43.0,52.0,59,1983.0,square2,f,0.0596,1,N,7.0
NS7,35.0,37.0,61.0,43.0,49.0,61,2044.0,square2,f,0.1401,1,N,7.0
NS7,36.0,36.0,62.0,48.0,54.0,62,2106.0,square2,f,0.2027,1,N,7.0
NS7,37.0,35.0,62.0,46.0,57.0,62,2168.0,square2,f,0.2737,1,N,7.0
NS7,38.0,37.0,59.0,52.0,53.0,59,2227.0,square2,f,0.0061,1,N,7.0
NS7,39.0,32.0,57.0,50.0,59.0,57,2284.0,square2,f,0.1873,1,N,7.0
NS7,40.0,30.0,56.0,54.0,59.0,56,2340.0,square2,f,0.0908,1,N,7.0
NS7,41.0,36.0,54.0,52.0,56.0,54,2394.0,square2,f,0.2702,1,N,7.0
NS7,42.0,30.0,55.0,57.0,55.0,55,2449.0,square2,f,0.0936,1,N,7.0
NS7,43.0,35.0,52.0,54.0,58.0,52,2501.0,square2,f,0.0691,1,N,7.0
NS7,44.0,30.0,56.0,55.0,57.0,56,2557.0,square2,f,0.2034,1,N,7.0
NS7,45.0,28.0,63.0,57.0,58.0,63,2620.0,square2,f,0.3032,1,N,7.0
NS7,46.0,29.0,60.0,58.0,57.0,60,2680.0,square2,f,0.1975,1,N,7.0
NS7,47.0,31.0,58.0,54.0,53.0,58,2738.0,square2,f,0.2121,1,N,7.0
NS7,48.0,27.0,58.0,59.0,48.0,58,2796.0,square2,f,0.127,1,N,7.0
NS7,49.0,28.0,48.0,60.0,54.0,48,2844.0,square2,f,0.0147,1,N,7.0
NS7,50.0,27.0,49.0,62.0,53.0,49,2893.0,square2,f,0.0004,1,N,7.0
NS7,51.0,41.0,49.0,63.0,56.0,49,2942.0,square2,f,0.1364,1,N,7.0
NS7,52.0,36.0,43.0,66.0,56.0,43,2985.0,square2,f,0.1813,1,N,7.0
NS7,53.0,41.0,51.0,69.0,54.0,69,3054.0,square3,j,0.0179,2,N,7.0
NS7,54.0,37.0,52.0,63.0,53.0,63,3117.0,square3,j,0.1576,2,N,7.0
NS7,55.0,40.0,51.0,60.0,54.0,60,3177.0,square3,j,0.1274,2,N,7.0
NS7,56.0,45.0,57.0,63.0,59.0,59,3236.0,square4,i,0.1522,3,N,7.0
NS7,57.0,42.0,49.0,64.0,53.0,42,3278.0,square1,r,0.1925,0,N,7.0
NS7,58.0,39.0,49.0,62.0,52.0,62,3340.0,square3,j,0.1193,2,N,7.0
NS7,59.0,47.0,49.0,67.0,54.0,67,3407.0,square3,j,0.1696,2,N,7.0
NS7,60.0,43.0,53.0,70.0,55.0,70,3477.0,square3,j,0.0431,2,N,7.0
NS7,61.0,41.0,48.0,69.0,52.0,69,3546.0,square3,j,0.1578,2,N,7.0
NS7,62.0,39.0,48.0,65.0,54.0,65,3611.0,square3,j,0.0247,2,N,7.0
NS7,63.0,38.0,48.0,64.0,56.0,64,3675.0,square3,j,0.029,2,N,7.0
NS7,64.0,34.0,46.0,65.0,51.0,65,3740.0,square3,j,0.0489,2,N,7.0
NS7,65.0,43.0,51.0,63.0,53.0,63,3803.0,square3,j,0.2183,2,N,7.0
NS7,66.0,41.0,51.0,64.0,50.0,64,3867.0,square3,j,0.0461,2,N,7.0
NS7,67.0,44.0,51.0,63.0,54.0,63,3930.0,square3,j,0.0005,2,N,7.0
NS7,68.0,42.0,49.0,62.0,48.0,62,3992.0,square3,j,0.0615,2,N,7.0
NS7,69.0,41.0,50.0,63.0,52.0,63,4055.0,square3,j,0.0063,2,N,7.0
NS7,70.0,45.0,45.0,59.0,53.0,59,4114.0,square3,j,0.0309,2,N,7.0
NS7,71.0,44.0,40.0,52.0,52.0,52,4166.0,square3,j,0.0241,2,N,7.0
NS7,72.0,51.0,38.0,55.0,47.0,47,4213.0,square4,i,0.1343,3,N,7.0
NS7,73.0,42.0,36.0,49.0,47.0,42,4255.0,square1,r,0.0944,0,N,7.0
NS7,74.0,44.0,40.0,46.0,48.0,40,4295.0,square2,f,0.172,1,N,7.0
NS7,75.0,46.0,38.0,45.0,53.0,45,4340.0,square3,j,0.0287,2,N,7.0
NS7,76.0,48.0,44.0,40.0,53.0,40,4380.0,square3,j,0.1466,2,N,7.0
NS7,77.0,45.0,42.0,40.0,55.0,40,4420.0,square3,j,0.0851,2,N,7.0
NS7,78.0,41.0,39.0,40.0,56.0,56,4476.0,square4,i,0.0306,3,N,7.0
NS7,79.0,44.0,38.0,41.0,55.0,55,4531.0,square4,i,0.0298,3,N,7.0
NS7,80.0,48.0,49.0,48.0,62.0,48,4579.0,square1,r,0.1034,0,N,7.0
NS7,81.0,44.0,47.0,43.0,61.0,61,4640.0,square4,i,0.1215,3,N,7.0
NS7,82.0,45.0,46.0,38.0,54.0,54,4694.0,square4,i,0.0876,3,N,7.0
NS7,83.0,44.0,40.0,41.0,57.0,57,4751.0,square4,i,0.2693,3,N,7.0
NS7,84.0,47.0,46.0,41.0,53.0,53,4804.0,square4,i,0.0636,3,N,7.0
NS7,85.0,50.0,45.0,45.0,54.0,54,4858.0,square4,i,0.2,3,N,7.0
NS7,86.0,45.0,43.0,44.0,54.0,54,4912.0,square4,i,0.233,3,N,7.0
NS7,87.0,43.0,47.0,49.0,55.0,55,4967.0,square4,i,0.0485,3,N,7.0
NS7,88.0,40.0,48.0,44.0,58.0,58,5025.0,square4,i,0.2003,3,N,7.0
NS7,89.0,40.0,44.0,47.0,54.0,54,5079.0,square4,i,0.1717,3,N,7.0
NS7,90.0,38.0,43.0,48.0,55.0,55,5134.0,square4,i,0.5709,3,N,7.0
NS7,91.0,36.0,45.0,43.0,55.0,55,5189.0,square4,i,0.4609,3,N,7.0
NS7,92.0,29.0,44.0,45.0,53.0,53,5242.0,square4,i,0.1477,3,N,7.0
NS7,93.0,33.0,46.0,44.0,57.0,57,5299.0,square4,i,0.1664,3,N,7.0
NS7,94.0,32.0,43.0,52.0,47.0,47,5346.0,square4,i,0.0182,3,N,7.0
NS7,95.0,41.0,46.0,50.0,51.0,50,5396.0,square3,j,0.1447,2,N,7.0
NS7,96.0,38.0,41.0,46.0,52.0,38,5434.0,square1,r,0.4928,0,N,7.0
NS7,97.0,41.0,44.0,40.0,52.0,44,5478.0,square2,f,0.1332,1,N,7.0
NS7,98.0,45.0,41.0,41.0,55.0,41,5519.0,square3,j,0.1517,2,N,7.0
NS7,99.0,39.0,41.0,39.0,53.0,41,5560.0,square2,f,0.1017,1,N,7.0
NS4,0.0,55.0,53.0,59.0,44.0,44,44.0,square4,j,0.4474,3,N,4.0
NS4,1.0,49.0,56.0,64.0,41.0,49,93.0,square1,f,0.0018,0,N,4.0
NS4,2.0,50.0,54.0,71.0,48.0,54,147.0,square2,i,0.0648,1,N,4.0
NS4,3.0,53.0,58.0,67.0,50.0,67,214.0,square3,r,0.1456,2,N,4.0
NS4,4.0,49.0,51.0,70.0,55.0,70,284.0,square3,r,0.1139,2,N,4.0
NS4,5.0,55.0,59.0,73.0,58.0,73,357.0,square3,r,0.0026,2,N,4.0
NS4,6.0,56.0,54.0,71.0,57.0,71,428.0,square3,r,0.0182,2,N,4.0
NS4,7.0,60.0,54.0,75.0,52.0,75,503.0,square3,r,0.0328,2,N,4.0
NS4,8.0,58.0,53.0,74.0,52.0,74,577.0,square3,r,0.2331,2,N,4.0
NS4,9.0,46.0,48.0,78.0,51.0,78,655.0,square3,r,0.3999,2,N,4.0
NS4,10.0,55.0,48.0,78.0,51.0,78,733.0,square3,r,0.1228,2,N,4.0
NS4,11.0,55.0,44.0,79.0,49.0,79,812.0,square3,r,0.0367,2,N,4.0
NS4,12.0,50.0,40.0,79.0,50.0,79,891.0,square3,r,0.2017,2,N,4.0
NS4,13.0,45.0,39.0,79.0,53.0,79,970.0,square3,r,0.2366,2,N,4.0
NS4,14.0,44.0,38.0,77.0,56.0,77,1047.0,square3,r,0.1755,2,N,4.0
NS4,15.0,45.0,32.0,68.0,52.0,68,1115.0,square3,r,0.3198,2,N,4.0
NS4,16.0,49.0,32.0,74.0,53.0,74,1189.0,square3,r,0.0635,2,N,4.0
NS4,17.0,45.0,32.0,69.0,51.0,69,1258.0,square3,r,0.4607,2,N,4.0
NS4,18.0,50.0,34.0,69.0,47.0,69,1327.0,square3,r,0.1105,2,N,4.0
NS4,19.0,50.0,36.0,65.0,53.0,65,1392.0,square3,r,0.0168,2,N,4.0
NS4,20.0,45.0,36.0,62.0,53.0,62,1454.0,square3,r,0.1817,2,N,4.0
NS4,21.0,49.0,35.0,62.0,55.0,62,1516.0,square3,r,0.0907,2,N,4.0
NS4,22.0,53.0,32.0,61.0,60.0,61,1577.0,square3,r,0.2697,2,N,4.0
NS4,23.0,52.0,33.0,58.0,54.0,58,1635.0,square3,r,0.1663,2,N,4.0
NS4,24.0,48.0,32.0,52.0,60.0,52,1687.0,square3,r,0.1005,2,N,4.0
NS4,25.0,47.0,30.0,53.0,57.0,53,1740.0,square3,r,0.0789,2,N,4.0
NS4,26.0,50.0,30.0,60.0,55.0,30,1770.0,square2,i,0.2002,1,N,4.0
NS4,27.0,50.0,28.0,62.0,47.0,50,1820.0,square1,f,0.1366,0,N,4.0
NS4,28.0,54.0,28.0,58.0,49.0,54,1874.0,square1,f,0.0241,0,N,4.0
NS4,29.0,44.0,29.0,50.0,49.0,49,1923.0,square4,j,0.1026,3,N,4.0
NS4,30.0,43.0,26.0,55.0,57.0,43,1966.0,square1,f,0.1697,0,N,4.0
NS4,31.0,43.0,25.0,60.0,54.0,60,2026.0,square3,r,0.2656,2,N,4.0
NS4,32.0,34.0,27.0,58.0,56.0,58,2084.0,square3,r,0.0005,2,N,4.0
NS4,33.0,34.0,20.0,60.0,62.0,60,2144.0,square3,r,0.0728,2,N,4.0
NS4,34.0,38.0,28.0,58.0,57.0,58,2202.0,square3,r,0.2909,2,N,4.0
NS4,35.0,40.0,24.0,63.0,59.0,63,2265.0,square3,r,0.2209,2,N,4.0
NS4,36.0,36.0,30.0,56.0,63.0,56,2321.0,square3,r,0.2545,2,N,4.0
NS4,37.0,40.0,29.0,54.0,63.0,54,2375.0,square3,r,0.161,2,N,4.0
NS4,38.0,40.0,33.0,53.0,69.0,53,2428.0,square3,r,0.1577,2,N,4.0
NS4,39.0,36.0,30.0,57.0,67.0,57,2485.0,square3,r,0.1638,2,N,4.0
NS4,40.0,33.0,33.0,58.0,68.0,58,2543.0,square3,r,0.1583,2,N,4.0
NS4,41.0,34.0,28.0,58.0,72.0,58,2601.0,square3,r,0.1145,2,N,4.0
NS4,42.0,35.0,30.0,60.0,70.0,60,2661.0,square3,r,0.4532,2,N,4.0
NS4,43.0,35.0,34.0,57.0,63.0,57,2718.0,square3,r,0.2482,2,N,4.0
NS4,44.0,30.0,32.0,59.0,69.0,59,2777.0,square3,r,0.059,2,N,4.0
NS4,45.0,29.0,31.0,60.0,66.0,60,2837.0,square3,r,0.0492,2,N,4.0
NS4,46.0,35.0,34.0,66.0,66.0,66,2903.0,square3,r,0.0604,2,N,4.0
NS4,47.0,35.0,28.0,63.0,62.0,63,2966.0,square3,r,0.0545,2,N,4.0
NS4,48.0,37.0,37.0,61.0,55.0,61,3027.0,square3,r,0.1046,2,N,4.0
NS4,49.0,40.0,34.0,59.0,54.0,59,3086.0,square3,r,0.0432,2,N,4.0
NS4,50.0,39.0,38.0,68.0,51.0,68,3154.0,square3,r,0.014,2,N,4.0
NS4,51.0,46.0,28.0,69.0,48.0,69,3223.0,square3,r,0.3147,2,N,4.0
NS4,52.0,40.0,34.0,62.0,49.0,62,3285.0,square3,r,0.192,2,N,4.0
NS4,53.0,39.0,34.0,63.0,48.0,63,3348.0,square3,r,0.0669,2,N,4.0
NS4,54.0,44.0,31.0,58.0,47.0,58,3406.0,square3,r,0.127,2,N,4.0
NS4,55.0,42.0,30.0,68.0,46.0,68,3474.0,square3,r,0.0612,2,N,4.0
NS4,56.0,36.0,25.0,69.0,44.0,69,3543.0,square3,r,0.0855,2,N,4.0
NS4,57.0,35.0,29.0,71.0,46.0,71,3614.0,square3,r,0.1675,2,N,4.0
NS4,58.0,43.0,28.0,68.0,47.0,68,3682.0,square3,r,0.2001,2,N,4.0
NS4,59.0,43.0,27.0,67.0,43.0,67,3749.0,square3,r,0.1981,2,N,4.0
NS4,60.0,40.0,25.0,72.0,46.0,72,3821.0,square3,r,0.079,2,N,4.0
NS4,61.0,39.0,32.0,63.0,43.0,63,3884.0,square3,r,0.0385,2,N,4.0
NS4,62.0,39.0,29.0,61.0,39.0,61,3945.0,square3,r,0.4568,2,N,4.0
NS4,63.0,41.0,28.0,59.0,40.0,59,4004.0,square3,r,0.225,2,N,4.0
NS4,64.0,41.0,31.0,57.0,51.0,57,4061.0,square3,r,0.1034,2,N,4.0
NS4,65.0,46.0,36.0,59.0,58.0,59,4120.0,square3,r,0.2333,2,N,4.0
NS4,66.0,45.0,36.0,53.0,46.0,53,4173.0,square3,r,0.1027,2,N,4.0
NS4,67.0,40.0,34.0,49.0,46.0,49,4222.0,square3,r,0.3674,2,N,4.0
NS4,68.0,43.0,37.0,48.0,48.0,48,4270.0,square4,j,0.4078,3,N,4.0
NS4,69.0,42.0,36.0,44.0,56.0,42,4312.0,square1,f,0.1891,0,N,4.0
NS4,70.0,40.0,38.0,47.0,58.0,38,4350.0,square2,i,0.2247,1,N,4.0
NS4,71.0,36.0,34.0,42.0,63.0,63,4413.0,square4,j,0.2604,3,N,4.0
NS4,72.0,38.0,36.0,36.0,66.0,66,4479.0,square4,j,0.0977,3,N,4.0
NS4,73.0,36.0,40.0,40.0,66.0,66,4545.0,square4,j,0.0446,3,N,4.0
NS4,74.0,31.0,38.0,46.0,67.0,67,4612.0,square4,j,0.1577,3,N,4.0
NS4,75.0,40.0,33.0,42.0,64.0,64,4676.0,square4,j,0.1404,3,N,4.0
NS4,76.0,38.0,35.0,42.0,64.0,64,4740.0,square4,j,0.1467,3,N,4.0
NS4,77.0,40.0,35.0,39.0,66.0,39,4779.0,square3,r,0.0364,2,N,4.0
NS4,78.0,40.0,33.0,38.0,68.0,68,4847.0,square4,j,0.188,3,N,4.0
NS4,79.0,40.0,38.0,31.0,70.0,70,4917.0,square4,j,0.7906,3,N,4.0
NS4,80.0,37.0,35.0,33.0,73.0,73,4990.0,square4,j,0.0003,3,N,4.0
NS4,81.0,34.0,35.0,30.0,70.0,70,5060.0,square4,j,0.2123,3,N,4.0
NS4,82.0,35.0,37.0,31.0,66.0,66,5126.0,square4,j,0.1345,3,N,4.0
NS4,83.0,42.0,32.0,28.0,67.0,67,5193.0,square4,j,0.152,3,N,4.0
NS4,84.0,38.0,35.0,30.0,68.0,68,5261.0,square4,j,0.0193,3,N,4.0
NS4,85.0,43.0,35.0,32.0,64.0,64,5325.0,square4,j,0.2428,3,N,4.0
NS4,86.0,49.0,35.0,32.0,70.0,70,5395.0,square4,j,0.1269,3,N,4.0
NS4,87.0,48.0,34.0,32.0,69.0,69,5464.0,square4,j,0.1016,3,N,4.0
NS4,88.0,50.0,35.0,30.0,64.0,64,5528.0,square4,j,0.1694,3,N,4.0
NS4,89.0,48.0,34.0,32.0,68.0,68,5596.0,square4,j,0.1034,3,N,4.0
NS4,90.0,53.0,29.0,27.0,68.0,68,5664.0,square4,j,0.2178,3,N,4.0
NS4,91.0,54.0,27.0,34.0,68.0,68,5732.0,square4,j,0.1087,3,N,4.0
NS4,92.0,52.0,20.0,35.0,69.0,69,5801.0,square4,j,0.1274,3,N,4.0
NS4,93.0,42.0,15.0,33.0,68.0,68,5869.0,square4,j,0.1143,3,N,4.0
NS4,94.0,40.0,24.0,37.0,72.0,72,5941.0,square4,j,0.1689,3,N,4.0
NS4,95.0,43.0,25.0,43.0,69.0,69,6010.0,square4,j,0.1702,3,N,4.0
NS4,96.0,41.0,29.0,43.0,74.0,74,6084.0,square4,j,0.2488,3,N,4.0
NS4,97.0,46.0,32.0,42.0,78.0,78,6162.0,square4,j,0.0968,3,N,4.0
NS4,98.0,48.0,26.0,46.0,75.0,75,6237.0,square4,j,0.1696,3,N,4.0
NS4,99.0,46.0,27.0,45.0,71.0,71,6308.0,square4,j,0.1348,3,N,4.0
NS9,0.0,40.0,33.0,41.0,64.0,64,64.0,square4,r,0.5517,3,N,9.0
NS9,1.0,40.0,19.0,39.0,64.0,40,104.0,square1,i,0.164,0,N,9.0
NS9,2.0,41.0,16.0,44.0,59.0,16,120.0,square2,j,0.1393,1,N,9.0
NS9,3.0,41.0,19.0,48.0,58.0,48,168.0,square3,f,0.194,2,N,9.0
NS9,4.0,46.0,18.0,45.0,54.0,54,222.0,square4,r,0.1518,3,N,9.0
NS9,5.0,40.0,17.0,53.0,54.0,54,276.0,square4,r,0.0509,3,N,9.0
NS9,6.0,40.0,19.0,47.0,46.0,46,322.0,square4,r,0.0053,3,N,9.0
NS9,7.0,44.0,21.0,51.0,49.0,49,371.0,square4,r,0.4488,3,N,9.0
NS9,8.0,41.0,26.0,44.0,55.0,55,426.0,square4,r,0.4137,3,N,9.0
NS9,9.0,36.0,15.0,44.0,54.0,36,462.0,square1,i,0.0964,0,N,9.0
NS9,10.0,32.0,19.0,48.0,49.0,48,510.0,square3,f,0.0364,2,N,9.0
NS9,11.0,32.0,18.0,50.0,57.0,18,528.0,square2,j,0.1222,1,N,9.0
NS9,12.0,32.0,18.0,57.0,52.0,52,580.0,square4,r,0.1648,3,N,9.0
NS9,13.0,32.0,8.0,58.0,56.0,58,638.0,square3,f,0.0778,2,N,9.0
NS9,14.0,28.0,9.0,61.0,55.0,61,699.0,square3,f,0.0266,2,N,9.0
NS9,15.0,31.0,11.0,64.0,48.0,64,763.0,square3,f,0.0985,2,N,9.0
NS9,16.0,34.0,13.0,68.0,47.0,68,831.0,square3,f,0.4803,2,N,9.0
NS9,17.0,37.0,11.0,71.0,54.0,71,902.0,square3,f,0.2188,2,N,9.0
NS9,18.0,35.0,10.0,71.0,50.0,71,973.0,square3,f,0.1345,2,N,9.0
NS9,19.0,32.0,21.0,77.0,49.0,77,1050.0,square3,f,0.2765,2,N,9.0
NS9,20.0,41.0,22.0,74.0,48.0,74,1124.0,square3,f,0.122,2,N,9.0
NS9,21.0,40.0,21.0,75.0,50.0,75,1199.0,square3,f,0.0059,2,N,9.0
NS9,22.0,42.0,23.0,72.0,54.0,72,1271.0,square3,f,0.0364,2,N,9.0
NS9,23.0,43.0,22.0,75.0,45.0,75,1346.0,square3,f,0.3243,2,N,9.0
NS9,24.0,41.0,18.0,70.0,49.0,70,1416.0,square3,f,0.3092,2,N,9.0
NS9,25.0,38.0,21.0,75.0,53.0,75,1491.0,square3,f,0.2935,2,N,9.0
NS9,26.0,40.0,20.0,73.0,54.0,73,1564.0,square3,f,0.0604,2,N,9.0
NS9,27.0,46.0,21.0,74.0,56.0,74,1638.0,square3,f,0.3089,2,N,9.0
NS9,28.0,51.0,25.0,72.0,58.0,72,1710.0,square3,f,0.1334,2,N,9.0
NS9,29.0,43.0,29.0,71.0,56.0,71,1781.0,square3,f,0.146,2,N,9.0
NS9,30.0,38.0,26.0,71.0,52.0,71,1852.0,square3,f,0.2667,2,N,9.0
NS9,31.0,43.0,23.0,73.0,53.0,73,1925.0,square3,f,0.2037,2,N,9.0
NS9,32.0,43.0,24.0,76.0,52.0,52,1977.0,square4,r,0.1915,3,N,9.0
NS9,33.0,41.0,18.0,72.0,49.0,72,2049.0,square3,f,0.0969,2,N,9.0
NS9,34.0,36.0,26.0,68.0,55.0,68,2117.0,square3,f,0.072,2,N,9.0
NS9,35.0,34.0,34.0,68.0,52.0,68,2185.0,square3,f,0.2911,2,N,9.0
NS9,36.0,34.0,43.0,70.0,49.0,70,2255.0,square3,f,0.0313,2,N,9.0
NS9,37.0,32.0,41.0,61.0,47.0,61,2316.0,square3,f,0.11,2,N,9.0
NS9,38.0,28.0,41.0,65.0,47.0,65,2381.0,square3,f,0.2099,2,N,9.0
NS9,39.0,28.0,43.0,61.0,48.0,61,2442.0,square3,f,0.0548,2,N,9.0
NS9,40.0,26.0,46.0,65.0,39.0,65,2507.0,square3,f,0.2125,2,N,9.0
NS9,41.0,21.0,38.0,62.0,41.0,62,2569.0,square3,f,0.2806,2,N,9.0
NS9,42.0,18.0,37.0,59.0,42.0,59,2628.0,square3,f,0.2454,2,N,9.0
NS9,43.0,18.0,44.0,57.0,39.0,57,2685.0,square3,f,0.1521,2,N,9.0
NS9,44.0,19.0,43.0,58.0,36.0,58,2743.0,square3,f,0.2427,2,N,9.0
NS9,45.0,23.0,42.0,53.0,39.0,42,2785.0,square2,j,0.2666,1,N,9.0
NS9,46.0,22.0,48.0,58.0,43.0,22,2807.0,square1,i,0.1055,0,N,9.0
NS9,47.0,20.0,47.0,51.0,44.0,44,2851.0,square4,r,0.2548,3,N,9.0
NS9,48.0,21.0,43.0,57.0,40.0,57,2908.0,square3,f,0.0639,2,N,9.0
NS9,49.0,25.0,38.0,59.0,46.0,59,2967.0,square3,f,0.8428,2,N,9.0
NS9,50.0,27.0,41.0,49.0,52.0,49,3016.0,square3,f,0.2182,2,N,9.0
NS9,51.0,20.0,42.0,52.0,54.0,52,3068.0,square3,f,0.9248,2,N,9.0
NS9,52.0,18.0,41.0,51.0,48.0,51,3119.0,square3,f,0.1404,2,N,9.0
NS9,53.0,17.0,43.0,52.0,50.0,52,3171.0,square3,f,0.2427,2,N,9.0
NS9,54.0,27.0,37.0,55.0,56.0,55,3226.0,square3,f,0.0682,2,N,9.0
NS9,55.0,30.0,38.0,59.0,50.0,59,3285.0,square3,f,0.6304,2,N,9.0
NS9,56.0,32.0,49.0,54.0,59.0,54,3339.0,square3,f,0.0626,2,N,9.0
NS9,57.0,34.0,50.0,50.0,58.0,99999,3339.0,invalid,,,-1,N,9.0
NS9,58.0,28.0,49.0,54.0,51.0,99999,3339.0,invalid,,,-1,N,9.0
NS9,59.0,26.0,47.0,46.0,49.0,46,3385.0,square3,f,0.2671,2,N,9.0
NS9,60.0,30.0,47.0,50.0,51.0,50,3435.0,square3,f,0.2002,2,N,9.0
NS9,61.0,29.0,43.0,51.0,50.0,50,3485.0,square4,r,0.1365,3,N,9.0
NS9,62.0,32.0,42.0,52.0,54.0,42,3527.0,square2,j,0.1094,1,N,9.0
NS9,63.0,35.0,45.0,57.0,46.0,35,3562.0,square1,i,0.0999,0,N,9.0
NS9,64.0,37.0,41.0,53.0,44.0,53,3615.0,square3,f,0.072,2,N,9.0
NS9,65.0,34.0,41.0,50.0,49.0,50,3665.0,square3,f,0.1601,2,N,9.0
NS9,66.0,38.0,43.0,46.0,53.0,46,3711.0,square3,f,0.2669,2,N,9.0
NS9,67.0,36.0,35.0,51.0,54.0,51,3762.0,square3,f,0.3145,2,N,9.0
NS9,68.0,43.0,38.0,48.0,57.0,48,3810.0,square3,f,0.1879,2,N,9.0
NS9,69.0,42.0,42.0,48.0,49.0,49,3859.0,square4,r,0.1893,3,N,9.0
NS9,70.0,45.0,40.0,50.0,51.0,50,3909.0,square3,f,0.0246,2,N,9.0
NS9,71.0,49.0,42.0,48.0,52.0,48,3957.0,square3,f,0.8003,2,N,9.0
NS9,72.0,39.0,44.0,47.0,58.0,44,4001.0,square2,j,0.0195,1,N,9.0
NS9,73.0,40.0,45.0,45.0,62.0,40,4041.0,square1,i,0.2805,0,N,9.0
NS9,74.0,46.0,48.0,47.0,56.0,56,4097.0,square4,r,0.1647,3,N,9.0
NS9,75.0,35.0,39.0,53.0,65.0,65,4162.0,square4,r,0.2526,3,N,9.0
NS9,76.0,40.0,45.0,56.0,67.0,67,4229.0,square4,r,0.0465,3,N,9.0
NS9,77.0,38.0,46.0,54.0,69.0,69,4298.0,square4,r,0.0187,3,N,9.0
NS9,78.0,37.0,42.0,53.0,69.0,69,4367.0,square4,r,0.0245,3,N,9.0
NS9,79.0,40.0,44.0,53.0,70.0,70,4437.0,square4,r,0.0412,3,N,9.0
NS9,80.0,37.0,50.0,55.0,70.0,70,4507.0,square4,r,0.0672,3,N,9.0
NS9,81.0,33.0,54.0,54.0,63.0,63,4570.0,square4,r,0.0245,3,N,9.0
NS9,82.0,35.0,55.0,52.0,74.0,74,4644.0,square4,r,0.0425,3,N,9.0
NS9,83.0,34.0,48.0,56.0,75.0,75,4719.0,square4,r,0.2075,3,N,9.0
NS9,84.0,39.0,51.0,62.0,78.0,78,4797.0,square4,r,0.0198,3,N,9.0
NS9,85.0,38.0,57.0,55.0,77.0,77,4874.0,square4,r,0.1457,3,N,9.0
NS9,86.0,34.0,53.0,57.0,68.0,68,4942.0,square4,r,0.2121,3,N,9.0
NS9,87.0,35.0,48.0,55.0,69.0,69,5011.0,square4,r,0.206,3,N,9.0
NS9,88.0,41.0,48.0,50.0,69.0,69,5080.0,square4,r,1.0791,3,N,9.0
NS9,89.0,38.0,54.0,55.0,70.0,70,5150.0,square4,r,0.6057,3,N,9.0
NS9,90.0,43.0,55.0,49.0,71.0,71,5221.0,square4,r,0.2857,3,N,9.0
NS9,91.0,41.0,46.0,54.0,78.0,78,5299.0,square4,r,0.0969,3,N,9.0
NS9,92.0,40.0,42.0,41.0,72.0,72,5371.0,square4,r,0.0005,3,N,9.0
NS9,93.0,39.0,43.0,47.0,70.0,70,5441.0,square4,r,0.2891,3,N,9.0
NS9,94.0,36.0,47.0,43.0,80.0,80,5521.0,square4,r,0.3025,3,N,9.0
NS9,95.0,37.0,46.0,43.0,75.0,75,5596.0,square4,r,0.2134,3,N,9.0
NS9,96.0,39.0,47.0,47.0,75.0,75,5671.0,square4,r,0.2628,3,N,9.0
NS9,97.0,35.0,41.0,49.0,80.0,80,5751.0,square4,r,0.0633,3,N,9.0
NS9,98.0,33.0,45.0,56.0,74.0,74,5825.0,square4,r,0.2917,3,N,9.0
NS9,99.0,34.0,42.0,58.0,74.0,74,5899.0,square4,r,0.4549,3,N,9.0
