block,Trial,square1,square2,square3,square4,currPoints,totalPoints,square,choiceKey.keys,choiceKey.rt,armNum,blockType,blockNum
prac,0.0,100.0,0.0,0.0,0.0,0,0.0,square4,,,3,p,0.0
prac,1.0,100.0,0.0,0.0,0.0,100,100.0,square1,,,0,p,0.0
prac,2.0,100.0,0.0,0.0,0.0,0,100.0,square2,,,1,p,0.0
prac,3.0,100.0,0.0,0.0,0.0,0,100.0,square3,,,2,p,0.0
prac,4.0,100.0,0.0,0.0,0.0,0,100.0,square2,,,1,p,0.0
prac,5.0,100.0,0.0,0.0,0.0,100,200.0,square1,,,0,p,0.0
prac,6.0,100.0,0.0,0.0,0.0,100,300.0,square1,,,0,p,0.0
prac,7.0,100.0,0.0,0.0,0.0,100,400.0,square1,,,0,p,0.0
prac,8.0,100.0,0.0,0.0,0.0,100,500.0,square1,,,0,p,0.0
prac,9.0,100.0,0.0,0.0,0.0,100,600.0,square1,,,0,p,0.0
V7,0.0,86.0,61.0,78.0,68.0,99999,0.0,invalid,,,-1,V,7.0
V7,1.0,95.0,62.0,79.0,70.0,79,79.0,square3,r,1.2636,2,V,7.0
V7,2.0,89.0,67.0,81.0,77.0,81,160.0,square3,r,0.5887,2,V,7.0
V7,3.0,90.0,56.0,85.0,72.0,85,245.0,square3,r,0.2764,2,V,7.0
V7,4.0,91.0,65.0,77.0,71.0,65,310.0,square2,f,0.3037,1,V,7.0
V7,5.0,91.0,58.0,84.0,72.0,84,394.0,square3,r,0.0411,2,V,7.0
V7,6.0,94.0,65.0,87.0,72.0,72,466.0,square4,j,0.444,3,V,7.0
V7,7.0,89.0,67.0,79.0,67.0,79,545.0,square3,r,0.2477,2,V,7.0
V7,8.0,91.0,65.0,84.0,68.0,65,610.0,square2,f,0.4229,1,V,7.0
V7,9.0,92.0,60.0,87.0,69.0,92,702.0,square1,i,0.6447,0,V,7.0
V7,10.0,90.0,67.0,81.0,76.0,90,792.0,square1,i,0.2444,0,V,7.0
V7,11.0,86.0,67.0,83.0,73.0,86,878.0,square1,i,0.2618,0,V,7.0
V7,12.0,90.0,62.0,80.0,72.0,90,968.0,square1,i,0.3772,0,V,7.0
V7,13.0,84.0,60.0,88.0,71.0,84,1052.0,square1,i,0.2144,0,V,7.0
V7,14.0,95.0,64.0,80.0,70.0,95,1147.0,square1,i,0.2625,0,V,7.0
V7,15.0,86.0,60.0,81.0,70.0,86,1233.0,square1,i,0.0889,0,V,7.0
V7,16.0,85.0,65.0,77.0,69.0,77,1310.0,square3,r,0.7162,2,V,7.0
V7,17.0,91.0,65.0,81.0,70.0,65,1375.0,square2,f,0.2619,1,V,7.0
V7,18.0,95.0,61.0,81.0,76.0,76,1451.0,square4,j,0.4367,3,V,7.0
V7,19.0,90.0,58.0,79.0,72.0,90,1541.0,square1,i,0.0141,0,V,7.0
V7,20.0,94.0,68.0,80.0,79.0,94,1635.0,square1,i,0.0594,0,V,7.0
V7,21.0,92.0,66.0,82.0,70.0,92,1727.0,square1,i,0.0096,0,V,7.0
V7,22.0,92.0,64.0,83.0,72.0,92,1819.0,square1,i,0.0972,0,V,7.0
V7,23.0,91.0,68.0,82.0,73.0,91,1910.0,square1,i,0.1362,0,V,7.0
V7,24.0,87.0,71.0,82.0,72.0,87,1997.0,square1,i,0.1134,0,V,7.0
V7,25.0,91.0,68.0,90.0,74.0,91,2088.0,square1,i,0.0374,0,V,7.0
V7,26.0,89.0,65.0,83.0,72.0,89,2177.0,square1,i,0.0457,0,V,7.0
V7,27.0,91.0,61.0,81.0,73.0,91,2268.0,square1,i,0.0215,0,V,7.0
V7,28.0,90.0,66.0,81.0,72.0,90,2358.0,square1,i,0.0005,0,V,7.0
V7,29.0,89.0,67.0,77.0,71.0,89,2447.0,square1,i,0.089,0,V,7.0
V7,30.0,95.0,68.0,84.0,71.0,95,2542.0,square1,i,0.0238,0,V,7.0
V7,31.0,95.0,61.0,81.0,70.0,95,2637.0,square1,i,0.2129,0,V,7.0
V7,32.0,89.0,65.0,82.0,75.0,89,2726.0,square1,i,0.0004,0,V,7.0
V7,33.0,77.0,50.0,80.0,61.0,77,2803.0,square1,i,0.1086,0,V,7.0
V7,34.0,76.0,54.0,78.0,61.0,76,2879.0,square1,i,0.0944,0,V,7.0
V7,35.0,71.0,51.0,80.0,64.0,71,2950.0,square1,i,0.1385,0,V,7.0
V7,36.0,75.0,51.0,80.0,62.0,75,3025.0,square1,i,0.0794,0,V,7.0
V7,37.0,73.0,58.0,86.0,63.0,58,3083.0,square2,f,1.1116,1,V,7.0
V7,38.0,73.0,50.0,86.0,61.0,61,3144.0,square4,j,0.4393,3,V,7.0
V7,39.0,67.0,53.0,78.0,61.0,78,3222.0,square3,r,0.1702,2,V,7.0
V7,40.0,71.0,53.0,84.0,58.0,71,3293.0,square1,i,0.4966,0,V,7.0
V7,41.0,75.0,51.0,83.0,63.0,83,3376.0,square3,r,0.4254,2,V,7.0
V7,42.0,69.0,48.0,87.0,63.0,87,3463.0,square3,r,0.1237,2,V,7.0
V7,43.0,70.0,58.0,81.0,60.0,81,3544.0,square3,r,0.079,2,V,7.0
V7,44.0,68.0,56.0,76.0,63.0,76,3620.0,square3,r,0.0777,2,V,7.0
V7,45.0,74.0,59.0,76.0,56.0,76,3696.0,square3,r,0.1639,2,V,7.0
V7,46.0,72.0,54.0,77.0,61.0,77,3773.0,square3,r,0.1218,2,V,7.0
V7,47.0,69.0,47.0,81.0,62.0,81,3854.0,square3,r,0.077,2,V,7.0
V7,48.0,75.0,52.0,81.0,57.0,52,3906.0,square2,f,0.0286,1,V,7.0
V7,49.0,74.0,55.0,78.0,60.0,60,3966.0,square4,j,0.2124,3,V,7.0
V7,50.0,71.0,51.0,80.0,61.0,71,4037.0,square1,i,0.2452,0,V,7.0
V7,51.0,75.0,55.0,85.0,62.0,85,4122.0,square3,r,0.0598,2,V,7.0
V7,52.0,75.0,59.0,76.0,59.0,76,4198.0,square3,r,0.1446,2,V,7.0
V7,53.0,72.0,53.0,84.0,66.0,84,4282.0,square3,r,0.0568,2,V,7.0
V7,54.0,69.0,51.0,81.0,60.0,81,4363.0,square3,r,0.122,2,V,7.0
V7,55.0,74.0,56.0,75.0,54.0,75,4438.0,square3,r,0.2102,2,V,7.0
V7,56.0,76.0,51.0,83.0,58.0,83,4521.0,square3,r,0.1485,2,V,7.0
V7,57.0,71.0,53.0,80.0,64.0,80,4601.0,square3,r,0.2552,2,V,7.0
V7,58.0,81.0,56.0,79.0,61.0,79,4680.0,square3,r,0.1727,2,V,7.0
V7,59.0,71.0,55.0,83.0,59.0,83,4763.0,square3,r,0.2406,2,V,7.0
V7,60.0,73.0,53.0,83.0,64.0,83,4846.0,square3,r,0.0909,2,V,7.0
V7,61.0,70.0,53.0,77.0,63.0,77,4923.0,square3,r,0.2453,2,V,7.0
V7,62.0,71.0,54.0,76.0,61.0,54,4977.0,square2,f,0.3119,1,V,7.0
V7,63.0,68.0,45.0,79.0,65.0,65,5042.0,square4,j,0.2392,3,V,7.0
V7,64.0,65.0,55.0,79.0,59.0,65,5107.0,square1,i,0.0139,0,V,7.0
V7,65.0,74.0,54.0,81.0,61.0,81,5188.0,square3,r,0.3605,2,V,7.0
V7,66.0,70.0,56.0,81.0,63.0,81,5269.0,square3,r,0.5373,2,V,7.0
V7,67.0,70.0,85.0,64.0,92.0,64,5333.0,square3,r,0.0463,2,V,7.0
V7,68.0,73.0,85.0,68.0,92.0,85,5418.0,square2,f,0.4443,1,V,7.0
V7,69.0,75.0,83.0,70.0,91.0,91,5509.0,square4,j,0.3729,3,V,7.0
V7,70.0,75.0,85.0,69.0,91.0,75,5584.0,square1,i,0.3092,0,V,7.0
V7,71.0,71.0,86.0,65.0,94.0,94,5678.0,square4,j,0.0201,3,V,7.0
V7,72.0,77.0,86.0,65.0,98.0,98,5776.0,square4,j,0.266,3,V,7.0
V7,73.0,77.0,84.0,63.0,94.0,94,5870.0,square4,j,0.0773,3,V,7.0
V7,74.0,71.0,86.0,64.0,91.0,91,5961.0,square4,j,0.2583,3,V,7.0
V7,75.0,73.0,90.0,60.0,90.0,90,6051.0,square4,j,0.1819,3,V,7.0
V7,76.0,79.0,84.0,68.0,95.0,95,6146.0,square4,j,0.1619,3,V,7.0
V7,77.0,73.0,85.0,66.0,89.0,89,6235.0,square4,j,0.1298,3,V,7.0
V7,78.0,75.0,82.0,67.0,91.0,91,6326.0,square4,j,0.1557,3,V,7.0
V7,79.0,72.0,85.0,60.0,90.0,90,6416.0,square4,j,0.0097,3,V,7.0
V7,80.0,73.0,83.0,66.0,97.0,97,6513.0,square4,j,0.1638,3,V,7.0
V7,81.0,73.0,84.0,67.0,92.0,92,6605.0,square4,j,0.0947,3,V,7.0
V7,82.0,69.0,84.0,65.0,91.0,91,6696.0,square4,j,0.0215,3,V,7.0
V7,83.0,76.0,83.0,72.0,99.0,99,6795.0,square4,j,0.1289,3,V,7.0
V7,84.0,72.0,84.0,70.0,94.0,94,6889.0,square4,j,0.0557,3,V,7.0
V7,85.0,77.0,83.0,67.0,88.0,88,6977.0,square4,j,0.0625,3,V,7.0
V7,86.0,76.0,80.0,67.0,90.0,90,7067.0,square4,j,0.0584,3,V,7.0
V7,87.0,70.0,86.0,67.0,95.0,95,7162.0,square4,j,0.0709,3,V,7.0
V7,88.0,76.0,84.0,67.0,100.0,100,7262.0,square4,j,0.4971,3,V,7.0
V7,89.0,71.0,88.0,60.0,97.0,88,7350.0,square2,f,0.0439,1,V,7.0
V7,90.0,69.0,82.0,71.0,95.0,95,7445.0,square4,j,0.0553,3,V,7.0
V7,91.0,80.0,84.0,65.0,92.0,92,7537.0,square4,j,0.0969,3,V,7.0
V7,92.0,77.0,85.0,68.0,85.0,85,7622.0,square4,j,0.0804,3,V,7.0
V7,93.0,72.0,84.0,66.0,91.0,91,7713.0,square4,j,0.01,3,V,7.0
V7,94.0,69.0,83.0,66.0,95.0,95,7808.0,square4,j,0.093,3,V,7.0
V7,95.0,70.0,86.0,75.0,91.0,91,7899.0,square4,j,0.0774,3,V,7.0
V7,96.0,74.0,85.0,66.0,88.0,88,7987.0,square4,j,0.0486,3,V,7.0
V7,97.0,77.0,82.0,73.0,91.0,91,8078.0,square4,j,0.1108,3,V,7.0
V7,98.0,76.0,91.0,62.0,94.0,94,8172.0,square4,j,0.0603,3,V,7.0
V7,99.0,74.0,84.0,67.0,88.0,88,8260.0,square4,j,0.1718,3,V,7.0
V11,0.0,42.0,67.0,57.0,49.0,67,67.0,square2,i,1.2042,1,V,11.0
V11,1.0,42.0,71.0,60.0,53.0,60,127.0,square3,j,0.5086,2,V,11.0
V11,2.0,45.0,76.0,58.0,51.0,51,178.0,square4,f,0.0624,3,V,11.0
V11,3.0,44.0,65.0,60.0,49.0,44,222.0,square1,r,0.1115,0,V,11.0
V11,4.0,46.0,73.0,64.0,51.0,73,295.0,square2,i,0.1262,1,V,11.0
V11,5.0,47.0,67.0,58.0,54.0,67,362.0,square2,i,0.1654,1,V,11.0
V11,6.0,43.0,68.0,58.0,50.0,68,430.0,square2,i,0.0725,1,V,11.0
V11,7.0,42.0,67.0,60.0,58.0,67,497.0,square2,i,0.0602,1,V,11.0
V11,8.0,44.0,67.0,60.0,53.0,67,564.0,square2,i,0.022,1,V,11.0
V11,9.0,44.0,67.0,59.0,54.0,67,631.0,square2,i,0.0004,1,V,11.0
V11,10.0,49.0,76.0,57.0,52.0,76,707.0,square2,i,0.0734,1,V,11.0
V11,11.0,45.0,71.0,58.0,51.0,71,778.0,square2,i,0.1553,1,V,11.0
V11,12.0,45.0,72.0,58.0,56.0,72,850.0,square2,i,0.1445,1,V,11.0
V11,13.0,49.0,67.0,63.0,54.0,67,917.0,square2,i,0.146,1,V,11.0
V11,14.0,50.0,75.0,57.0,48.0,57,974.0,square3,j,0.212,2,V,11.0
V11,15.0,40.0,71.0,61.0,51.0,61,1035.0,square3,j,0.0825,2,V,11.0
V11,16.0,47.0,72.0,56.0,54.0,56,1091.0,square3,j,0.093,2,V,11.0
V11,17.0,40.0,71.0,61.0,46.0,61,1152.0,square3,j,0.1929,2,V,11.0
V11,18.0,44.0,69.0,59.0,51.0,44,1196.0,square1,r,0.0005,0,V,11.0
V11,19.0,44.0,73.0,59.0,47.0,44,1240.0,square1,r,0.0044,0,V,11.0
V11,20.0,47.0,69.0,64.0,54.0,47,1287.0,square1,r,0.1142,0,V,11.0
V11,21.0,78.0,49.0,70.0,65.0,65,1352.0,square4,f,0.1112,3,V,11.0
V11,22.0,78.0,56.0,73.0,62.0,62,1414.0,square4,f,0.022,3,V,11.0
V11,23.0,84.0,54.0,71.0,65.0,65,1479.0,square4,f,0.0022,3,V,11.0
V11,24.0,80.0,55.0,72.0,67.0,55,1534.0,square2,i,0.0778,1,V,11.0
V11,25.0,80.0,55.0,75.0,63.0,55,1589.0,square2,i,0.0926,1,V,11.0
V11,26.0,80.0,56.0,67.0,62.0,56,1645.0,square2,i,0.0004,1,V,11.0
V11,27.0,80.0,51.0,68.0,62.0,51,1696.0,square2,i,0.0621,1,V,11.0
V11,28.0,79.0,57.0,67.0,57.0,57,1753.0,square2,i,0.0598,1,V,11.0
V11,29.0,79.0,50.0,67.0,62.0,50,1803.0,square2,i,0.1433,1,V,11.0
V11,30.0,88.0,54.0,74.0,61.0,74,1877.0,square3,j,0.4434,2,V,11.0
V11,31.0,81.0,51.0,75.0,63.0,75,1952.0,square3,j,0.109,2,V,11.0
V11,32.0,76.0,51.0,69.0,65.0,69,2021.0,square3,j,0.0004,2,V,11.0
V11,33.0,78.0,54.0,72.0,64.0,78,2099.0,square1,r,0.4713,0,V,11.0
V11,34.0,77.0,53.0,71.0,62.0,62,2161.0,square4,f,0.0761,3,V,11.0
V11,35.0,74.0,59.0,75.0,62.0,74,2235.0,square1,r,0.0199,0,V,11.0
V11,36.0,79.0,50.0,72.0,62.0,79,2314.0,square1,r,0.0222,0,V,11.0
V11,37.0,74.0,54.0,68.0,62.0,74,2388.0,square1,r,0.1097,0,V,11.0
V11,38.0,80.0,57.0,65.0,58.0,80,2468.0,square1,r,0.0954,0,V,11.0
V11,39.0,73.0,52.0,75.0,66.0,73,2541.0,square1,r,0.0222,0,V,11.0
V11,40.0,82.0,57.0,71.0,57.0,82,2623.0,square1,r,0.146,0,V,11.0
V11,41.0,78.0,53.0,73.0,64.0,78,2701.0,square1,r,0.0886,0,V,11.0
V11,42.0,72.0,56.0,67.0,59.0,72,2773.0,square1,r,0.0033,0,V,11.0
V11,43.0,81.0,54.0,73.0,63.0,81,2854.0,square1,r,0.0094,0,V,11.0
V11,44.0,76.0,54.0,75.0,59.0,76,2930.0,square1,r,0.0016,0,V,11.0
V11,45.0,79.0,59.0,71.0,64.0,64,2994.0,square4,f,0.5151,3,V,11.0
V11,46.0,80.0,55.0,67.0,57.0,99999,2994.0,invalid,,,-1,V,11.0
V11,47.0,84.0,53.0,75.0,56.0,53,3047.0,square2,i,0.6121,1,V,11.0
V11,48.0,83.0,57.0,71.0,60.0,71,3118.0,square3,j,0.1262,2,V,11.0
V11,49.0,79.0,52.0,71.0,60.0,71,3189.0,square3,j,0.0005,2,V,11.0
V11,50.0,76.0,50.0,69.0,60.0,69,3258.0,square3,j,0.1139,2,V,11.0
V11,51.0,79.0,54.0,72.0,57.0,79,3337.0,square1,r,0.1799,0,V,11.0
V11,52.0,80.0,54.0,72.0,64.0,80,3417.0,square1,r,0.1588,0,V,11.0
V11,53.0,35.0,50.0,55.0,69.0,35,3452.0,square1,r,0.0388,0,V,11.0
V11,54.0,45.0,48.0,55.0,73.0,45,3497.0,square1,r,0.0367,0,V,11.0
V11,55.0,43.0,53.0,58.0,70.0,58,3555.0,square3,j,0.4933,2,V,11.0
V11,56.0,40.0,46.0,60.0,62.0,46,3601.0,square2,i,0.0635,1,V,11.0
V11,57.0,44.0,46.0,53.0,71.0,71,3672.0,square4,f,0.2809,3,V,11.0
V11,58.0,44.0,52.0,55.0,68.0,68,3740.0,square4,f,0.0469,3,V,11.0
V11,59.0,44.0,44.0,57.0,66.0,66,3806.0,square4,f,0.1054,3,V,11.0
V11,60.0,40.0,46.0,57.0,62.0,62,3868.0,square4,f,0.0219,3,V,11.0
V11,61.0,42.0,52.0,58.0,62.0,62,3930.0,square4,f,0.0462,3,V,11.0
V11,62.0,40.0,49.0,56.0,71.0,71,4001.0,square4,f,0.1901,3,V,11.0
V11,63.0,40.0,54.0,60.0,66.0,66,4067.0,square4,f,0.1064,3,V,11.0
V11,64.0,41.0,43.0,51.0,66.0,66,4133.0,square4,f,0.1603,3,V,11.0
V11,65.0,39.0,48.0,59.0,66.0,66,4199.0,square4,f,0.079,3,V,11.0
V11,66.0,40.0,48.0,59.0,69.0,69,4268.0,square4,f,0.0002,3,V,11.0
V11,67.0,46.0,45.0,58.0,69.0,69,4337.0,square4,f,0.1163,3,V,11.0
V11,68.0,41.0,50.0,56.0,69.0,69,4406.0,square4,f,0.0792,3,V,11.0
V11,69.0,48.0,49.0,57.0,71.0,71,4477.0,square4,f,0.0444,3,V,11.0
V11,70.0,41.0,47.0,58.0,65.0,65,4542.0,square4,f,0.0028,3,V,11.0
V11,71.0,37.0,46.0,58.0,60.0,60,4602.0,square4,f,0.0415,3,V,11.0
V11,72.0,41.0,47.0,54.0,65.0,54,4656.0,square3,j,0.1037,2,V,11.0
V11,73.0,42.0,47.0,60.0,67.0,47,4703.0,square2,i,0.0017,1,V,11.0
V11,74.0,43.0,49.0,57.0,64.0,43,4746.0,square1,r,0.1269,0,V,11.0
V11,75.0,38.0,46.0,57.0,66.0,66,4812.0,square4,f,0.019,3,V,11.0
V11,76.0,42.0,50.0,58.0,68.0,68,4880.0,square4,f,0.042,3,V,11.0
V11,77.0,36.0,49.0,58.0,64.0,64,4944.0,square4,f,0.0903,3,V,11.0
V11,78.0,40.0,50.0,56.0,67.0,67,5011.0,square4,f,0.0768,3,V,11.0
V11,79.0,39.0,48.0,56.0,67.0,67,5078.0,square4,f,0.0381,3,V,11.0
V11,80.0,51.0,33.0,30.0,45.0,45,5123.0,square4,f,0.1479,3,V,11.0
V11,81.0,49.0,31.0,23.0,48.0,48,5171.0,square4,f,0.0067,3,V,11.0
V11,82.0,55.0,30.0,25.0,42.0,25,5196.0,square3,j,0.3528,2,V,11.0
V11,83.0,50.0,33.0,27.0,48.0,33,5229.0,square2,i,0.4377,1,V,11.0
V11,84.0,52.0,34.0,25.0,43.0,52,5281.0,square1,r,0.2066,0,V,11.0
V11,85.0,49.0,28.0,28.0,44.0,44,5325.0,square4,f,0.4468,3,V,11.0
V11,86.0,57.0,29.0,27.0,48.0,57,5382.0,square1,r,0.1792,0,V,11.0
V11,87.0,49.0,29.0,21.0,38.0,49,5431.0,square1,r,0.1063,0,V,11.0
V11,88.0,55.0,32.0,29.0,46.0,55,5486.0,square1,r,0.1897,0,V,11.0
V11,89.0,50.0,28.0,23.0,43.0,43,5529.0,square4,f,0.4403,3,V,11.0
V11,90.0,54.0,34.0,32.0,41.0,34,5563.0,square2,i,0.4427,1,V,11.0
V11,91.0,50.0,34.0,26.0,44.0,26,5589.0,square3,j,0.7381,2,V,11.0
V11,92.0,51.0,31.0,27.0,50.0,51,5640.0,square1,r,0.1444,0,V,11.0
V11,93.0,49.0,38.0,28.0,42.0,49,5689.0,square1,r,0.1272,0,V,11.0
V11,94.0,50.0,29.0,25.0,46.0,50,5739.0,square1,r,0.1269,0,V,11.0
V11,95.0,51.0,36.0,22.0,40.0,51,5790.0,square1,r,0.0101,0,V,11.0
V11,96.0,52.0,34.0,32.0,45.0,52,5842.0,square1,r,0.0936,0,V,11.0
V11,97.0,53.0,27.0,32.0,44.0,53,5895.0,square1,r,0.0889,0,V,11.0
V11,98.0,60.0,31.0,25.0,48.0,60,5955.0,square1,r,0.0494,0,V,11.0
V11,99.0,53.0,33.0,23.0,42.0,53,6008.0,square1,r,0.1279,0,V,11.0
V6,0.0,43.0,59.0,68.0,49.0,59,59.0,square2,r,1.2884,1,V,6.0
V6,1.0,43.0,62.0,71.0,50.0,43,102.0,square1,f,0.0607,0,V,6.0
V6,2.0,48.0,61.0,72.0,51.0,51,153.0,square4,j,0.1421,3,V,6.0
V6,3.0,46.0,55.0,71.0,51.0,71,224.0,square3,i,1.694,2,V,6.0
V6,4.0,44.0,61.0,74.0,48.0,74,298.0,square3,i,0.3039,2,V,6.0
V6,5.0,45.0,62.0,70.0,51.0,70,368.0,square3,i,0.039,2,V,6.0
V6,6.0,42.0,67.0,73.0,46.0,73,441.0,square3,i,0.0634,2,V,6.0
V6,7.0,44.0,63.0,71.0,53.0,71,512.0,square3,i,0.0247,2,V,6.0
V6,8.0,41.0,62.0,73.0,52.0,73,585.0,square3,i,0.0823,2,V,6.0
V6,9.0,46.0,59.0,72.0,54.0,59,644.0,square2,r,0.1746,1,V,6.0
V6,10.0,45.0,59.0,70.0,53.0,70,714.0,square3,i,0.1097,2,V,6.0
V6,11.0,45.0,60.0,70.0,49.0,70,784.0,square3,i,0.0959,2,V,6.0
V6,12.0,45.0,66.0,64.0,48.0,64,848.0,square3,i,0.1544,2,V,6.0
V6,13.0,45.0,61.0,69.0,47.0,69,917.0,square3,i,0.038,2,V,6.0
V6,14.0,47.0,60.0,71.0,56.0,71,988.0,square3,i,0.1077,2,V,6.0
V6,15.0,46.0,64.0,67.0,52.0,67,1055.0,square3,i,0.0127,2,V,6.0
V6,16.0,50.0,60.0,69.0,54.0,69,1124.0,square3,i,0.113,2,V,6.0
V6,17.0,43.0,60.0,70.0,53.0,99999,1124.0,invalid,,,-1,V,6.0
V6,18.0,46.0,63.0,72.0,55.0,72,1196.0,square3,i,0.1612,2,V,6.0
V6,19.0,46.0,65.0,73.0,51.0,65,1261.0,square2,r,0.0004,1,V,6.0
V6,20.0,44.0,63.0,66.0,51.0,66,1327.0,square3,i,1.2443,2,V,6.0
V6,21.0,43.0,63.0,70.0,49.0,49,1376.0,square4,j,0.0557,3,V,6.0
V6,22.0,45.0,63.0,71.0,50.0,45,1421.0,square1,f,0.2731,0,V,6.0
V6,23.0,45.0,38.0,28.0,60.0,28,1449.0,square3,i,0.0433,2,V,6.0
V6,24.0,46.0,33.0,33.0,53.0,99999,1449.0,invalid,,,-1,V,6.0
V6,25.0,45.0,36.0,32.0,63.0,36,1485.0,square2,r,0.1408,1,V,6.0
V6,26.0,52.0,37.0,28.0,57.0,52,1537.0,square1,f,0.4089,0,V,6.0
V6,27.0,45.0,33.0,30.0,62.0,62,1599.0,square4,j,0.9569,3,V,6.0
V6,28.0,43.0,37.0,24.0,51.0,24,1623.0,square3,i,0.0005,2,V,6.0
V6,29.0,48.0,39.0,34.0,61.0,39,1662.0,square2,r,0.1948,1,V,6.0
V6,30.0,48.0,44.0,35.0,59.0,59,1721.0,square4,j,0.0158,3,V,6.0
V6,31.0,50.0,39.0,34.0,53.0,53,1774.0,square4,j,0.0004,3,V,6.0
V6,32.0,44.0,33.0,33.0,54.0,54,1828.0,square4,j,0.009,3,V,6.0
V6,33.0,48.0,37.0,30.0,56.0,56,1884.0,square4,j,0.0006,3,V,6.0
V6,34.0,52.0,37.0,27.0,59.0,59,1943.0,square4,j,0.1624,3,V,6.0
V6,35.0,47.0,32.0,29.0,59.0,59,2002.0,square4,j,0.1116,3,V,6.0
V6,36.0,45.0,37.0,27.0,56.0,56,2058.0,square4,j,0.1552,3,V,6.0
V6,37.0,39.0,37.0,31.0,57.0,57,2115.0,square4,j,0.0005,3,V,6.0
V6,38.0,50.0,38.0,29.0,56.0,56,2171.0,square4,j,0.0034,3,V,6.0
V6,39.0,48.0,37.0,27.0,57.0,48,2219.0,square1,f,0.1084,0,V,6.0
V6,40.0,53.0,37.0,29.0,57.0,29,2248.0,square3,i,0.3925,2,V,6.0
V6,41.0,41.0,34.0,33.0,58.0,34,2282.0,square2,r,0.894,1,V,6.0
V6,42.0,50.0,37.0,31.0,57.0,57,2339.0,square4,j,0.0095,3,V,6.0
V6,43.0,48.0,34.0,30.0,58.0,58,2397.0,square4,j,0.0389,3,V,6.0
V6,44.0,44.0,37.0,33.0,60.0,60,2457.0,square4,j,0.277,3,V,6.0
V6,45.0,44.0,32.0,33.0,55.0,55,2512.0,square4,j,0.1505,3,V,6.0
V6,46.0,44.0,36.0,33.0,59.0,59,2571.0,square4,j,0.0773,3,V,6.0
V6,47.0,42.0,34.0,29.0,52.0,52,2623.0,square4,j,0.0592,3,V,6.0
V6,48.0,46.0,41.0,28.0,60.0,60,2683.0,square4,j,0.1275,3,V,6.0
V6,49.0,46.0,40.0,27.0,55.0,27,2710.0,square3,i,0.2235,2,V,6.0
V6,50.0,46.0,41.0,32.0,55.0,41,2751.0,square2,r,0.1492,1,V,6.0
V6,51.0,41.0,39.0,30.0,55.0,41,2792.0,square1,f,0.3433,0,V,6.0
V6,52.0,47.0,37.0,31.0,55.0,55,2847.0,square4,j,0.0788,3,V,6.0
V6,53.0,57.0,36.0,30.0,58.0,58,2905.0,square4,j,0.117,3,V,6.0
V6,54.0,42.0,38.0,28.0,50.0,50,2955.0,square4,j,0.0749,3,V,6.0
V6,55.0,56.0,42.0,67.0,46.0,46,3001.0,square4,j,0.0755,3,V,6.0
V6,56.0,54.0,37.0,68.0,46.0,68,3069.0,square3,i,0.1776,2,V,6.0
V6,57.0,57.0,40.0,64.0,52.0,40,3109.0,square2,r,0.2414,1,V,6.0
V6,58.0,53.0,45.0,68.0,45.0,53,3162.0,square1,f,0.4796,0,V,6.0
V6,59.0,59.0,41.0,69.0,49.0,69,3231.0,square3,i,0.061,2,V,6.0
V6,60.0,62.0,41.0,71.0,51.0,71,3302.0,square3,i,0.1063,2,V,6.0
V6,61.0,58.0,50.0,72.0,51.0,72,3374.0,square3,i,0.107,2,V,6.0
V6,62.0,61.0,43.0,65.0,47.0,65,3439.0,square3,i,0.1482,2,V,6.0
V6,63.0,55.0,40.0,67.0,51.0,51,3490.0,square4,j,0.1608,3,V,6.0
V6,64.0,56.0,43.0,67.0,47.0,56,3546.0,square1,f,0.2386,0,V,6.0
V6,65.0,62.0,46.0,67.0,48.0,67,3613.0,square3,i,0.0235,2,V,6.0
V6,66.0,55.0,44.0,67.0,48.0,67,3680.0,square3,i,0.1079,2,V,6.0
V6,67.0,61.0,46.0,70.0,49.0,70,3750.0,square3,i,0.1385,2,V,6.0
V6,68.0,63.0,41.0,72.0,46.0,72,3822.0,square3,i,0.0772,2,V,6.0
V6,69.0,59.0,41.0,68.0,48.0,68,3890.0,square3,i,0.037,2,V,6.0
V6,70.0,59.0,37.0,70.0,45.0,70,3960.0,square3,i,0.1717,2,V,6.0
V6,71.0,83.0,64.0,56.0,70.0,56,4016.0,square3,i,0.1784,2,V,6.0
V6,72.0,82.0,59.0,53.0,75.0,53,4069.0,square3,i,0.1765,2,V,6.0
V6,73.0,85.0,67.0,58.0,73.0,67,4136.0,square2,r,0.528,1,V,6.0
V6,74.0,79.0,67.0,61.0,73.0,79,4215.0,square1,f,0.3742,0,V,6.0
V6,75.0,84.0,62.0,53.0,69.0,69,4284.0,square4,j,0.3174,3,V,6.0
V6,76.0,81.0,60.0,55.0,76.0,55,4339.0,square3,i,0.5261,2,V,6.0
V6,77.0,84.0,61.0,60.0,72.0,84,4423.0,square1,f,0.1243,0,V,6.0
V6,78.0,90.0,61.0,54.0,74.0,90,4513.0,square1,f,0.1118,0,V,6.0
V6,79.0,80.0,64.0,51.0,75.0,80,4593.0,square1,f,0.0235,0,V,6.0
V6,80.0,85.0,62.0,56.0,78.0,85,4678.0,square1,f,0.1277,0,V,6.0
V6,81.0,86.0,65.0,58.0,69.0,86,4764.0,square1,f,0.0785,0,V,6.0
V6,82.0,83.0,62.0,58.0,77.0,83,4847.0,square1,f,0.1636,0,V,6.0
V6,83.0,87.0,61.0,59.0,70.0,87,4934.0,square1,f,0.0454,0,V,6.0
V6,84.0,89.0,65.0,54.0,78.0,89,5023.0,square1,f,0.1269,0,V,6.0
V6,85.0,78.0,63.0,55.0,75.0,78,5101.0,square1,f,0.0649,0,V,6.0
V6,86.0,87.0,67.0,52.0,75.0,87,5188.0,square1,f,0.0215,0,V,6.0
V6,87.0,86.0,62.0,60.0,75.0,86,5274.0,square1,f,0.0115,0,V,6.0
V6,88.0,79.0,67.0,56.0,76.0,79,5353.0,square1,f,0.0591,0,V,6.0
V6,89.0,83.0,61.0,57.0,75.0,83,5436.0,square1,f,0.0772,0,V,6.0
V6,90.0,83.0,67.0,51.0,76.0,83,5519.0,square1,f,0.1888,0,V,6.0
V6,91.0,83.0,63.0,55.0,69.0,83,5602.0,square1,f,0.1269,0,V,6.0
V6,92.0,89.0,56.0,53.0,68.0,89,5691.0,square1,f,0.0448,0,V,6.0
V6,93.0,84.0,61.0,59.0,74.0,84,5775.0,square1,f,0.07,0,V,6.0
V6,94.0,77.0,58.0,58.0,76.0,77,5852.0,square1,f,0.1438,0,V,6.0
V6,95.0,82.0,60.0,53.0,74.0,82,5934.0,square1,f,0.1138,0,V,6.0
V6,96.0,87.0,61.0,56.0,71.0,87,6021.0,square1,f,0.1665,0,V,6.0
V6,97.0,83.0,66.0,55.0,75.0,83,6104.0,square1,f,0.1613,0,V,6.0
V6,98.0,81.0,63.0,55.0,76.0,81,6185.0,square1,f,0.1576,0,V,6.0
V6,99.0,92.0,63.0,61.0,78.0,92,6277.0,square1,f,0.0801,0,V,6.0
S2,0.0,62.0,57.0,71.0,74.0,99999,0.0,invalid,,,-1,S,2.0
S2,1.0,64.0,59.0,72.0,67.0,59,59.0,square2,f,1.9685,1,S,2.0
S2,2.0,68.0,57.0,75.0,68.0,75,134.0,square3,j,0.2462,2,S,2.0
S2,3.0,69.0,57.0,80.0,70.0,69,203.0,square1,i,0.3768,0,S,2.0
S2,4.0,66.0,60.0,74.0,68.0,68,271.0,square4,r,0.3597,3,S,2.0
S2,5.0,63.0,62.0,77.0,72.0,77,348.0,square3,j,0.0057,2,S,2.0
S2,6.0,69.0,61.0,75.0,74.0,75,423.0,square3,j,0.0777,2,S,2.0
S2,7.0,74.0,66.0,79.0,72.0,79,502.0,square3,j,0.1286,2,S,2.0
S2,8.0,81.0,65.0,76.0,72.0,76,578.0,square3,j,0.2943,2,S,2.0
S2,9.0,70.0,66.0,78.0,70.0,78,656.0,square3,j,0.1607,2,S,2.0
S2,10.0,70.0,72.0,70.0,74.0,70,726.0,square3,j,0.0004,2,S,2.0
S2,11.0,64.0,66.0,72.0,67.0,72,798.0,square3,j,0.0135,2,S,2.0
S2,12.0,66.0,57.0,70.0,67.0,70,868.0,square3,j,0.0804,2,S,2.0
S2,13.0,68.0,68.0,71.0,73.0,71,939.0,square3,j,0.2224,2,S,2.0
S2,14.0,70.0,63.0,77.0,71.0,77,1016.0,square3,j,0.0657,2,S,2.0
S2,15.0,64.0,66.0,75.0,66.0,75,1091.0,square3,j,0.111,2,S,2.0
S2,16.0,67.0,61.0,73.0,70.0,73,1164.0,square3,j,0.1624,2,S,2.0
S2,17.0,65.0,58.0,71.0,75.0,71,1235.0,square3,j,0.7454,2,S,2.0
S2,18.0,72.0,64.0,81.0,61.0,81,1316.0,square3,j,0.1545,2,S,2.0
S2,19.0,60.0,63.0,72.0,65.0,72,1388.0,square3,j,0.155,2,S,2.0
S2,20.0,68.0,56.0,71.0,70.0,71,1459.0,square3,j,0.0097,2,S,2.0
S2,21.0,65.0,65.0,74.0,71.0,74,1533.0,square3,j,0.1266,2,S,2.0
S2,22.0,69.0,62.0,77.0,72.0,77,1610.0,square3,j,0.0966,2,S,2.0
S2,23.0,64.0,71.0,74.0,65.0,74,1684.0,square3,j,0.1606,2,S,2.0
S2,24.0,66.0,62.0,78.0,70.0,78,1762.0,square3,j,0.0546,2,S,2.0
S2,25.0,67.0,69.0,76.0,66.0,76,1838.0,square3,j,0.0167,2,S,2.0
S2,26.0,65.0,63.0,74.0,69.0,74,1912.0,square3,j,0.0083,2,S,2.0
S2,27.0,68.0,64.0,67.0,68.0,67,1979.0,square3,j,0.1461,2,S,2.0
S2,28.0,61.0,52.0,71.0,68.0,71,2050.0,square3,j,0.0466,2,S,2.0
S2,29.0,67.0,64.0,73.0,69.0,73,2123.0,square3,j,0.0204,2,S,2.0
S2,30.0,67.0,53.0,77.0,67.0,77,2200.0,square3,j,0.0742,2,S,2.0
S2,31.0,67.0,69.0,69.0,68.0,69,2269.0,square3,j,0.0282,2,S,2.0
S2,32.0,71.0,63.0,73.0,70.0,73,2342.0,square3,j,0.0782,2,S,2.0
S2,33.0,61.0,65.0,68.0,71.0,68,2410.0,square3,j,0.028,2,S,2.0
S2,34.0,66.0,55.0,78.0,68.0,78,2488.0,square3,j,0.0534,2,S,2.0
S2,35.0,60.0,57.0,66.0,66.0,60,2548.0,square1,i,0.3109,0,S,2.0
S2,36.0,64.0,63.0,73.0,72.0,72,2620.0,square4,r,0.3613,3,S,2.0
S2,37.0,65.0,62.0,75.0,68.0,62,2682.0,square2,f,0.0602,1,S,2.0
S2,38.0,69.0,57.0,71.0,62.0,71,2753.0,square3,j,0.0004,2,S,2.0
S2,39.0,72.0,66.0,74.0,74.0,74,2827.0,square4,r,0.1276,3,S,2.0
S2,40.0,66.0,63.0,76.0,59.0,76,2903.0,square3,j,0.1098,2,S,2.0
S2,41.0,74.0,64.0,67.0,76.0,76,2979.0,square4,r,0.0028,3,S,2.0
S2,42.0,62.0,67.0,72.0,68.0,72,3051.0,square3,j,0.0941,2,S,2.0
S2,43.0,69.0,63.0,75.0,71.0,71,3122.0,square4,r,0.0134,3,S,2.0
S2,44.0,72.0,60.0,74.0,67.0,74,3196.0,square3,j,0.1126,2,S,2.0
S2,45.0,69.0,63.0,76.0,73.0,73,3269.0,square4,r,0.1267,3,S,2.0
S2,46.0,64.0,71.0,75.0,72.0,75,3344.0,square3,j,0.0569,2,S,2.0
S2,47.0,75.0,62.0,75.0,69.0,69,3413.0,square4,r,0.1395,3,S,2.0
S2,48.0,66.0,65.0,74.0,68.0,74,3487.0,square3,j,0.0773,2,S,2.0
S2,49.0,67.0,64.0,72.0,76.0,72,3559.0,square3,j,0.144,2,S,2.0
S10,0.0,72.0,76.0,80.0,64.0,72,72.0,square1,r,1.8873,0,S,10.0
S10,1.0,76.0,75.0,74.0,65.0,65,137.0,square4,f,0.089,3,S,10.0
S10,2.0,70.0,72.0,79.0,74.0,72,209.0,square2,j,0.5619,1,S,10.0
S10,3.0,69.0,77.0,76.0,68.0,76,285.0,square3,i,0.081,2,S,10.0
S10,4.0,72.0,79.0,77.0,70.0,72,357.0,square1,r,0.2746,0,S,10.0
S10,5.0,68.0,74.0,72.0,64.0,72,429.0,square3,i,0.1106,2,S,10.0
S10,6.0,70.0,77.0,72.0,62.0,72,501.0,square3,i,0.0006,2,S,10.0
S10,7.0,78.0,81.0,80.0,74.0,80,581.0,square3,i,0.0197,2,S,10.0
S10,8.0,78.0,78.0,82.0,66.0,82,663.0,square3,i,0.0053,2,S,10.0
S10,9.0,69.0,76.0,77.0,65.0,77,740.0,square3,i,0.0803,2,S,10.0
S10,10.0,72.0,78.0,72.0,75.0,72,812.0,square3,i,0.0441,2,S,10.0
S10,11.0,71.0,76.0,78.0,66.0,76,888.0,square2,j,0.0264,1,S,10.0
S10,12.0,73.0,83.0,79.0,69.0,73,961.0,square1,r,0.0055,0,S,10.0
S10,13.0,68.0,77.0,65.0,65.0,68,1029.0,square1,r,0.0004,0,S,10.0
S10,14.0,69.0,84.0,79.0,65.0,84,1113.0,square2,j,0.0004,1,S,10.0
S10,15.0,72.0,84.0,70.0,71.0,84,1197.0,square2,j,0.092,1,S,10.0
S10,16.0,79.0,80.0,82.0,67.0,80,1277.0,square2,j,0.1457,1,S,10.0
S10,17.0,69.0,83.0,75.0,70.0,83,1360.0,square2,j,0.1773,1,S,10.0
S10,18.0,69.0,75.0,69.0,68.0,75,1435.0,square2,j,0.0087,1,S,10.0
S10,19.0,70.0,83.0,73.0,66.0,83,1518.0,square2,j,0.1225,1,S,10.0
S10,20.0,69.0,83.0,75.0,66.0,83,1601.0,square2,j,0.1269,1,S,10.0
S10,21.0,77.0,70.0,75.0,70.0,70,1671.0,square2,j,0.1478,1,S,10.0
S10,22.0,73.0,77.0,81.0,69.0,77,1748.0,square2,j,0.0937,1,S,10.0
S10,23.0,73.0,78.0,70.0,65.0,70,1818.0,square3,i,0.1447,2,S,10.0
S10,24.0,70.0,80.0,75.0,66.0,75,1893.0,square3,i,0.043,2,S,10.0
S10,25.0,70.0,80.0,73.0,72.0,73,1966.0,square3,i,0.0278,2,S,10.0
S10,26.0,73.0,75.0,73.0,75.0,73,2039.0,square3,i,0.0768,2,S,10.0
S10,27.0,77.0,81.0,83.0,66.0,81,2120.0,square2,j,0.1279,1,S,10.0
S10,28.0,73.0,79.0,79.0,73.0,79,2199.0,square2,j,0.0935,1,S,10.0
S10,29.0,73.0,79.0,72.0,69.0,79,2278.0,square2,j,0.0929,1,S,10.0
S10,30.0,71.0,85.0,79.0,69.0,85,2363.0,square2,j,0.0633,1,S,10.0
S10,31.0,71.0,85.0,83.0,66.0,85,2448.0,square2,j,0.0806,1,S,10.0
S10,32.0,78.0,79.0,77.0,65.0,79,2527.0,square2,j,0.0891,1,S,10.0
S10,33.0,83.0,79.0,72.0,68.0,79,2606.0,square2,j,0.0615,1,S,10.0
S10,34.0,68.0,74.0,79.0,72.0,74,2680.0,square2,j,0.1392,1,S,10.0
S10,35.0,70.0,83.0,79.0,67.0,83,2763.0,square2,j,0.0814,1,S,10.0
S10,36.0,67.0,76.0,75.0,72.0,76,2839.0,square2,j,0.1449,1,S,10.0
S10,37.0,76.0,82.0,79.0,60.0,82,2921.0,square2,j,0.1115,1,S,10.0
S10,38.0,72.0,75.0,69.0,68.0,75,2996.0,square2,j,0.1086,1,S,10.0
S10,39.0,73.0,78.0,76.0,70.0,78,3074.0,square2,j,0.0005,1,S,10.0
S10,40.0,76.0,77.0,66.0,60.0,77,3151.0,square2,j,0.1105,1,S,10.0
S10,41.0,74.0,83.0,73.0,67.0,67,3218.0,square4,f,0.0235,3,S,10.0
S10,42.0,72.0,69.0,80.0,63.0,63,3281.0,square4,f,0.1103,3,S,10.0
S10,43.0,69.0,74.0,72.0,68.0,68,3349.0,square4,f,0.1234,3,S,10.0
S10,44.0,67.0,76.0,70.0,65.0,76,3425.0,square2,j,0.0005,1,S,10.0
S10,45.0,76.0,81.0,74.0,72.0,81,3506.0,square2,j,0.13,1,S,10.0
S10,46.0,76.0,79.0,76.0,66.0,79,3585.0,square2,j,0.0789,1,S,10.0
S10,47.0,67.0,81.0,84.0,60.0,81,3666.0,square2,j,0.0599,1,S,10.0
S10,48.0,73.0,83.0,75.0,66.0,83,3749.0,square2,j,0.1058,1,S,10.0
S10,49.0,66.0,77.0,74.0,71.0,77,3826.0,square2,j,0.0932,1,S,10.0
S5,0.0,90.0,70.0,79.0,84.0,70,70.0,square2,r,1.1212,1,S,5.0
S5,1.0,92.0,77.0,83.0,81.0,77,147.0,square2,r,0.2934,1,S,5.0
S5,2.0,83.0,72.0,81.0,76.0,72,219.0,square2,r,0.3429,1,S,5.0
S5,3.0,87.0,72.0,79.0,81.0,81,300.0,square4,i,0.2577,3,S,5.0
S5,4.0,86.0,81.0,78.0,72.0,72,372.0,square4,i,0.0603,3,S,5.0
S5,5.0,89.0,70.0,79.0,83.0,83,455.0,square4,i,0.139,3,S,5.0
S5,6.0,86.0,69.0,81.0,81.0,81,536.0,square3,j,0.0256,2,S,5.0
S5,7.0,82.0,72.0,86.0,80.0,86,622.0,square3,j,0.2265,2,S,5.0
S5,8.0,84.0,67.0,80.0,77.0,80,702.0,square3,j,0.0005,2,S,5.0
S5,9.0,92.0,80.0,86.0,84.0,92,794.0,square1,f,0.2611,0,S,5.0
S5,10.0,82.0,71.0,80.0,80.0,82,876.0,square1,f,0.0456,0,S,5.0
S5,11.0,80.0,75.0,79.0,75.0,80,956.0,square1,f,0.1947,0,S,5.0
S5,12.0,84.0,75.0,80.0,82.0,84,1040.0,square1,f,0.1741,0,S,5.0
S5,13.0,85.0,74.0,74.0,81.0,85,1125.0,square1,f,0.0551,0,S,5.0
S5,14.0,81.0,79.0,85.0,81.0,81,1206.0,square1,f,0.1094,0,S,5.0
S5,15.0,81.0,75.0,76.0,77.0,81,1287.0,square1,f,0.3059,0,S,5.0
S5,16.0,86.0,74.0,78.0,74.0,86,1373.0,square1,f,0.1773,0,S,5.0
S5,17.0,81.0,77.0,81.0,77.0,81,1454.0,square1,f,0.0478,0,S,5.0
S5,18.0,87.0,70.0,84.0,82.0,87,1541.0,square1,f,0.0536,0,S,5.0
S5,19.0,84.0,76.0,83.0,76.0,84,1625.0,square1,f,0.0003,0,S,5.0
S5,20.0,79.0,78.0,82.0,76.0,79,1704.0,square1,f,0.0286,0,S,5.0
S5,21.0,86.0,68.0,80.0,72.0,86,1790.0,square1,f,0.0408,0,S,5.0
S5,22.0,93.0,80.0,85.0,84.0,93,1883.0,square1,f,0.1494,0,S,5.0
S5,23.0,87.0,73.0,76.0,70.0,87,1970.0,square1,f,0.0436,0,S,5.0
S5,24.0,85.0,69.0,81.0,78.0,85,2055.0,square1,f,0.094,0,S,5.0
S5,25.0,89.0,77.0,77.0,76.0,89,2144.0,square1,f,0.0769,0,S,5.0
S5,26.0,84.0,71.0,81.0,75.0,84,2228.0,square1,f,0.0466,0,S,5.0
S5,27.0,84.0,75.0,82.0,71.0,84,2312.0,square1,f,0.0721,0,S,5.0
S5,28.0,83.0,72.0,82.0,78.0,83,2395.0,square1,f,0.1276,0,S,5.0
S5,29.0,91.0,67.0,79.0,74.0,91,2486.0,square1,f,0.1104,0,S,5.0
S5,30.0,82.0,69.0,81.0,77.0,82,2568.0,square1,f,0.0616,0,S,5.0
S5,31.0,82.0,72.0,80.0,78.0,82,2650.0,square1,f,0.0567,0,S,5.0
S5,32.0,83.0,73.0,91.0,80.0,83,2733.0,square1,f,0.057,0,S,5.0
S5,33.0,83.0,68.0,85.0,78.0,83,2816.0,square1,f,0.3245,0,S,5.0
S5,34.0,89.0,79.0,83.0,77.0,89,2905.0,square1,f,0.0732,0,S,5.0
S5,35.0,88.0,72.0,79.0,80.0,88,2993.0,square1,f,0.027,0,S,5.0
S5,36.0,90.0,74.0,84.0,76.0,90,3083.0,square1,f,0.0018,0,S,5.0
S5,37.0,85.0,75.0,80.0,82.0,85,3168.0,square1,f,0.0005,0,S,5.0
S5,38.0,78.0,74.0,85.0,79.0,78,3246.0,square1,f,0.1941,0,S,5.0
S5,39.0,87.0,73.0,87.0,85.0,87,3333.0,square1,f,0.0355,0,S,5.0
S5,40.0,83.0,67.0,81.0,80.0,83,3416.0,square1,f,0.1617,0,S,5.0
S5,41.0,82.0,69.0,88.0,80.0,82,3498.0,square1,f,0.0004,0,S,5.0
S5,42.0,85.0,78.0,91.0,80.0,85,3583.0,square1,f,0.1767,0,S,5.0
S5,43.0,89.0,74.0,78.0,74.0,89,3672.0,square1,f,0.1573,0,S,5.0
S5,44.0,90.0,74.0,77.0,85.0,90,3762.0,square1,f,0.1055,0,S,5.0
S5,45.0,89.0,68.0,81.0,78.0,89,3851.0,square1,f,0.0559,0,S,5.0
S5,46.0,86.0,70.0,86.0,68.0,86,3937.0,square1,f,0.0794,0,S,5.0
S5,47.0,90.0,77.0,85.0,84.0,90,4027.0,square1,f,0.0773,0,S,5.0
S5,48.0,76.0,66.0,82.0,79.0,76,4103.0,square1,f,0.0946,0,S,5.0
S5,49.0,84.0,73.0,82.0,75.0,84,4187.0,square1,f,0.1523,0,S,5.0
S6,0.0,40.0,29.0,39.0,26.0,26,26.0,square4,r,1.4407,3,S,6.0
S6,1.0,34.0,40.0,31.0,25.0,34,60.0,square1,i,0.1357,0,S,6.0
S6,2.0,37.0,31.0,25.0,30.0,31,91.0,square2,j,0.1791,1,S,6.0
S6,3.0,39.0,37.0,30.0,27.0,30,121.0,square3,f,0.1108,2,S,6.0
S6,4.0,42.0,40.0,28.0,32.0,42,163.0,square1,i,0.1945,0,S,6.0
S6,5.0,35.0,35.0,39.0,29.0,35,198.0,square1,i,0.1079,0,S,6.0
S6,6.0,48.0,30.0,37.0,33.0,48,246.0,square1,i,0.0198,0,S,6.0
S6,7.0,47.0,34.0,31.0,29.0,29,275.0,square4,r,0.0416,3,S,6.0
S6,8.0,43.0,35.0,30.0,25.0,25,300.0,square4,r,0.2582,3,S,6.0
S6,9.0,36.0,38.0,35.0,35.0,35,335.0,square4,r,0.0621,3,S,6.0
S6,10.0,38.0,35.0,31.0,21.0,35,370.0,square2,j,0.2074,1,S,6.0
S6,11.0,30.0,36.0,31.0,20.0,36,406.0,square2,j,0.077,1,S,6.0
S6,12.0,37.0,40.0,33.0,22.0,40,446.0,square2,j,0.0557,1,S,6.0
S6,13.0,32.0,41.0,35.0,29.0,35,481.0,square3,f,0.023,2,S,6.0
S6,14.0,41.0,29.0,30.0,32.0,30,511.0,square3,f,0.1415,2,S,6.0
S6,15.0,43.0,37.0,31.0,27.0,31,542.0,square3,f,0.0227,2,S,6.0
S6,16.0,34.0,34.0,35.0,31.0,34,576.0,square1,i,0.028,0,S,6.0
S6,17.0,47.0,40.0,29.0,28.0,47,623.0,square1,i,0.0005,0,S,6.0
S6,18.0,37.0,38.0,34.0,35.0,37,660.0,square1,i,0.0005,0,S,6.0
S6,19.0,36.0,39.0,31.0,26.0,36,696.0,square1,i,0.1595,0,S,6.0
S6,20.0,44.0,40.0,31.0,25.0,44,740.0,square1,i,0.0311,0,S,6.0
S6,21.0,39.0,41.0,35.0,24.0,39,779.0,square1,i,0.0929,0,S,6.0
S6,22.0,41.0,38.0,41.0,31.0,41,820.0,square1,i,0.1111,0,S,6.0
S6,23.0,37.0,31.0,30.0,32.0,37,857.0,square1,i,0.0465,0,S,6.0
S6,24.0,48.0,34.0,34.0,21.0,48,905.0,square1,i,0.1561,0,S,6.0
S6,25.0,42.0,45.0,26.0,29.0,42,947.0,square1,i,0.1463,0,S,6.0
S6,26.0,40.0,39.0,36.0,28.0,40,987.0,square1,i,0.1437,0,S,6.0
S6,27.0,42.0,33.0,29.0,29.0,42,1029.0,square1,i,0.1263,0,S,6.0
S6,28.0,41.0,30.0,29.0,29.0,41,1070.0,square1,i,0.0102,0,S,6.0
S6,29.0,42.0,40.0,32.0,27.0,42,1112.0,square1,i,0.2767,0,S,6.0
S6,30.0,42.0,36.0,30.0,26.0,42,1154.0,square1,i,0.0948,0,S,6.0
S6,31.0,42.0,34.0,35.0,29.0,42,1196.0,square1,i,0.1937,0,S,6.0
S6,32.0,35.0,36.0,31.0,23.0,35,1231.0,square1,i,0.0468,0,S,6.0
S6,33.0,35.0,31.0,35.0,30.0,35,1266.0,square1,i,0.0778,0,S,6.0
S6,34.0,40.0,38.0,31.0,27.0,40,1306.0,square1,i,0.0918,0,S,6.0
S6,35.0,42.0,37.0,34.0,34.0,42,1348.0,square1,i,0.1299,0,S,6.0
S6,36.0,37.0,46.0,31.0,34.0,37,1385.0,square1,i,0.1342,0,S,6.0
S6,37.0,38.0,40.0,30.0,26.0,38,1423.0,square1,i,0.1532,0,S,6.0
S6,38.0,36.0,34.0,31.0,33.0,36,1459.0,square1,i,0.1893,0,S,6.0
S6,39.0,44.0,37.0,33.0,31.0,44,1503.0,square1,i,0.0007,0,S,6.0
S6,40.0,40.0,38.0,31.0,25.0,40,1543.0,square1,i,0.0128,0,S,6.0
S6,41.0,49.0,35.0,35.0,28.0,49,1592.0,square1,i,0.1137,0,S,6.0
S6,42.0,44.0,40.0,32.0,28.0,44,1636.0,square1,i,0.0093,0,S,6.0
S6,43.0,43.0,36.0,33.0,26.0,43,1679.0,square1,i,0.1068,0,S,6.0
S6,44.0,38.0,33.0,34.0,26.0,38,1717.0,square1,i,0.1754,0,S,6.0
S6,45.0,32.0,35.0,30.0,28.0,32,1749.0,square1,i,0.0069,0,S,6.0
S6,46.0,38.0,36.0,34.0,30.0,38,1787.0,square1,i,0.0393,0,S,6.0
S6,47.0,44.0,35.0,32.0,31.0,44,1831.0,square1,i,0.0765,0,S,6.0
S6,48.0,40.0,40.0,31.0,33.0,40,1871.0,square1,i,0.0031,0,S,6.0
S6,49.0,41.0,29.0,29.0,29.0,41,1912.0,square1,i,0.0809,0,S,6.0
S4,0.0,18.0,16.0,34.0,20.0,99999,0.0,invalid,,,-1,S,4.0
S4,1.0,33.0,26.0,26.0,23.0,33,33.0,square1,j,1.0789,0,S,4.0
S4,2.0,35.0,15.0,33.0,22.0,22,55.0,square4,i,0.0618,3,S,4.0
S4,3.0,28.0,19.0,27.0,27.0,19,74.0,square2,f,0.1277,1,S,4.0
S4,4.0,27.0,16.0,25.0,28.0,25,99.0,square3,r,0.0408,2,S,4.0
S4,5.0,23.0,22.0,31.0,24.0,31,130.0,square3,r,0.1105,2,S,4.0
S4,6.0,25.0,20.0,34.0,23.0,23,153.0,square4,i,0.0005,3,S,4.0
S4,7.0,21.0,22.0,30.0,21.0,22,175.0,square2,f,0.0869,1,S,4.0
S4,8.0,33.0,24.0,33.0,17.0,33,208.0,square1,j,0.1326,0,S,4.0
S4,9.0,24.0,18.0,31.0,28.0,24,232.0,square1,j,0.1526,0,S,4.0
S4,10.0,31.0,26.0,35.0,20.0,20,252.0,square4,i,0.425,3,S,4.0
S4,11.0,25.0,15.0,31.0,25.0,25,277.0,square1,j,0.0752,0,S,4.0
S4,12.0,24.0,16.0,29.0,22.0,16,293.0,square2,f,0.0272,1,S,4.0
S4,13.0,28.0,23.0,25.0,17.0,25,318.0,square3,r,0.0005,2,S,4.0
S4,14.0,22.0,23.0,21.0,23.0,21,339.0,square3,r,0.1086,2,S,4.0
S4,15.0,25.0,19.0,28.0,25.0,28,367.0,square3,r,0.2886,2,S,4.0
S4,16.0,26.0,17.0,30.0,21.0,30,397.0,square3,r,0.0004,2,S,4.0
S4,17.0,22.0,21.0,29.0,22.0,22,419.0,square1,j,0.0427,0,S,4.0
S4,18.0,28.0,22.0,32.0,22.0,28,447.0,square1,j,0.0083,0,S,4.0
S4,19.0,26.0,19.0,31.0,26.0,26,473.0,square1,j,0.0788,0,S,4.0
S4,20.0,28.0,18.0,28.0,25.0,28,501.0,square1,j,0.1101,0,S,4.0
S4,21.0,33.0,26.0,21.0,29.0,33,534.0,square1,j,0.1557,0,S,4.0
S4,22.0,31.0,19.0,29.0,20.0,20,554.0,square4,i,0.0792,3,S,4.0
S4,23.0,27.0,21.0,36.0,26.0,26,580.0,square4,i,0.0414,3,S,4.0
S4,24.0,28.0,15.0,32.0,21.0,21,601.0,square4,i,0.0929,3,S,4.0
S4,25.0,27.0,18.0,28.0,25.0,25,626.0,square4,i,0.0578,3,S,4.0
S4,26.0,26.0,20.0,27.0,14.0,14,640.0,square4,i,0.0757,3,S,4.0
S4,27.0,28.0,19.0,36.0,18.0,28,668.0,square1,j,0.1535,0,S,4.0
S4,28.0,28.0,19.0,28.0,23.0,28,696.0,square1,j,0.1283,0,S,4.0
S4,29.0,25.0,22.0,29.0,23.0,25,721.0,square1,j,0.1043,0,S,4.0
S4,30.0,26.0,16.0,30.0,20.0,26,747.0,square1,j,0.1218,0,S,4.0
S4,31.0,23.0,25.0,26.0,30.0,26,773.0,square3,r,0.1144,2,S,4.0
S4,32.0,21.0,26.0,22.0,23.0,22,795.0,square3,r,0.0977,2,S,4.0
S4,33.0,25.0,22.0,24.0,17.0,24,819.0,square3,r,0.0916,2,S,4.0
S4,34.0,30.0,22.0,33.0,24.0,33,852.0,square3,r,0.1116,2,S,4.0
S4,35.0,23.0,21.0,35.0,26.0,35,887.0,square3,r,0.1106,2,S,4.0
S4,36.0,19.0,21.0,33.0,24.0,33,920.0,square3,r,0.1287,2,S,4.0
S4,37.0,20.0,17.0,26.0,26.0,26,946.0,square3,r,0.1416,2,S,4.0
S4,38.0,28.0,20.0,28.0,26.0,28,974.0,square3,r,0.0604,2,S,4.0
S4,39.0,28.0,23.0,40.0,27.0,40,1014.0,square3,r,0.0368,2,S,4.0
S4,40.0,25.0,24.0,32.0,22.0,32,1046.0,square3,r,0.1108,2,S,4.0
S4,41.0,23.0,23.0,26.0,17.0,26,1072.0,square3,r,0.004,2,S,4.0
S4,42.0,26.0,18.0,33.0,22.0,33,1105.0,square3,r,0.086,2,S,4.0
S4,43.0,22.0,21.0,36.0,25.0,36,1141.0,square3,r,0.1452,2,S,4.0
S4,44.0,21.0,18.0,33.0,14.0,33,1174.0,square3,r,0.1088,2,S,4.0
S4,45.0,29.0,19.0,30.0,29.0,30,1204.0,square3,r,0.1439,2,S,4.0
S4,46.0,21.0,16.0,22.0,23.0,22,1226.0,square3,r,0.0223,2,S,4.0
S4,47.0,22.0,18.0,28.0,22.0,28,1254.0,square3,r,0.0609,2,S,4.0
S4,48.0,33.0,21.0,32.0,26.0,32,1286.0,square3,r,0.0951,2,S,4.0
S4,49.0,23.0,17.0,20.0,21.0,20,1306.0,square3,r,0.0793,2,S,4.0
S8,0.0,58.0,60.0,52.0,45.0,45,45.0,square4,r,1.2837,3,S,8.0
S8,1.0,55.0,57.0,56.0,52.0,56,101.0,square3,j,0.0196,2,S,8.0
S8,2.0,54.0,58.0,58.0,49.0,58,159.0,square2,i,0.0932,1,S,8.0
S8,3.0,55.0,62.0,52.0,53.0,55,214.0,square1,f,0.026,0,S,8.0
S8,4.0,55.0,60.0,49.0,51.0,60,274.0,square2,i,0.0744,1,S,8.0
S8,5.0,48.0,63.0,61.0,49.0,63,337.0,square2,i,0.0753,1,S,8.0
S8,6.0,58.0,63.0,59.0,55.0,63,400.0,square2,i,0.0212,1,S,8.0
S8,7.0,56.0,53.0,49.0,51.0,51,451.0,square4,r,0.0778,3,S,8.0
S8,8.0,61.0,63.0,66.0,49.0,49,500.0,square4,r,0.0473,3,S,8.0
S8,9.0,60.0,59.0,53.0,47.0,60,560.0,square1,f,0.3599,0,S,8.0
S8,10.0,55.0,63.0,52.0,55.0,55,615.0,square1,f,0.0925,0,S,8.0
S8,11.0,62.0,60.0,54.0,50.0,62,677.0,square1,f,0.0004,0,S,8.0
S8,12.0,58.0,64.0,51.0,52.0,58,735.0,square1,f,0.0582,0,S,8.0
S8,13.0,62.0,59.0,53.0,53.0,53,788.0,square3,j,0.1264,2,S,8.0
S8,14.0,51.0,62.0,61.0,54.0,61,849.0,square3,j,0.0224,2,S,8.0
S8,15.0,56.0,68.0,56.0,50.0,56,905.0,square3,j,0.0355,2,S,8.0
S8,16.0,58.0,64.0,56.0,50.0,56,961.0,square3,j,0.1613,2,S,8.0
S8,17.0,64.0,63.0,60.0,42.0,63,1024.0,square2,i,0.1312,1,S,8.0
S8,18.0,54.0,64.0,57.0,55.0,64,1088.0,square2,i,0.0562,1,S,8.0
S8,19.0,56.0,53.0,57.0,53.0,53,1141.0,square2,i,0.0391,1,S,8.0
S8,20.0,59.0,64.0,56.0,49.0,64,1205.0,square2,i,0.1267,1,S,8.0
S8,21.0,54.0,59.0,55.0,48.0,59,1264.0,square2,i,0.1231,1,S,8.0
S8,22.0,63.0,63.0,59.0,49.0,63,1327.0,square2,i,0.0004,1,S,8.0
S8,23.0,59.0,60.0,48.0,52.0,60,1387.0,square2,i,0.1069,1,S,8.0
S8,24.0,55.0,53.0,60.0,50.0,53,1440.0,square2,i,0.0264,1,S,8.0
S8,25.0,57.0,60.0,55.0,54.0,60,1500.0,square2,i,0.0005,1,S,8.0
S8,26.0,62.0,66.0,57.0,58.0,66,1566.0,square2,i,0.1605,1,S,8.0
S8,27.0,58.0,55.0,52.0,48.0,55,1621.0,square2,i,0.0365,1,S,8.0
S8,28.0,53.0,59.0,53.0,55.0,59,1680.0,square2,i,0.0611,1,S,8.0
S8,29.0,60.0,58.0,57.0,53.0,58,1738.0,square2,i,0.1623,1,S,8.0
S8,30.0,57.0,67.0,52.0,56.0,67,1805.0,square2,i,0.161,1,S,8.0
S8,31.0,60.0,58.0,52.0,50.0,58,1863.0,square2,i,0.0133,1,S,8.0
S8,32.0,54.0,61.0,56.0,57.0,61,1924.0,square2,i,0.1423,1,S,8.0
S8,33.0,66.0,64.0,63.0,52.0,64,1988.0,square2,i,0.0544,1,S,8.0
S8,34.0,54.0,65.0,66.0,56.0,65,2053.0,square2,i,0.0274,1,S,8.0
S8,35.0,54.0,62.0,61.0,48.0,62,2115.0,square2,i,0.1092,1,S,8.0
S8,36.0,53.0,63.0,54.0,55.0,63,2178.0,square2,i,0.0111,1,S,8.0
S8,37.0,64.0,58.0,57.0,51.0,58,2236.0,square2,i,0.1281,1,S,8.0
S8,38.0,68.0,65.0,59.0,57.0,65,2301.0,square2,i,0.0018,1,S,8.0
S8,39.0,64.0,65.0,51.0,55.0,65,2366.0,square2,i,0.0079,1,S,8.0
S8,40.0,63.0,61.0,57.0,47.0,61,2427.0,square2,i,0.0889,1,S,8.0
S8,41.0,65.0,58.0,55.0,49.0,58,2485.0,square2,i,0.0094,1,S,8.0
S8,42.0,52.0,60.0,51.0,56.0,60,2545.0,square2,i,0.0009,1,S,8.0
S8,43.0,63.0,57.0,48.0,50.0,57,2602.0,square2,i,0.0941,1,S,8.0
S8,44.0,59.0,63.0,53.0,53.0,63,2665.0,square2,i,0.1595,1,S,8.0
S8,45.0,62.0,62.0,60.0,53.0,62,2727.0,square2,i,0.1551,1,S,8.0
S8,46.0,56.0,62.0,57.0,60.0,62,2789.0,square2,i,0.0006,1,S,8.0
S8,47.0,60.0,63.0,58.0,56.0,63,2852.0,square2,i,0.142,1,S,8.0
S8,48.0,59.0,63.0,49.0,53.0,63,2915.0,square2,i,0.093,1,S,8.0
S8,49.0,67.0,67.0,59.0,55.0,67,2982.0,square2,i,0.0295,1,S,8.0
