block,Trial,square1,square2,square3,square4,currPoints,totalPoints,square,choiceKey.keys,choiceKey.rt,armNum,blockType,blockNum
prac,0.0,100.0,0.0,0.0,0.0,0.0,0.0,square4,,,3,p,0.0
prac,1.0,100.0,0.0,0.0,0.0,0.0,0.0,square2,,,1,p,0.0
prac,2.0,100.0,0.0,0.0,0.0,100.0,100.0,square1,,,0,p,0.0
prac,3.0,100.0,0.0,0.0,0.0,0.0,100.0,square3,,,2,p,0.0
prac,4.0,100.0,0.0,0.0,0.0,100.0,200.0,square1,,,0,p,0.0
prac,5.0,100.0,0.0,0.0,0.0,100.0,300.0,square1,,,0,p,0.0
prac,6.0,100.0,0.0,0.0,0.0,100.0,400.0,square1,,,0,p,0.0
prac,7.0,100.0,0.0,0.0,0.0,100.0,500.0,square1,,,0,p,0.0
prac,8.0,100.0,0.0,0.0,0.0,100.0,600.0,square1,,,0,p,0.0
prac,9.0,100.0,0.0,0.0,0.0,100.0,700.0,square1,,,0,p,0.0
V7,0.0,86.0,61.0,78.0,68.0,86.0,86.0,square1,i,0.9724,0,V,7.0
V7,1.0,95.0,62.0,79.0,70.0,79.0,165.0,square3,f,0.2217,2,V,7.0
V7,2.0,89.0,67.0,81.0,77.0,89.0,254.0,square1,i,0.1276,0,V,7.0
V7,3.0,90.0,56.0,85.0,72.0,72.0,326.0,square4,j,0.4361,3,V,7.0
V7,4.0,91.0,65.0,77.0,71.0,91.0,417.0,square1,i,0.1771,0,V,7.0
V7,5.0,91.0,58.0,84.0,72.0,58.0,475.0,square2,r,0.0446,1,V,7.0
V7,6.0,94.0,65.0,87.0,72.0,94.0,569.0,square1,i,0.0787,0,V,7.0
V7,7.0,89.0,67.0,79.0,67.0,89.0,658.0,square1,i,0.0084,0,V,7.0
V7,8.0,91.0,65.0,84.0,68.0,84.0,742.0,square3,f,0.1127,2,V,7.0
V7,9.0,92.0,60.0,87.0,69.0,92.0,834.0,square1,i,0.0201,0,V,7.0
V7,10.0,90.0,67.0,81.0,76.0,90.0,924.0,square1,i,0.0239,0,V,7.0
V7,11.0,86.0,67.0,83.0,73.0,86.0,1010.0,square1,i,0.381,0,V,7.0
V7,12.0,90.0,62.0,80.0,72.0,80.0,1090.0,square3,f,0.1002,2,V,7.0
V7,13.0,84.0,60.0,88.0,71.0,71.0,1161.0,square4,j,0.4519,3,V,7.0
V7,14.0,95.0,64.0,80.0,70.0,95.0,1256.0,square1,i,0.164,0,V,7.0
V7,15.0,86.0,60.0,81.0,70.0,86.0,1342.0,square1,i,0.0959,0,V,7.0
V7,16.0,85.0,65.0,77.0,69.0,65.0,1407.0,square2,r,0.2099,1,V,7.0
V7,17.0,91.0,65.0,81.0,70.0,91.0,1498.0,square1,i,0.0658,0,V,7.0
V7,18.0,95.0,61.0,81.0,76.0,95.0,1593.0,square1,i,0.0703,0,V,7.0
V7,19.0,90.0,58.0,79.0,72.0,90.0,1683.0,square1,i,0.0155,0,V,7.0
V7,20.0,94.0,68.0,80.0,79.0,94.0,1777.0,square1,i,0.4893,0,V,7.0
V7,21.0,92.0,66.0,82.0,70.0,92.0,1869.0,square1,i,0.2005,0,V,7.0
V7,22.0,92.0,64.0,83.0,72.0,92.0,1961.0,square1,i,0.2466,0,V,7.0
V7,23.0,91.0,68.0,82.0,73.0,91.0,2052.0,square1,i,0.1504,0,V,7.0
V7,24.0,87.0,71.0,82.0,72.0,87.0,2139.0,square1,i,0.1799,0,V,7.0
V7,25.0,91.0,68.0,90.0,74.0,91.0,2230.0,square1,i,0.1144,0,V,7.0
V7,26.0,89.0,65.0,83.0,72.0,89.0,2319.0,square1,i,0.0464,0,V,7.0
V7,27.0,91.0,61.0,81.0,73.0,91.0,2410.0,square1,i,0.1162,0,V,7.0
V7,28.0,90.0,66.0,81.0,72.0,90.0,2500.0,square1,i,0.0532,0,V,7.0
V7,29.0,89.0,67.0,77.0,71.0,89.0,2589.0,square1,i,0.0242,0,V,7.0
V7,30.0,95.0,68.0,84.0,71.0,95.0,2684.0,square1,i,0.546,0,V,7.0
V7,31.0,95.0,61.0,81.0,70.0,95.0,2779.0,square1,i,0.205,0,V,7.0
V7,32.0,89.0,65.0,82.0,75.0,89.0,2868.0,square1,i,0.2046,0,V,7.0
V7,33.0,77.0,50.0,80.0,61.0,77.0,2945.0,square1,i,0.1576,0,V,7.0
V7,34.0,76.0,54.0,78.0,61.0,76.0,3021.0,square1,i,0.0144,0,V,7.0
V7,35.0,71.0,51.0,80.0,64.0,80.0,3101.0,square3,f,0.1005,2,V,7.0
V7,36.0,75.0,51.0,80.0,62.0,62.0,3163.0,square4,j,0.0393,3,V,7.0
V7,37.0,73.0,58.0,86.0,63.0,58.0,3221.0,square2,r,0.0451,1,V,7.0
V7,38.0,73.0,50.0,86.0,61.0,86.0,3307.0,square3,f,0.0947,2,V,7.0
V7,39.0,67.0,53.0,78.0,61.0,67.0,3374.0,square1,i,0.1277,0,V,7.0
V7,40.0,71.0,53.0,84.0,58.0,84.0,3458.0,square3,f,0.0739,2,V,7.0
V7,41.0,75.0,51.0,83.0,63.0,83.0,3541.0,square3,f,0.006,2,V,7.0
V7,42.0,69.0,48.0,87.0,63.0,87.0,3628.0,square3,f,0.0457,2,V,7.0
V7,43.0,70.0,58.0,81.0,60.0,81.0,3709.0,square3,f,0.0612,2,V,7.0
V7,44.0,68.0,56.0,76.0,63.0,76.0,3785.0,square3,f,0.0142,2,V,7.0
V7,45.0,74.0,59.0,76.0,56.0,76.0,3861.0,square3,f,0.0459,2,V,7.0
V7,46.0,72.0,54.0,77.0,61.0,77.0,3938.0,square3,f,0.1511,2,V,7.0
V7,47.0,69.0,47.0,81.0,62.0,69.0,4007.0,square1,i,0.1172,0,V,7.0
V7,48.0,75.0,52.0,81.0,57.0,52.0,4059.0,square2,r,0.1085,1,V,7.0
V7,49.0,74.0,55.0,78.0,60.0,60.0,4119.0,square4,j,0.0351,3,V,7.0
V7,50.0,71.0,51.0,80.0,61.0,80.0,4199.0,square3,f,0.1144,2,V,7.0
V7,51.0,75.0,55.0,85.0,62.0,85.0,4284.0,square3,f,0.0368,2,V,7.0
V7,52.0,75.0,59.0,76.0,59.0,76.0,4360.0,square3,f,0.1399,2,V,7.0
V7,53.0,72.0,53.0,84.0,66.0,84.0,4444.0,square3,f,0.0295,2,V,7.0
V7,54.0,69.0,51.0,81.0,60.0,81.0,4525.0,square3,f,0.0437,2,V,7.0
V7,55.0,74.0,56.0,75.0,54.0,75.0,4600.0,square3,f,0.0369,2,V,7.0
V7,56.0,76.0,51.0,83.0,58.0,83.0,4683.0,square3,f,0.1047,2,V,7.0
V7,57.0,71.0,53.0,80.0,64.0,80.0,4763.0,square3,f,0.0008,2,V,7.0
V7,58.0,81.0,56.0,79.0,61.0,79.0,4842.0,square3,f,0.1567,2,V,7.0
V7,59.0,71.0,55.0,83.0,59.0,83.0,4925.0,square3,f,0.0846,2,V,7.0
V7,60.0,73.0,53.0,83.0,64.0,83.0,5008.0,square3,f,0.0963,2,V,7.0
V7,61.0,70.0,53.0,77.0,63.0,77.0,5085.0,square3,f,0.0403,2,V,7.0
V7,62.0,71.0,54.0,76.0,61.0,71.0,5156.0,square1,i,0.0124,0,V,7.0
V7,63.0,68.0,45.0,79.0,65.0,45.0,5201.0,square2,r,0.0464,1,V,7.0
V7,64.0,65.0,55.0,79.0,59.0,59.0,5260.0,square4,j,0.0008,3,V,7.0
V7,65.0,74.0,54.0,81.0,61.0,81.0,5341.0,square3,f,0.1556,2,V,7.0
V7,66.0,70.0,56.0,81.0,63.0,81.0,5422.0,square3,f,0.0462,2,V,7.0
V7,67.0,70.0,85.0,64.0,92.0,64.0,5486.0,square3,f,0.0599,2,V,7.0
V7,68.0,73.0,85.0,68.0,92.0,68.0,5554.0,square3,f,0.064,2,V,7.0
V7,69.0,75.0,83.0,70.0,91.0,70.0,5624.0,square3,f,0.3784,2,V,7.0
V7,70.0,75.0,85.0,69.0,91.0,75.0,5699.0,square1,i,0.3581,0,V,7.0
V7,71.0,71.0,86.0,65.0,94.0,94.0,5793.0,square4,j,0.0474,3,V,7.0
V7,72.0,77.0,86.0,65.0,98.0,98.0,5891.0,square4,j,0.1589,3,V,7.0
V7,73.0,77.0,84.0,63.0,94.0,94.0,5985.0,square4,j,0.0642,3,V,7.0
V7,74.0,71.0,86.0,64.0,91.0,91.0,6076.0,square4,j,0.0684,3,V,7.0
V7,75.0,73.0,90.0,60.0,90.0,90.0,6166.0,square4,j,0.1004,3,V,7.0
V7,76.0,79.0,84.0,68.0,95.0,95.0,6261.0,square4,j,0.1145,3,V,7.0
V7,77.0,73.0,85.0,66.0,89.0,89.0,6350.0,square4,j,0.0982,3,V,7.0
V7,78.0,75.0,82.0,67.0,91.0,91.0,6441.0,square4,j,0.0982,3,V,7.0
V7,79.0,72.0,85.0,60.0,90.0,90.0,6531.0,square4,j,0.0011,3,V,7.0
V7,80.0,73.0,83.0,66.0,97.0,97.0,6628.0,square4,j,0.1097,3,V,7.0
V7,81.0,73.0,84.0,67.0,92.0,92.0,6720.0,square4,j,0.185,3,V,7.0
V7,82.0,69.0,84.0,65.0,91.0,91.0,6811.0,square4,j,0.1011,3,V,7.0
V7,83.0,76.0,83.0,72.0,99.0,99.0,6910.0,square4,j,0.2381,3,V,7.0
V7,84.0,72.0,84.0,70.0,94.0,94.0,7004.0,square4,j,0.2177,3,V,7.0
V7,85.0,77.0,83.0,67.0,88.0,88.0,7092.0,square4,j,0.1055,3,V,7.0
V7,86.0,76.0,80.0,67.0,90.0,90.0,7182.0,square4,j,0.1046,3,V,7.0
V7,87.0,70.0,86.0,67.0,95.0,95.0,7277.0,square4,j,0.1884,3,V,7.0
V7,88.0,76.0,84.0,67.0,100.0,100.0,7377.0,square4,j,0.1443,3,V,7.0
V7,89.0,71.0,88.0,60.0,97.0,97.0,7474.0,square4,j,0.0812,3,V,7.0
V7,90.0,69.0,82.0,71.0,95.0,95.0,7569.0,square4,j,0.1214,3,V,7.0
V7,91.0,80.0,84.0,65.0,92.0,92.0,7661.0,square4,j,0.0998,3,V,7.0
V7,92.0,77.0,85.0,68.0,85.0,85.0,7746.0,square4,j,0.0707,3,V,7.0
V7,93.0,72.0,84.0,66.0,91.0,91.0,7837.0,square4,j,0.1329,3,V,7.0
V7,94.0,69.0,83.0,66.0,95.0,95.0,7932.0,square4,j,0.0299,3,V,7.0
V7,95.0,70.0,86.0,75.0,91.0,91.0,8023.0,square4,j,0.0668,3,V,7.0
V7,96.0,74.0,85.0,66.0,88.0,88.0,8111.0,square4,j,0.1333,3,V,7.0
V7,97.0,77.0,82.0,73.0,91.0,91.0,8202.0,square4,j,0.0695,3,V,7.0
V7,98.0,76.0,91.0,62.0,94.0,94.0,8296.0,square4,j,0.2451,3,V,7.0
V7,99.0,74.0,84.0,67.0,88.0,88.0,8384.0,square4,j,0.1022,3,V,7.0
V5,0.0,46.0,21.0,37.0,28.0,46.0,46.0,square1,r,1.1094,0,V,5.0
V5,1.0,43.0,27.0,36.0,31.0,36.0,82.0,square3,i,0.0237,2,V,5.0
V5,2.0,50.0,18.0,43.0,32.0,32.0,114.0,square4,f,0.3304,3,V,5.0
V5,3.0,53.0,23.0,36.0,34.0,23.0,137.0,square2,j,0.2468,1,V,5.0
V5,4.0,52.0,19.0,38.0,34.0,52.0,189.0,square1,r,0.0873,0,V,5.0
V5,5.0,50.0,22.0,41.0,29.0,50.0,239.0,square1,r,0.0186,0,V,5.0
V5,6.0,52.0,19.0,40.0,33.0,52.0,291.0,square1,r,0.0435,0,V,5.0
V5,7.0,48.0,24.0,36.0,27.0,48.0,339.0,square1,r,0.0009,0,V,5.0
V5,8.0,50.0,24.0,35.0,33.0,50.0,389.0,square1,r,0.1395,0,V,5.0
V5,9.0,48.0,25.0,39.0,34.0,48.0,437.0,square1,r,0.0791,0,V,5.0
V5,10.0,52.0,19.0,32.0,34.0,52.0,489.0,square1,r,0.0487,0,V,5.0
V5,11.0,48.0,22.0,32.0,32.0,48.0,537.0,square1,r,0.0625,0,V,5.0
V5,12.0,47.0,17.0,43.0,29.0,29.0,566.0,square4,f,0.1169,3,V,5.0
V5,13.0,46.0,21.0,42.0,29.0,42.0,608.0,square3,i,0.0284,2,V,5.0
V5,14.0,47.0,28.0,42.0,28.0,42.0,650.0,square3,i,0.2026,2,V,5.0
V5,15.0,50.0,29.0,38.0,36.0,38.0,688.0,square3,i,0.163,2,V,5.0
V5,16.0,49.0,24.0,36.0,34.0,49.0,737.0,square1,r,0.1026,0,V,5.0
V5,17.0,50.0,20.0,38.0,35.0,50.0,787.0,square1,r,0.0034,0,V,5.0
V5,18.0,49.0,22.0,46.0,29.0,49.0,836.0,square1,r,0.0513,0,V,5.0
V5,19.0,46.0,23.0,40.0,31.0,46.0,882.0,square1,r,0.0485,0,V,5.0
V5,20.0,51.0,22.0,41.0,28.0,51.0,933.0,square1,r,0.0276,0,V,5.0
V5,21.0,51.0,26.0,36.0,31.0,51.0,984.0,square1,r,0.0172,0,V,5.0
V5,22.0,47.0,18.0,41.0,28.0,47.0,1031.0,square1,r,0.4335,0,V,5.0
V5,23.0,52.0,20.0,36.0,29.0,52.0,1083.0,square1,r,0.0171,0,V,5.0
V5,24.0,51.0,21.0,41.0,34.0,21.0,1104.0,square2,j,0.1008,1,V,5.0
V5,25.0,50.0,20.0,41.0,27.0,50.0,1154.0,square1,r,0.0008,0,V,5.0
V5,26.0,49.0,29.0,37.0,28.0,37.0,1191.0,square3,i,0.0854,2,V,5.0
V5,27.0,10.0,13.0,42.0,32.0,10.0,1201.0,square1,r,0.0011,0,V,5.0
V5,28.0,9.0,19.0,40.0,27.0,19.0,1220.0,square2,j,0.2543,1,V,5.0
V5,29.0,17.0,17.0,38.0,29.0,29.0,1249.0,square4,f,0.0287,3,V,5.0
V5,30.0,8.0,18.0,36.0,29.0,36.0,1285.0,square3,i,0.0499,2,V,5.0
V5,31.0,16.0,24.0,34.0,29.0,34.0,1319.0,square3,i,0.0241,2,V,5.0
V5,32.0,9.0,17.0,35.0,31.0,31.0,1350.0,square4,f,0.1521,3,V,5.0
V5,33.0,11.0,19.0,36.0,28.0,19.0,1369.0,square2,j,0.0762,1,V,5.0
V5,34.0,10.0,19.0,38.0,28.0,10.0,1379.0,square1,r,0.1007,0,V,5.0
V5,35.0,5.0,23.0,40.0,34.0,40.0,1419.0,square3,i,0.0268,2,V,5.0
V5,36.0,17.0,20.0,36.0,31.0,36.0,1455.0,square3,i,0.0508,2,V,5.0
V5,37.0,12.0,13.0,36.0,30.0,36.0,1491.0,square3,i,0.0009,2,V,5.0
V5,38.0,14.0,24.0,35.0,27.0,35.0,1526.0,square3,i,0.0604,2,V,5.0
V5,39.0,13.0,20.0,39.0,32.0,39.0,1565.0,square3,i,0.0681,2,V,5.0
V5,40.0,9.0,15.0,37.0,24.0,37.0,1602.0,square3,i,0.5942,2,V,5.0
V5,41.0,9.0,14.0,38.0,31.0,38.0,1640.0,square3,i,0.0855,2,V,5.0
V5,42.0,14.0,17.0,43.0,31.0,43.0,1683.0,square3,i,0.3776,2,V,5.0
V5,43.0,10.0,18.0,39.0,23.0,39.0,1722.0,square3,i,0.0619,2,V,5.0
V5,44.0,10.0,20.0,33.0,32.0,33.0,1755.0,square3,i,0.1007,2,V,5.0
V5,45.0,16.0,17.0,37.0,29.0,37.0,1792.0,square3,i,0.001,2,V,5.0
V5,46.0,9.0,22.0,37.0,25.0,37.0,1829.0,square3,i,0.0673,2,V,5.0
V5,47.0,10.0,22.0,35.0,26.0,22.0,1851.0,square2,j,0.0931,1,V,5.0
V5,48.0,11.0,16.0,39.0,23.0,39.0,1890.0,square3,i,0.0435,2,V,5.0
V5,49.0,13.0,16.0,33.0,27.0,33.0,1923.0,square3,i,0.1345,2,V,5.0
V5,50.0,12.0,16.0,39.0,24.0,39.0,1962.0,square3,i,0.1032,2,V,5.0
V5,51.0,10.0,21.0,43.0,28.0,28.0,1990.0,square4,f,0.125,3,V,5.0
V5,52.0,8.0,15.0,36.0,28.0,36.0,2026.0,square3,i,0.1013,2,V,5.0
V5,53.0,38.0,20.0,31.0,54.0,31.0,2057.0,square3,i,0.0666,2,V,5.0
V5,54.0,39.0,20.0,35.0,51.0,39.0,2096.0,square1,r,0.0709,0,V,5.0
V5,55.0,41.0,21.0,27.0,50.0,41.0,2137.0,square1,r,0.1016,0,V,5.0
V5,56.0,39.0,23.0,28.0,49.0,39.0,2176.0,square1,r,0.1187,0,V,5.0
V5,57.0,36.0,28.0,29.0,59.0,36.0,2212.0,square1,r,0.0561,0,V,5.0
V5,58.0,38.0,22.0,28.0,49.0,38.0,2250.0,square1,r,0.0838,0,V,5.0
V5,59.0,44.0,23.0,30.0,51.0,44.0,2294.0,square1,r,0.0401,0,V,5.0
V5,60.0,43.0,21.0,31.0,48.0,43.0,2337.0,square1,r,0.024,0,V,5.0
V5,61.0,39.0,24.0,35.0,50.0,39.0,2376.0,square1,r,0.0712,0,V,5.0
V5,62.0,38.0,25.0,31.0,52.0,38.0,2414.0,square1,r,0.0841,0,V,5.0
V5,63.0,41.0,14.0,31.0,52.0,41.0,2455.0,square1,r,0.001,0,V,5.0
V5,64.0,43.0,23.0,30.0,51.0,43.0,2498.0,square1,r,0.0847,0,V,5.0
V5,65.0,41.0,23.0,35.0,52.0,41.0,2539.0,square1,r,0.0567,0,V,5.0
V5,66.0,41.0,17.0,33.0,47.0,41.0,2580.0,square1,r,0.0864,0,V,5.0
V5,67.0,44.0,23.0,32.0,49.0,44.0,2624.0,square1,r,0.0681,0,V,5.0
V5,68.0,44.0,24.0,31.0,44.0,44.0,2668.0,square1,r,0.0839,0,V,5.0
V5,69.0,43.0,28.0,27.0,48.0,43.0,2711.0,square1,r,0.1097,0,V,5.0
V5,70.0,38.0,22.0,26.0,50.0,38.0,2749.0,square1,r,0.001,0,V,5.0
V5,71.0,41.0,29.0,26.0,53.0,53.0,2802.0,square4,f,0.1179,3,V,5.0
V5,72.0,40.0,20.0,28.0,51.0,51.0,2853.0,square4,f,0.1526,3,V,5.0
V5,73.0,59.0,44.0,51.0,35.0,35.0,2888.0,square4,f,0.1174,3,V,5.0
V5,74.0,60.0,38.0,55.0,43.0,43.0,2931.0,square4,f,0.084,3,V,5.0
V5,75.0,63.0,45.0,50.0,37.0,37.0,2968.0,square4,f,0.0503,3,V,5.0
V5,76.0,62.0,42.0,50.0,37.0,37.0,3005.0,square4,f,0.0927,3,V,5.0
V5,77.0,57.0,37.0,52.0,35.0,35.0,3040.0,square4,f,0.0508,3,V,5.0
V5,78.0,66.0,45.0,54.0,37.0,37.0,3077.0,square4,f,0.0108,3,V,5.0
V5,79.0,64.0,37.0,48.0,35.0,35.0,3112.0,square4,f,0.0185,3,V,5.0
V5,80.0,63.0,40.0,56.0,38.0,38.0,3150.0,square4,f,0.0227,3,V,5.0
V5,81.0,62.0,41.0,54.0,32.0,41.0,3191.0,square2,j,0.0511,1,V,5.0
V5,82.0,58.0,41.0,59.0,39.0,41.0,3232.0,square2,j,0.0512,1,V,5.0
V5,83.0,66.0,46.0,54.0,35.0,46.0,3278.0,square2,j,0.1199,1,V,5.0
V5,84.0,67.0,44.0,52.0,33.0,44.0,3322.0,square2,j,0.1522,1,V,5.0
V5,85.0,67.0,45.0,46.0,36.0,45.0,3367.0,square2,j,0.0187,1,V,5.0
V5,86.0,65.0,44.0,51.0,38.0,51.0,3418.0,square3,i,0.0213,2,V,5.0
V5,87.0,64.0,49.0,48.0,35.0,48.0,3466.0,square3,i,0.0007,2,V,5.0
V5,88.0,68.0,47.0,56.0,36.0,56.0,3522.0,square3,i,0.0538,2,V,5.0
V5,89.0,60.0,42.0,57.0,32.0,57.0,3579.0,square3,i,0.0696,2,V,5.0
V5,90.0,59.0,43.0,53.0,34.0,53.0,3632.0,square3,i,0.0689,2,V,5.0
V5,91.0,64.0,43.0,51.0,34.0,51.0,3683.0,square3,i,0.0501,2,V,5.0
V5,92.0,65.0,41.0,57.0,38.0,57.0,3740.0,square3,i,0.05,2,V,5.0
V5,93.0,59.0,48.0,54.0,40.0,54.0,3794.0,square3,i,0.0844,2,V,5.0
V5,94.0,66.0,44.0,53.0,43.0,53.0,3847.0,square3,i,0.0505,2,V,5.0
V5,95.0,63.0,43.0,50.0,40.0,50.0,3897.0,square3,i,0.001,2,V,5.0
V5,96.0,62.0,44.0,50.0,33.0,50.0,3947.0,square3,i,0.0254,2,V,5.0
V5,97.0,64.0,49.0,55.0,37.0,55.0,4002.0,square3,i,0.0591,2,V,5.0
V5,98.0,65.0,44.0,53.0,36.0,53.0,4055.0,square3,i,0.0609,2,V,5.0
V5,99.0,65.0,42.0,55.0,35.0,55.0,4110.0,square3,i,0.1008,2,V,5.0
V9,0.0,20.0,29.0,37.0,45.0,45.0,45.0,square4,r,0.8195,3,V,9.0
V9,1.0,21.0,32.0,39.0,45.0,32.0,77.0,square2,i,0.0189,1,V,9.0
V9,2.0,16.0,27.0,41.0,48.0,41.0,118.0,square3,f,0.1339,2,V,9.0
V9,3.0,20.0,30.0,42.0,50.0,20.0,138.0,square1,j,0.469,0,V,9.0
V9,4.0,22.0,34.0,37.0,47.0,47.0,185.0,square4,r,0.0576,3,V,9.0
V9,5.0,17.0,32.0,38.0,49.0,49.0,234.0,square4,r,0.0534,3,V,9.0
V9,6.0,17.0,25.0,39.0,47.0,47.0,281.0,square4,r,0.0343,3,V,9.0
V9,7.0,22.0,28.0,33.0,48.0,48.0,329.0,square4,r,0.468,3,V,9.0
V9,8.0,20.0,24.0,34.0,41.0,41.0,370.0,square4,r,0.0215,3,V,9.0
V9,9.0,20.0,33.0,30.0,51.0,51.0,421.0,square4,r,0.47,3,V,9.0
V9,10.0,21.0,35.0,38.0,50.0,50.0,471.0,square4,r,0.0756,3,V,9.0
V9,11.0,19.0,29.0,44.0,45.0,45.0,516.0,square4,r,0.0503,3,V,9.0
V9,12.0,27.0,24.0,38.0,54.0,54.0,570.0,square4,r,0.0071,3,V,9.0
V9,13.0,15.0,26.0,37.0,50.0,50.0,620.0,square4,r,0.001,3,V,9.0
V9,14.0,24.0,26.0,39.0,42.0,42.0,662.0,square4,r,0.117,3,V,9.0
V9,15.0,26.0,27.0,43.0,49.0,49.0,711.0,square4,r,0.0504,3,V,9.0
V9,16.0,19.0,30.0,42.0,49.0,49.0,760.0,square4,r,0.6031,3,V,9.0
V9,17.0,21.0,30.0,34.0,49.0,49.0,809.0,square4,r,0.1601,3,V,9.0
V9,18.0,25.0,33.0,41.0,51.0,51.0,860.0,square4,r,0.001,3,V,9.0
V9,19.0,17.0,31.0,41.0,45.0,45.0,905.0,square4,r,0.0562,3,V,9.0
V9,20.0,19.0,31.0,34.0,49.0,31.0,936.0,square2,i,0.0172,1,V,9.0
V9,21.0,23.0,29.0,37.0,48.0,48.0,984.0,square4,r,0.3402,3,V,9.0
V9,22.0,15.0,32.0,36.0,48.0,36.0,1020.0,square3,f,0.1105,2,V,9.0
V9,23.0,25.0,33.0,39.0,47.0,25.0,1045.0,square1,j,0.0703,0,V,9.0
V9,24.0,21.0,30.0,38.0,52.0,52.0,1097.0,square4,r,0.056,3,V,9.0
V9,25.0,25.0,29.0,42.0,48.0,48.0,1145.0,square4,r,0.0009,3,V,9.0
V9,26.0,22.0,29.0,39.0,47.0,47.0,1192.0,square4,r,0.1324,3,V,9.0
V9,27.0,17.0,31.0,45.0,41.0,41.0,1233.0,square4,r,0.1362,3,V,9.0
V9,28.0,29.0,28.0,43.0,43.0,43.0,1276.0,square4,r,0.1062,3,V,9.0
V9,29.0,20.0,31.0,43.0,49.0,49.0,1325.0,square4,r,0.4944,3,V,9.0
V9,30.0,23.0,33.0,39.0,48.0,48.0,1373.0,square4,r,0.2454,3,V,9.0
V9,31.0,20.0,27.0,38.0,53.0,53.0,1426.0,square4,r,0.1666,3,V,9.0
V9,32.0,23.0,29.0,37.0,49.0,49.0,1475.0,square4,r,0.1185,3,V,9.0
V9,33.0,24.0,33.0,37.0,49.0,49.0,1524.0,square4,r,0.196,3,V,9.0
V9,34.0,43.0,58.0,48.0,30.0,30.0,1554.0,square4,r,0.2752,3,V,9.0
V9,35.0,48.0,59.0,45.0,34.0,48.0,1602.0,square1,j,0.2043,0,V,9.0
V9,36.0,39.0,56.0,54.0,32.0,54.0,1656.0,square3,f,0.1257,2,V,9.0
V9,37.0,40.0,57.0,50.0,35.0,50.0,1706.0,square3,f,0.259,2,V,9.0
V9,38.0,49.0,62.0,51.0,33.0,62.0,1768.0,square2,i,0.1732,1,V,9.0
V9,39.0,45.0,61.0,48.0,34.0,61.0,1829.0,square2,i,0.1044,1,V,9.0
V9,40.0,40.0,65.0,51.0,29.0,65.0,1894.0,square2,i,0.0483,1,V,9.0
V9,41.0,44.0,57.0,50.0,38.0,57.0,1951.0,square2,i,0.0799,1,V,9.0
V9,42.0,40.0,57.0,49.0,33.0,57.0,2008.0,square2,i,0.001,1,V,9.0
V9,43.0,42.0,64.0,54.0,35.0,64.0,2072.0,square2,i,0.0153,1,V,9.0
V9,44.0,44.0,55.0,49.0,39.0,55.0,2127.0,square2,i,0.0888,1,V,9.0
V9,45.0,37.0,66.0,51.0,35.0,66.0,2193.0,square2,i,0.0565,1,V,9.0
V9,46.0,40.0,59.0,51.0,32.0,59.0,2252.0,square2,i,0.0025,1,V,9.0
V9,47.0,38.0,62.0,57.0,31.0,62.0,2314.0,square2,i,0.5885,1,V,9.0
V9,48.0,43.0,61.0,54.0,34.0,61.0,2375.0,square2,i,0.1384,1,V,9.0
V9,49.0,43.0,61.0,49.0,40.0,61.0,2436.0,square2,i,0.2937,1,V,9.0
V9,50.0,37.0,58.0,51.0,32.0,58.0,2494.0,square2,i,0.0794,1,V,9.0
V9,51.0,44.0,63.0,48.0,39.0,63.0,2557.0,square2,i,0.0289,1,V,9.0
V9,52.0,35.0,65.0,48.0,30.0,65.0,2622.0,square2,i,0.5133,1,V,9.0
V9,53.0,43.0,59.0,48.0,39.0,59.0,2681.0,square2,i,0.4813,1,V,9.0
V9,54.0,43.0,59.0,52.0,30.0,59.0,2740.0,square2,i,0.1644,1,V,9.0
V9,55.0,41.0,58.0,51.0,34.0,58.0,2798.0,square2,i,0.1005,1,V,9.0
V9,56.0,44.0,63.0,50.0,33.0,63.0,2861.0,square2,i,0.0711,1,V,9.0
V9,57.0,42.0,60.0,49.0,32.0,60.0,2921.0,square2,i,0.023,1,V,9.0
V9,58.0,44.0,62.0,57.0,30.0,62.0,2983.0,square2,i,0.0497,1,V,9.0
V9,59.0,45.0,61.0,45.0,31.0,61.0,3044.0,square2,i,0.0715,1,V,9.0
V9,60.0,43.0,63.0,53.0,33.0,63.0,3107.0,square2,i,0.0686,1,V,9.0
V9,61.0,39.0,56.0,55.0,31.0,56.0,3163.0,square2,i,0.0392,1,V,9.0
V9,62.0,39.0,61.0,50.0,34.0,61.0,3224.0,square2,i,0.4137,1,V,9.0
V9,63.0,44.0,57.0,48.0,36.0,57.0,3281.0,square2,i,0.4631,1,V,9.0
V9,64.0,40.0,60.0,58.0,35.0,60.0,3341.0,square2,i,0.1231,1,V,9.0
V9,65.0,42.0,60.0,54.0,38.0,60.0,3401.0,square2,i,0.046,1,V,9.0
V9,66.0,41.0,60.0,54.0,37.0,60.0,3461.0,square2,i,0.0466,1,V,9.0
V9,67.0,43.0,61.0,54.0,40.0,54.0,3515.0,square3,f,0.098,2,V,9.0
V9,68.0,45.0,40.0,26.0,18.0,45.0,3560.0,square1,j,0.0477,0,V,9.0
V9,69.0,50.0,41.0,29.0,20.0,20.0,3580.0,square4,r,0.0199,3,V,9.0
V9,70.0,43.0,36.0,27.0,15.0,36.0,3616.0,square2,i,0.0386,1,V,9.0
V9,71.0,44.0,40.0,28.0,18.0,28.0,3644.0,square3,f,0.2231,2,V,9.0
V9,72.0,42.0,38.0,27.0,18.0,42.0,3686.0,square1,j,0.3823,0,V,9.0
V9,73.0,46.0,33.0,25.0,19.0,19.0,3705.0,square4,r,0.0859,3,V,9.0
V9,74.0,47.0,40.0,28.0,20.0,47.0,3752.0,square1,j,0.0781,0,V,9.0
V9,75.0,39.0,39.0,27.0,25.0,27.0,3779.0,square3,f,0.0546,2,V,9.0
V9,76.0,50.0,31.0,29.0,23.0,31.0,3810.0,square2,i,0.0228,1,V,9.0
V9,77.0,44.0,37.0,28.0,13.0,13.0,3823.0,square4,r,0.0542,3,V,9.0
V9,78.0,43.0,36.0,23.0,17.0,43.0,3866.0,square1,j,0.0448,0,V,9.0
V9,79.0,42.0,36.0,28.0,24.0,42.0,3908.0,square1,j,0.4798,0,V,9.0
V9,80.0,47.0,35.0,30.0,14.0,47.0,3955.0,square1,j,0.0422,0,V,9.0
V9,81.0,46.0,33.0,29.0,18.0,46.0,4001.0,square1,j,0.1775,0,V,9.0
V9,82.0,46.0,35.0,28.0,18.0,46.0,4047.0,square1,j,0.0511,0,V,9.0
V9,83.0,47.0,41.0,32.0,15.0,47.0,4094.0,square1,j,0.0339,0,V,9.0
V9,84.0,45.0,38.0,31.0,18.0,45.0,4139.0,square1,j,0.0018,0,V,9.0
V9,85.0,42.0,35.0,30.0,21.0,42.0,4181.0,square1,j,0.0018,0,V,9.0
V9,86.0,49.0,39.0,23.0,18.0,49.0,4230.0,square1,j,0.5144,0,V,9.0
V9,87.0,49.0,39.0,27.0,16.0,49.0,4279.0,square1,j,0.1133,0,V,9.0
V9,88.0,45.0,38.0,25.0,14.0,45.0,4324.0,square1,j,0.0191,0,V,9.0
V9,89.0,45.0,32.0,28.0,19.0,45.0,4369.0,square1,j,0.0033,0,V,9.0
V9,90.0,44.0,35.0,29.0,20.0,44.0,4413.0,square1,j,0.035,0,V,9.0
V9,91.0,42.0,38.0,32.0,16.0,42.0,4455.0,square1,j,0.0236,0,V,9.0
V9,92.0,45.0,36.0,23.0,20.0,20.0,4475.0,square4,r,0.1153,3,V,9.0
V9,93.0,45.0,35.0,26.0,18.0,35.0,4510.0,square2,i,0.0409,1,V,9.0
V9,94.0,44.0,37.0,27.0,13.0,27.0,4537.0,square3,f,0.0651,2,V,9.0
V9,95.0,46.0,36.0,25.0,20.0,46.0,4583.0,square1,j,0.0065,0,V,9.0
V9,96.0,43.0,39.0,27.0,16.0,43.0,4626.0,square1,j,0.0308,0,V,9.0
V9,97.0,48.0,39.0,30.0,16.0,48.0,4674.0,square1,j,0.0561,0,V,9.0
V9,98.0,49.0,40.0,26.0,20.0,49.0,4723.0,square1,j,0.0544,0,V,9.0
V9,99.0,49.0,41.0,27.0,18.0,49.0,4772.0,square1,j,0.5636,0,V,9.0
NS10,0.0,61.0,42.0,19.0,80.0,61.0,61.0,square1,r,1.2828,0,N,10.0
NS10,1.0,62.0,41.0,25.0,78.0,78.0,139.0,square4,i,0.167,3,N,10.0
NS10,2.0,64.0,42.0,22.0,80.0,22.0,161.0,square3,j,0.1835,2,N,10.0
NS10,3.0,66.0,50.0,21.0,73.0,50.0,211.0,square2,f,0.0514,1,N,10.0
NS10,4.0,65.0,48.0,19.0,80.0,80.0,291.0,square4,i,0.0335,3,N,10.0
NS10,5.0,66.0,48.0,23.0,75.0,75.0,366.0,square4,i,0.0011,3,N,10.0
NS10,6.0,60.0,47.0,26.0,77.0,77.0,443.0,square4,i,0.0953,3,N,10.0
NS10,7.0,66.0,43.0,25.0,81.0,81.0,524.0,square4,i,0.3948,3,N,10.0
NS10,8.0,72.0,42.0,23.0,80.0,80.0,604.0,square4,i,0.1873,3,N,10.0
NS10,9.0,66.0,45.0,21.0,81.0,81.0,685.0,square4,i,0.1167,3,N,10.0
NS10,10.0,69.0,46.0,29.0,77.0,77.0,762.0,square4,i,0.0621,3,N,10.0
NS10,11.0,68.0,44.0,27.0,70.0,70.0,832.0,square4,i,0.0572,3,N,10.0
NS10,12.0,68.0,46.0,27.0,65.0,65.0,897.0,square4,i,0.092,3,N,10.0
NS10,13.0,67.0,50.0,23.0,65.0,67.0,964.0,square1,r,0.1022,0,N,10.0
NS10,14.0,67.0,49.0,31.0,61.0,49.0,1013.0,square2,f,0.0507,1,N,10.0
NS10,15.0,71.0,51.0,28.0,69.0,28.0,1041.0,square3,j,0.0354,2,N,10.0
NS10,16.0,71.0,48.0,25.0,64.0,71.0,1112.0,square1,r,0.0451,0,N,10.0
NS10,17.0,68.0,48.0,25.0,60.0,60.0,1172.0,square4,i,0.0948,3,N,10.0
NS10,18.0,68.0,49.0,23.0,66.0,68.0,1240.0,square1,r,0.0208,0,N,10.0
NS10,19.0,67.0,51.0,23.0,64.0,67.0,1307.0,square1,r,0.0579,0,N,10.0
NS10,20.0,65.0,54.0,29.0,58.0,65.0,1372.0,square1,r,0.0389,0,N,10.0
NS10,21.0,61.0,58.0,22.0,61.0,61.0,1433.0,square1,r,0.0008,0,N,10.0
NS10,22.0,67.0,51.0,23.0,60.0,67.0,1500.0,square1,r,0.0338,0,N,10.0
NS10,23.0,65.0,57.0,22.0,60.0,65.0,1565.0,square1,r,0.4666,0,N,10.0
NS10,24.0,67.0,58.0,26.0,56.0,67.0,1632.0,square1,r,0.0892,0,N,10.0
NS10,25.0,70.0,67.0,26.0,60.0,70.0,1702.0,square1,r,0.0204,0,N,10.0
NS10,26.0,71.0,58.0,24.0,55.0,58.0,1760.0,square2,f,0.0375,1,N,10.0
NS10,27.0,74.0,57.0,24.0,59.0,74.0,1834.0,square1,r,0.001,0,N,10.0
NS10,28.0,76.0,62.0,24.0,56.0,76.0,1910.0,square1,r,0.1508,0,N,10.0
NS10,29.0,78.0,66.0,21.0,61.0,78.0,1988.0,square1,r,0.001,0,N,10.0
NS10,30.0,74.0,62.0,20.0,52.0,74.0,2062.0,square1,r,0.0442,0,N,10.0
NS10,31.0,74.0,63.0,21.0,53.0,74.0,2136.0,square1,r,0.4343,0,N,10.0
NS10,32.0,77.0,62.0,19.0,50.0,77.0,2213.0,square1,r,0.4725,0,N,10.0
NS10,33.0,74.0,63.0,21.0,50.0,74.0,2287.0,square1,r,0.1072,0,N,10.0
NS10,34.0,69.0,64.0,16.0,47.0,69.0,2356.0,square1,r,0.0667,0,N,10.0
NS10,35.0,68.0,60.0,14.0,51.0,68.0,2424.0,square1,r,0.0284,0,N,10.0
NS10,36.0,76.0,59.0,13.0,52.0,76.0,2500.0,square1,r,0.0057,0,N,10.0
NS10,37.0,71.0,60.0,16.0,50.0,71.0,2571.0,square1,r,0.1173,0,N,10.0
NS10,38.0,70.0,56.0,27.0,49.0,27.0,2598.0,square3,j,0.1351,2,N,10.0
NS10,39.0,75.0,59.0,22.0,49.0,75.0,2673.0,square1,r,0.074,0,N,10.0
NS10,40.0,70.0,56.0,27.0,51.0,70.0,2743.0,square1,r,0.0339,0,N,10.0
NS10,41.0,73.0,57.0,24.0,54.0,73.0,2816.0,square1,r,0.4551,0,N,10.0
NS10,42.0,70.0,58.0,24.0,51.0,70.0,2886.0,square1,r,0.1586,0,N,10.0
NS10,43.0,70.0,60.0,26.0,45.0,70.0,2956.0,square1,r,0.0334,0,N,10.0
NS10,44.0,68.0,58.0,27.0,53.0,53.0,3009.0,square4,i,0.1167,3,N,10.0
NS10,45.0,70.0,61.0,31.0,49.0,70.0,3079.0,square1,r,0.0252,0,N,10.0
NS10,46.0,65.0,60.0,29.0,43.0,60.0,3139.0,square2,f,0.1118,1,N,10.0
NS10,47.0,65.0,61.0,32.0,44.0,65.0,3204.0,square1,r,0.0833,0,N,10.0
NS10,48.0,67.0,58.0,31.0,46.0,58.0,3262.0,square2,f,0.0839,1,N,10.0
NS10,49.0,76.0,55.0,38.0,43.0,76.0,3338.0,square1,r,0.0009,0,N,10.0
NS10,50.0,74.0,65.0,36.0,40.0,74.0,3412.0,square1,r,0.0503,0,N,10.0
NS10,51.0,74.0,58.0,34.0,40.0,74.0,3486.0,square1,r,0.1424,0,N,10.0
NS10,52.0,69.0,65.0,28.0,43.0,69.0,3555.0,square1,r,0.1069,0,N,10.0
NS10,53.0,69.0,65.0,32.0,40.0,69.0,3624.0,square1,r,0.0531,0,N,10.0
NS10,54.0,72.0,61.0,32.0,41.0,72.0,3696.0,square1,r,0.0011,0,N,10.0
NS10,55.0,65.0,64.0,36.0,33.0,65.0,3761.0,square1,r,0.0671,0,N,10.0
NS10,56.0,75.0,64.0,37.0,37.0,75.0,3836.0,square1,r,0.3859,0,N,10.0
NS10,57.0,72.0,62.0,36.0,38.0,72.0,3908.0,square1,r,0.0504,0,N,10.0
NS10,58.0,63.0,68.0,38.0,33.0,63.0,3971.0,square1,r,0.1505,0,N,10.0
NS10,59.0,65.0,64.0,43.0,34.0,64.0,4035.0,square2,f,0.0311,1,N,10.0
NS10,60.0,62.0,64.0,51.0,40.0,62.0,4097.0,square1,r,0.0838,0,N,10.0
NS10,61.0,61.0,65.0,45.0,38.0,65.0,4162.0,square2,f,0.0167,1,N,10.0
NS10,62.0,66.0,63.0,41.0,37.0,63.0,4225.0,square2,f,0.0838,1,N,10.0
NS10,63.0,67.0,62.0,45.0,41.0,45.0,4270.0,square3,j,0.0837,2,N,10.0
NS10,64.0,72.0,60.0,44.0,36.0,36.0,4306.0,square4,i,0.0537,3,N,10.0
NS10,65.0,73.0,65.0,42.0,39.0,65.0,4371.0,square2,f,0.1064,1,N,10.0
NS10,66.0,72.0,67.0,45.0,43.0,72.0,4443.0,square1,r,0.3842,0,N,10.0
NS10,67.0,66.0,70.0,44.0,40.0,66.0,4509.0,square1,r,0.0937,0,N,10.0
NS10,68.0,61.0,69.0,45.0,44.0,61.0,4570.0,square1,r,0.1197,0,N,10.0
NS10,69.0,64.0,68.0,42.0,43.0,68.0,4638.0,square2,f,0.0961,1,N,10.0
NS10,70.0,66.0,72.0,41.0,42.0,72.0,4710.0,square2,f,0.0172,1,N,10.0
NS10,71.0,64.0,72.0,46.0,45.0,72.0,4782.0,square2,f,0.0496,1,N,10.0
NS10,72.0,64.0,69.0,44.0,39.0,69.0,4851.0,square2,f,0.0433,1,N,10.0
NS10,73.0,60.0,74.0,48.0,45.0,74.0,4925.0,square2,f,0.0275,1,N,10.0
NS10,74.0,57.0,75.0,48.0,41.0,75.0,5000.0,square2,f,0.0405,1,N,10.0
NS10,75.0,66.0,75.0,46.0,40.0,75.0,5075.0,square2,f,0.3879,1,N,10.0
NS10,76.0,63.0,77.0,46.0,40.0,77.0,5152.0,square2,f,0.084,1,N,10.0
NS10,77.0,62.0,74.0,43.0,34.0,74.0,5226.0,square2,f,0.0409,1,N,10.0
NS10,78.0,60.0,71.0,48.0,33.0,71.0,5297.0,square2,f,0.3282,1,N,10.0
NS10,79.0,63.0,68.0,47.0,29.0,68.0,5365.0,square2,f,0.1919,1,N,10.0
NS10,80.0,54.0,71.0,42.0,32.0,71.0,5436.0,square2,f,0.1278,1,N,10.0
NS10,81.0,52.0,72.0,44.0,30.0,72.0,5508.0,square2,f,0.1011,1,N,10.0
NS10,82.0,51.0,77.0,41.0,31.0,77.0,5585.0,square2,f,0.0672,1,N,10.0
NS10,83.0,52.0,63.0,41.0,35.0,63.0,5648.0,square2,f,0.1078,1,N,10.0
NS10,84.0,48.0,70.0,37.0,34.0,37.0,5685.0,square3,j,0.1265,2,N,10.0
NS10,85.0,51.0,73.0,38.0,30.0,73.0,5758.0,square2,f,0.3451,1,N,10.0
NS10,86.0,55.0,79.0,45.0,27.0,79.0,5837.0,square2,f,0.1735,1,N,10.0
NS10,87.0,54.0,83.0,47.0,21.0,83.0,5920.0,square2,f,0.0011,1,N,10.0
NS10,88.0,59.0,78.0,45.0,21.0,78.0,5998.0,square2,f,0.2103,1,N,10.0
NS10,89.0,60.0,74.0,45.0,21.0,74.0,6072.0,square2,f,0.14,1,N,10.0
NS10,90.0,55.0,71.0,50.0,18.0,71.0,6143.0,square2,f,0.1507,1,N,10.0
NS10,91.0,56.0,71.0,46.0,14.0,71.0,6214.0,square2,f,0.1607,1,N,10.0
NS10,92.0,59.0,70.0,46.0,20.0,70.0,6284.0,square2,f,0.0935,1,N,10.0
NS10,93.0,65.0,72.0,46.0,21.0,72.0,6356.0,square2,f,0.0894,1,N,10.0
NS10,94.0,63.0,68.0,46.0,20.0,68.0,6424.0,square2,f,0.1568,1,N,10.0
NS10,95.0,69.0,70.0,48.0,22.0,70.0,6494.0,square2,f,0.1362,1,N,10.0
NS10,96.0,68.0,69.0,45.0,27.0,69.0,6563.0,square2,f,0.0874,1,N,10.0
NS10,97.0,74.0,69.0,43.0,35.0,69.0,6632.0,square2,f,0.1346,1,N,10.0
NS10,98.0,73.0,68.0,43.0,30.0,68.0,6700.0,square2,f,0.2011,1,N,10.0
NS10,99.0,70.0,61.0,39.0,32.0,61.0,6761.0,square2,f,1.1161,1,N,10.0
NS12,0.0,80.0,24.0,40.0,79.0,80.0,80.0,square1,j,0.5925,0,N,12.0
NS12,1.0,78.0,28.0,44.0,78.0,78.0,158.0,square4,f,0.0675,3,N,12.0
NS12,2.0,77.0,28.0,37.0,82.0,37.0,195.0,square3,i,0.0169,2,N,12.0
NS12,3.0,76.0,33.0,39.0,82.0,33.0,228.0,square2,r,0.0045,1,N,12.0
NS12,4.0,79.0,37.0,34.0,78.0,78.0,306.0,square4,f,0.0568,3,N,12.0
NS12,5.0,83.0,33.0,28.0,81.0,83.0,389.0,square1,j,0.0507,0,N,12.0
NS12,6.0,77.0,39.0,33.0,80.0,77.0,466.0,square1,j,0.0671,0,N,12.0
NS12,7.0,77.0,40.0,25.0,85.0,85.0,551.0,square4,f,0.0505,3,N,12.0
NS12,8.0,77.0,40.0,29.0,87.0,87.0,638.0,square4,f,0.1704,3,N,12.0
NS12,9.0,70.0,42.0,29.0,88.0,70.0,708.0,square1,j,0.0045,0,N,12.0
NS12,10.0,65.0,47.0,31.0,86.0,86.0,794.0,square4,f,0.0011,3,N,12.0
NS12,11.0,67.0,46.0,26.0,84.0,84.0,878.0,square4,f,0.0507,3,N,12.0
NS12,12.0,67.0,36.0,26.0,84.0,84.0,962.0,square4,f,0.0013,3,N,12.0
NS12,13.0,69.0,33.0,23.0,82.0,82.0,1044.0,square4,f,0.4233,3,N,12.0
NS12,14.0,66.0,35.0,20.0,81.0,81.0,1125.0,square4,f,0.1287,3,N,12.0
NS12,15.0,66.0,30.0,23.0,78.0,78.0,1203.0,square4,f,0.0503,3,N,12.0
NS12,16.0,69.0,28.0,17.0,74.0,74.0,1277.0,square4,f,0.0509,3,N,12.0
NS12,17.0,66.0,32.0,20.0,78.0,20.0,1297.0,square3,i,0.056,2,N,12.0
NS12,18.0,60.0,33.0,26.0,76.0,33.0,1330.0,square2,r,0.4236,1,N,12.0
NS12,19.0,63.0,37.0,23.0,76.0,63.0,1393.0,square1,j,0.0886,0,N,12.0
NS12,20.0,59.0,36.0,24.0,78.0,78.0,1471.0,square4,f,0.1011,3,N,12.0
NS12,21.0,59.0,35.0,25.0,79.0,79.0,1550.0,square4,f,0.067,3,N,12.0
NS12,22.0,61.0,37.0,26.0,88.0,88.0,1638.0,square4,f,0.0163,3,N,12.0
NS12,23.0,61.0,37.0,25.0,83.0,83.0,1721.0,square4,f,0.1007,3,N,12.0
NS12,24.0,61.0,39.0,26.0,85.0,85.0,1806.0,square4,f,0.0164,3,N,12.0
NS12,25.0,63.0,30.0,29.0,77.0,77.0,1883.0,square4,f,0.05,3,N,12.0
NS12,26.0,58.0,39.0,29.0,83.0,83.0,1966.0,square4,f,0.0581,3,N,12.0
NS12,27.0,60.0,34.0,32.0,85.0,85.0,2051.0,square4,f,0.0676,3,N,12.0
NS12,28.0,63.0,32.0,35.0,77.0,77.0,2128.0,square4,f,0.0336,3,N,12.0
NS12,29.0,61.0,35.0,23.0,79.0,79.0,2207.0,square4,f,0.0504,3,N,12.0
NS12,30.0,57.0,27.0,30.0,69.0,69.0,2276.0,square4,f,0.0334,3,N,12.0
NS12,31.0,64.0,29.0,26.0,69.0,64.0,2340.0,square1,j,0.2758,0,N,12.0
NS12,32.0,65.0,29.0,33.0,69.0,29.0,2369.0,square2,r,0.1071,1,N,12.0
NS12,33.0,68.0,29.0,33.0,73.0,33.0,2402.0,square3,i,0.0676,2,N,12.0
NS12,34.0,69.0,29.0,29.0,67.0,67.0,2469.0,square4,f,0.0677,3,N,12.0
NS12,35.0,66.0,32.0,30.0,61.0,66.0,2535.0,square1,j,0.0045,0,N,12.0
NS12,36.0,64.0,27.0,26.0,58.0,58.0,2593.0,square4,f,0.1341,3,N,12.0
NS12,37.0,65.0,32.0,27.0,67.0,65.0,2658.0,square1,j,0.0011,0,N,12.0
NS12,38.0,63.0,32.0,30.0,64.0,30.0,2688.0,square3,i,0.039,2,N,12.0
NS12,39.0,65.0,30.0,30.0,70.0,30.0,2718.0,square2,r,0.0192,1,N,12.0
NS12,40.0,71.0,37.0,32.0,69.0,71.0,2789.0,square1,j,0.0534,0,N,12.0
NS12,41.0,66.0,45.0,37.0,69.0,66.0,2855.0,square1,j,0.0043,0,N,12.0
NS12,42.0,75.0,42.0,35.0,65.0,75.0,2930.0,square1,j,0.009,0,N,12.0
NS12,43.0,82.0,39.0,35.0,57.0,82.0,3012.0,square1,j,0.0605,0,N,12.0
NS12,44.0,81.0,34.0,34.0,61.0,81.0,3093.0,square1,j,0.1287,0,N,12.0
NS12,45.0,74.0,33.0,36.0,59.0,74.0,3167.0,square1,j,0.0232,0,N,12.0
NS12,46.0,77.0,32.0,40.0,57.0,77.0,3244.0,square1,j,0.0173,0,N,12.0
NS12,47.0,79.0,32.0,39.0,60.0,79.0,3323.0,square1,j,0.5184,0,N,12.0
NS12,48.0,80.0,28.0,34.0,62.0,80.0,3403.0,square1,j,0.1181,0,N,12.0
NS12,49.0,76.0,23.0,37.0,64.0,76.0,3479.0,square1,j,0.0243,0,N,12.0
NS12,50.0,75.0,25.0,37.0,65.0,75.0,3554.0,square1,j,0.1874,0,N,12.0
NS12,51.0,74.0,25.0,39.0,70.0,74.0,3628.0,square1,j,0.0671,0,N,12.0
NS12,52.0,79.0,26.0,40.0,73.0,79.0,3707.0,square1,j,0.1112,0,N,12.0
NS12,53.0,75.0,25.0,33.0,69.0,75.0,3782.0,square1,j,0.0725,0,N,12.0
NS12,54.0,79.0,25.0,38.0,68.0,79.0,3861.0,square1,j,0.0774,0,N,12.0
NS12,55.0,81.0,22.0,34.0,68.0,81.0,3942.0,square1,j,0.0836,0,N,12.0
NS12,56.0,72.0,29.0,39.0,69.0,72.0,4014.0,square1,j,0.0278,0,N,12.0
NS12,57.0,72.0,28.0,38.0,73.0,72.0,4086.0,square1,j,0.051,0,N,12.0
NS12,58.0,69.0,25.0,32.0,71.0,69.0,4155.0,square1,j,0.0904,0,N,12.0
NS12,59.0,75.0,30.0,33.0,69.0,33.0,4188.0,square3,i,0.1376,2,N,12.0
NS12,60.0,68.0,28.0,39.0,68.0,28.0,4216.0,square2,r,0.0675,1,N,12.0
NS12,61.0,69.0,32.0,37.0,60.0,60.0,4276.0,square4,f,0.0676,3,N,12.0
NS12,62.0,63.0,37.0,39.0,55.0,63.0,4339.0,square1,j,0.2838,0,N,12.0
NS12,63.0,63.0,38.0,43.0,54.0,54.0,4393.0,square4,f,0.0836,3,N,12.0
NS12,64.0,60.0,30.0,35.0,55.0,60.0,4453.0,square1,j,0.0009,0,N,12.0
NS12,65.0,60.0,37.0,34.0,55.0,34.0,4487.0,square3,i,0.0557,2,N,12.0
NS12,66.0,61.0,40.0,35.0,51.0,40.0,4527.0,square2,r,0.0043,1,N,12.0
NS12,67.0,65.0,37.0,35.0,53.0,65.0,4592.0,square1,j,0.0348,0,N,12.0
NS12,68.0,62.0,33.0,38.0,50.0,62.0,4654.0,square1,j,0.0339,0,N,12.0
NS12,69.0,56.0,41.0,29.0,54.0,56.0,4710.0,square1,j,0.034,0,N,12.0
NS12,70.0,56.0,39.0,30.0,57.0,57.0,4767.0,square4,f,0.0678,3,N,12.0
NS12,71.0,61.0,40.0,33.0,64.0,64.0,4831.0,square4,f,0.0416,3,N,12.0
NS12,72.0,51.0,42.0,35.0,67.0,67.0,4898.0,square4,f,0.102,3,N,12.0
NS12,73.0,56.0,39.0,39.0,67.0,67.0,4965.0,square4,f,0.0174,3,N,12.0
NS12,74.0,50.0,38.0,40.0,63.0,63.0,5028.0,square4,f,0.0504,3,N,12.0
NS12,75.0,52.0,37.0,41.0,67.0,67.0,5095.0,square4,f,0.0454,3,N,12.0
NS12,76.0,47.0,40.0,46.0,67.0,67.0,5162.0,square4,f,0.0878,3,N,12.0
NS12,77.0,45.0,35.0,47.0,67.0,67.0,5229.0,square4,f,0.0171,3,N,12.0
NS12,78.0,44.0,38.0,52.0,66.0,66.0,5295.0,square4,f,0.0506,3,N,12.0
NS12,79.0,41.0,38.0,52.0,64.0,64.0,5359.0,square4,f,0.0255,3,N,12.0
NS12,80.0,36.0,41.0,57.0,58.0,36.0,5395.0,square1,j,0.0011,0,N,12.0
NS12,81.0,36.0,42.0,66.0,63.0,42.0,5437.0,square2,r,0.0329,1,N,12.0
NS12,82.0,35.0,44.0,65.0,62.0,65.0,5502.0,square3,i,0.0331,2,N,12.0
NS12,83.0,37.0,42.0,70.0,65.0,70.0,5572.0,square3,i,0.0487,2,N,12.0
NS12,84.0,35.0,39.0,72.0,58.0,72.0,5644.0,square3,i,0.0679,2,N,12.0
NS12,85.0,30.0,40.0,62.0,55.0,62.0,5706.0,square3,i,0.001,2,N,12.0
NS12,86.0,36.0,40.0,65.0,59.0,65.0,5771.0,square3,i,0.4003,2,N,12.0
NS12,87.0,31.0,41.0,67.0,57.0,67.0,5838.0,square3,i,0.3013,2,N,12.0
NS12,88.0,30.0,50.0,67.0,52.0,67.0,5905.0,square3,i,0.0447,2,N,12.0
NS12,89.0,28.0,41.0,69.0,54.0,69.0,5974.0,square3,i,0.017,2,N,12.0
NS12,90.0,29.0,41.0,61.0,57.0,57.0,6031.0,square4,f,0.1039,3,N,12.0
NS12,91.0,30.0,36.0,59.0,54.0,59.0,6090.0,square3,i,0.0109,2,N,12.0
NS12,92.0,28.0,29.0,60.0,54.0,60.0,6150.0,square3,i,0.018,2,N,12.0
NS12,93.0,30.0,35.0,62.0,52.0,62.0,6212.0,square3,i,0.0382,2,N,12.0
NS12,94.0,30.0,36.0,60.0,56.0,60.0,6272.0,square3,i,0.0929,2,N,12.0
NS12,95.0,29.0,33.0,63.0,60.0,63.0,6335.0,square3,i,0.078,2,N,12.0
NS12,96.0,29.0,30.0,59.0,59.0,59.0,6394.0,square3,i,0.018,2,N,12.0
NS12,97.0,31.0,35.0,61.0,61.0,61.0,6455.0,square3,i,0.0501,2,N,12.0
NS12,98.0,31.0,40.0,67.0,58.0,67.0,6522.0,square3,i,0.1009,2,N,12.0
NS12,99.0,33.0,37.0,65.0,67.0,65.0,6587.0,square3,i,0.1341,2,N,12.0
NS1,0.0,60.0,65.0,21.0,53.0,21.0,21.0,square3,r,1.0004,2,N,1.0
NS1,1.0,56.0,62.0,31.0,51.0,56.0,77.0,square1,i,0.0848,0,N,1.0
NS1,2.0,58.0,62.0,24.0,57.0,62.0,139.0,square2,f,0.0216,1,N,1.0
NS1,3.0,56.0,58.0,33.0,58.0,58.0,197.0,square4,j,0.0546,3,N,1.0
NS1,4.0,60.0,58.0,32.0,58.0,58.0,255.0,square2,f,0.0501,1,N,1.0
NS1,5.0,56.0,59.0,31.0,54.0,54.0,309.0,square4,j,0.055,3,N,1.0
NS1,6.0,58.0,57.0,37.0,56.0,58.0,367.0,square1,i,0.0455,0,N,1.0
NS1,7.0,57.0,53.0,37.0,57.0,53.0,420.0,square2,f,0.018,1,N,1.0
NS1,8.0,58.0,57.0,37.0,54.0,58.0,478.0,square1,i,0.0674,0,N,1.0
NS1,9.0,53.0,50.0,36.0,55.0,55.0,533.0,square4,j,0.5007,3,N,1.0
NS1,10.0,58.0,47.0,32.0,53.0,58.0,591.0,square1,i,0.0879,0,N,1.0
NS1,11.0,55.0,44.0,34.0,53.0,55.0,646.0,square1,i,0.4333,0,N,1.0
NS1,12.0,56.0,44.0,30.0,45.0,56.0,702.0,square1,i,0.1667,0,N,1.0
NS1,13.0,60.0,47.0,34.0,48.0,48.0,750.0,square4,j,0.0841,3,N,1.0
NS1,14.0,54.0,48.0,37.0,54.0,54.0,804.0,square1,i,0.0178,0,N,1.0
NS1,15.0,53.0,44.0,35.0,51.0,44.0,848.0,square2,f,0.0009,1,N,1.0
NS1,16.0,50.0,50.0,35.0,43.0,35.0,883.0,square3,r,0.3372,2,N,1.0
NS1,17.0,53.0,46.0,35.0,44.0,53.0,936.0,square1,i,0.0447,0,N,1.0
NS1,18.0,54.0,51.0,42.0,48.0,54.0,990.0,square1,i,0.0666,0,N,1.0
NS1,19.0,62.0,51.0,44.0,53.0,62.0,1052.0,square1,i,0.0171,0,N,1.0
NS1,20.0,63.0,47.0,42.0,47.0,63.0,1115.0,square1,i,0.0387,0,N,1.0
NS1,21.0,67.0,51.0,41.0,46.0,67.0,1182.0,square1,i,0.0042,0,N,1.0
NS1,22.0,75.0,44.0,45.0,43.0,75.0,1257.0,square1,i,0.001,0,N,1.0
NS1,23.0,64.0,42.0,41.0,47.0,64.0,1321.0,square1,i,0.1185,0,N,1.0
NS1,24.0,68.0,41.0,39.0,49.0,68.0,1389.0,square1,i,0.0721,0,N,1.0
NS1,25.0,71.0,43.0,33.0,42.0,71.0,1460.0,square1,i,0.0838,0,N,1.0
NS1,26.0,70.0,41.0,26.0,45.0,70.0,1530.0,square1,i,0.0009,0,N,1.0
NS1,27.0,72.0,42.0,34.0,48.0,72.0,1602.0,square1,i,0.1109,0,N,1.0
NS1,28.0,71.0,41.0,33.0,45.0,71.0,1673.0,square1,i,0.034,0,N,1.0
NS1,29.0,77.0,42.0,31.0,48.0,77.0,1750.0,square1,i,0.3258,0,N,1.0
NS1,30.0,73.0,41.0,33.0,51.0,73.0,1823.0,square1,i,0.0555,0,N,1.0
NS1,31.0,71.0,44.0,35.0,48.0,71.0,1894.0,square1,i,0.0231,0,N,1.0
NS1,32.0,81.0,47.0,33.0,50.0,81.0,1975.0,square1,i,0.0008,0,N,1.0
NS1,33.0,75.0,50.0,27.0,42.0,75.0,2050.0,square1,i,0.0605,0,N,1.0
NS1,34.0,71.0,49.0,27.0,44.0,71.0,2121.0,square1,i,0.0185,0,N,1.0
NS1,35.0,69.0,47.0,23.0,47.0,69.0,2190.0,square1,i,0.0007,0,N,1.0
NS1,36.0,71.0,50.0,32.0,45.0,71.0,2261.0,square1,i,0.1018,0,N,1.0
NS1,37.0,66.0,48.0,33.0,52.0,66.0,2327.0,square1,i,0.0046,0,N,1.0
NS1,38.0,64.0,50.0,34.0,51.0,64.0,2391.0,square1,i,0.0173,0,N,1.0
NS1,39.0,65.0,49.0,25.0,47.0,65.0,2456.0,square1,i,0.0342,0,N,1.0
NS1,40.0,66.0,46.0,23.0,50.0,66.0,2522.0,square1,i,0.5083,0,N,1.0
NS1,41.0,68.0,45.0,22.0,50.0,68.0,2590.0,square1,i,0.4169,0,N,1.0
NS1,42.0,74.0,41.0,28.0,50.0,74.0,2664.0,square1,i,0.1352,0,N,1.0
NS1,43.0,69.0,42.0,27.0,52.0,69.0,2733.0,square1,i,0.0336,0,N,1.0
NS1,44.0,71.0,38.0,32.0,49.0,71.0,2804.0,square1,i,0.1009,0,N,1.0
NS1,45.0,68.0,38.0,30.0,55.0,68.0,2872.0,square1,i,0.067,0,N,1.0
NS1,46.0,66.0,39.0,30.0,56.0,66.0,2938.0,square1,i,0.0017,0,N,1.0
NS1,47.0,62.0,35.0,31.0,50.0,62.0,3000.0,square1,i,0.0667,0,N,1.0
NS1,48.0,68.0,31.0,32.0,49.0,68.0,3068.0,square1,i,0.4002,0,N,1.0
NS1,49.0,66.0,33.0,35.0,46.0,66.0,3134.0,square1,i,0.0442,0,N,1.0
NS1,50.0,64.0,30.0,32.0,46.0,30.0,3164.0,square2,f,0.0418,1,N,1.0
NS1,51.0,66.0,35.0,39.0,43.0,39.0,3203.0,square3,r,0.0833,2,N,1.0
NS1,52.0,67.0,33.0,37.0,49.0,49.0,3252.0,square4,j,0.0671,3,N,1.0
NS1,53.0,70.0,32.0,35.0,47.0,70.0,3322.0,square1,i,0.3922,0,N,1.0
NS1,54.0,62.0,40.0,28.0,43.0,62.0,3384.0,square1,i,0.0395,0,N,1.0
NS1,55.0,66.0,39.0,26.0,43.0,66.0,3450.0,square1,i,0.0507,0,N,1.0
NS1,56.0,64.0,38.0,26.0,44.0,64.0,3514.0,square1,i,0.0504,0,N,1.0
NS1,57.0,63.0,41.0,24.0,48.0,63.0,3577.0,square1,i,0.6832,0,N,1.0
NS1,58.0,67.0,49.0,24.0,48.0,67.0,3644.0,square1,i,0.1016,0,N,1.0
NS1,59.0,57.0,51.0,27.0,43.0,57.0,3701.0,square1,i,0.0505,0,N,1.0
NS1,60.0,56.0,51.0,31.0,42.0,56.0,3757.0,square1,i,0.243,0,N,1.0
NS1,61.0,55.0,50.0,25.0,49.0,49.0,3806.0,square4,j,0.1165,3,N,1.0
NS1,62.0,55.0,51.0,27.0,50.0,51.0,3857.0,square2,f,0.0673,1,N,1.0
NS1,63.0,53.0,51.0,27.0,50.0,27.0,3884.0,square3,r,0.1009,2,N,1.0
NS1,64.0,53.0,56.0,27.0,50.0,53.0,3937.0,square1,i,0.0674,0,N,1.0
NS1,65.0,49.0,56.0,26.0,49.0,56.0,3993.0,square2,f,0.0672,1,N,1.0
NS1,66.0,47.0,61.0,29.0,50.0,61.0,4054.0,square2,f,0.0508,1,N,1.0
NS1,67.0,47.0,56.0,27.0,50.0,56.0,4110.0,square2,f,0.0338,1,N,1.0
NS1,68.0,47.0,64.0,29.0,48.0,64.0,4174.0,square2,f,0.0851,1,N,1.0
NS1,69.0,54.0,67.0,24.0,53.0,67.0,4241.0,square2,f,0.0671,1,N,1.0
NS1,70.0,44.0,70.0,21.0,48.0,70.0,4311.0,square2,f,0.407,1,N,1.0
NS1,71.0,45.0,67.0,26.0,52.0,67.0,4378.0,square2,f,0.1082,1,N,1.0
NS1,72.0,44.0,64.0,22.0,49.0,64.0,4442.0,square2,f,0.0554,1,N,1.0
NS1,73.0,43.0,60.0,23.0,51.0,60.0,4502.0,square2,f,0.0494,1,N,1.0
NS1,74.0,47.0,59.0,26.0,57.0,59.0,4561.0,square2,f,0.0352,1,N,1.0
NS1,75.0,44.0,56.0,27.0,51.0,51.0,4612.0,square4,j,0.0174,3,N,1.0
NS1,76.0,34.0,55.0,21.0,52.0,55.0,4667.0,square2,f,0.1038,1,N,1.0
NS1,77.0,39.0,64.0,17.0,55.0,39.0,4706.0,square1,i,0.001,0,N,1.0
NS1,78.0,38.0,64.0,25.0,52.0,25.0,4731.0,square3,r,0.0505,2,N,1.0
NS1,79.0,40.0,65.0,24.0,54.0,65.0,4796.0,square2,f,0.0209,1,N,1.0
NS1,80.0,44.0,66.0,21.0,53.0,66.0,4862.0,square2,f,0.067,1,N,1.0
NS1,81.0,50.0,60.0,27.0,54.0,60.0,4922.0,square2,f,0.0876,1,N,1.0
NS1,82.0,43.0,62.0,20.0,57.0,62.0,4984.0,square2,f,0.0893,1,N,1.0
NS1,83.0,44.0,55.0,24.0,59.0,55.0,5039.0,square2,f,0.0008,1,N,1.0
NS1,84.0,41.0,51.0,28.0,61.0,51.0,5090.0,square2,f,0.0668,1,N,1.0
NS1,85.0,49.0,49.0,29.0,70.0,49.0,5139.0,square1,i,0.0175,0,N,1.0
NS1,86.0,47.0,44.0,26.0,66.0,44.0,5183.0,square2,f,0.0507,1,N,1.0
NS1,87.0,48.0,48.0,23.0,68.0,48.0,5231.0,square1,i,0.0175,0,N,1.0
NS1,88.0,46.0,51.0,20.0,70.0,70.0,5301.0,square4,j,0.0012,3,N,1.0
NS1,89.0,45.0,50.0,17.0,75.0,45.0,5346.0,square1,i,0.1512,0,N,1.0
NS1,90.0,50.0,48.0,18.0,74.0,74.0,5420.0,square4,j,0.0355,3,N,1.0
NS1,91.0,46.0,53.0,17.0,67.0,67.0,5487.0,square4,j,0.0492,3,N,1.0
NS1,92.0,38.0,56.0,22.0,65.0,65.0,5552.0,square4,j,0.1096,3,N,1.0
NS1,93.0,38.0,53.0,22.0,66.0,66.0,5618.0,square4,j,0.0227,3,N,1.0
NS1,94.0,42.0,49.0,24.0,72.0,72.0,5690.0,square4,j,0.072,3,N,1.0
NS1,95.0,44.0,48.0,25.0,70.0,70.0,5760.0,square4,j,0.0691,3,N,1.0
NS1,96.0,35.0,50.0,21.0,67.0,67.0,5827.0,square4,j,0.1571,3,N,1.0
NS1,97.0,43.0,55.0,16.0,72.0,72.0,5899.0,square4,j,0.1836,3,N,1.0
NS1,98.0,46.0,50.0,21.0,73.0,73.0,5972.0,square4,j,0.1836,3,N,1.0
NS1,99.0,43.0,46.0,27.0,71.0,71.0,6043.0,square4,j,0.1515,3,N,1.0
