block,Trial,square1,square2,square3,square4,currPoints,totalPoints,square,choiceKey.keys,choiceKey.rt,armNum,blockType,blockNum
prac,0.0,100.0,0.0,0.0,0.0,0.0,0.0,square3,,,2,p,0.0
prac,1.0,100.0,0.0,0.0,0.0,0.0,0.0,square2,,,1,p,0.0
prac,2.0,100.0,0.0,0.0,0.0,100.0,100.0,square1,,,0,p,0.0
prac,3.0,100.0,0.0,0.0,0.0,0.0,100.0,square4,,,3,p,0.0
prac,4.0,100.0,0.0,0.0,0.0,100.0,200.0,square1,,,0,p,0.0
prac,5.0,100.0,0.0,0.0,0.0,100.0,300.0,square1,,,0,p,0.0
prac,6.0,100.0,0.0,0.0,0.0,100.0,400.0,square1,,,0,p,0.0
prac,7.0,100.0,0.0,0.0,0.0,100.0,500.0,square1,,,0,p,0.0
prac,8.0,100.0,0.0,0.0,0.0,100.0,600.0,square1,,,0,p,0.0
prac,9.0,100.0,0.0,0.0,0.0,100.0,700.0,square1,,,0,p,0.0
S9,0.0,36.0,36.0,32.0,32.0,32.0,32.0,square4,r,0.7388,3,S,9.0
S9,1.0,40.0,29.0,36.0,24.0,36.0,68.0,square3,i,0.274,2,S,9.0
S9,2.0,31.0,43.0,22.0,29.0,31.0,99.0,square1,f,0.6198,0,S,9.0
S9,3.0,41.0,33.0,28.0,27.0,33.0,132.0,square2,j,0.3281,1,S,9.0
S9,4.0,34.0,29.0,32.0,31.0,32.0,164.0,square3,i,0.2824,2,S,9.0
S9,5.0,41.0,32.0,22.0,29.0,22.0,186.0,square3,i,0.2892,2,S,9.0
S9,6.0,44.0,30.0,21.0,28.0,21.0,207.0,square3,i,0.3324,2,S,9.0
S9,7.0,39.0,37.0,26.0,24.0,24.0,231.0,square4,r,0.2666,3,S,9.0
S9,8.0,41.0,33.0,23.0,20.0,41.0,272.0,square1,f,0.2918,0,S,9.0
S9,9.0,30.0,35.0,24.0,27.0,30.0,302.0,square1,f,0.269,0,S,9.0
S9,10.0,41.0,29.0,23.0,28.0,41.0,343.0,square1,f,0.2711,0,S,9.0
S9,11.0,37.0,38.0,22.0,33.0,37.0,380.0,square1,f,0.2658,0,S,9.0
S9,12.0,35.0,31.0,27.0,32.0,35.0,415.0,square1,f,0.3549,0,S,9.0
S9,13.0,38.0,37.0,30.0,29.0,38.0,453.0,square1,f,0.2415,0,S,9.0
S9,14.0,36.0,38.0,30.0,37.0,36.0,489.0,square1,f,0.2369,0,S,9.0
S9,15.0,40.0,29.0,27.0,24.0,40.0,529.0,square1,f,0.299,0,S,9.0
S9,16.0,33.0,37.0,29.0,28.0,33.0,562.0,square1,f,0.2534,0,S,9.0
S9,17.0,41.0,32.0,36.0,31.0,41.0,603.0,square1,f,0.1491,0,S,9.0
S9,18.0,39.0,26.0,16.0,35.0,39.0,642.0,square1,f,0.29,0,S,9.0
S9,19.0,35.0,30.0,23.0,27.0,35.0,677.0,square1,f,0.2354,0,S,9.0
S9,20.0,39.0,34.0,23.0,29.0,39.0,716.0,square1,f,0.3345,0,S,9.0
S9,21.0,35.0,37.0,28.0,31.0,37.0,753.0,square2,j,0.1659,1,S,9.0
S9,22.0,37.0,30.0,23.0,38.0,37.0,790.0,square1,f,0.2597,0,S,9.0
S9,23.0,37.0,34.0,27.0,34.0,37.0,827.0,square1,f,0.3757,0,S,9.0
S9,24.0,31.0,34.0,26.0,27.0,34.0,861.0,square2,j,0.2363,1,S,9.0
S9,25.0,38.0,40.0,29.0,24.0,38.0,899.0,square1,f,0.2716,0,S,9.0
S9,26.0,43.0,31.0,21.0,24.0,43.0,942.0,square1,f,0.2657,0,S,9.0
S9,27.0,30.0,31.0,23.0,28.0,30.0,972.0,square1,f,0.2916,0,S,9.0
S9,28.0,44.0,32.0,31.0,32.0,44.0,1016.0,square1,f,0.4369,0,S,9.0
S9,29.0,36.0,38.0,22.0,22.0,36.0,1052.0,square1,f,0.2005,0,S,9.0
S9,30.0,41.0,30.0,26.0,29.0,29.0,1081.0,square4,r,0.2607,3,S,9.0
S9,31.0,39.0,37.0,30.0,32.0,30.0,1111.0,square3,i,0.2491,2,S,9.0
S9,32.0,35.0,39.0,28.0,31.0,35.0,1146.0,square1,f,0.1941,0,S,9.0
S9,33.0,37.0,39.0,29.0,32.0,37.0,1183.0,square1,f,0.2393,0,S,9.0
S9,34.0,46.0,33.0,21.0,25.0,46.0,1229.0,square1,f,0.2746,0,S,9.0
S9,35.0,38.0,33.0,28.0,28.0,38.0,1267.0,square1,f,0.2364,0,S,9.0
S9,36.0,40.0,37.0,21.0,32.0,40.0,1307.0,square1,f,0.2001,0,S,9.0
S9,37.0,38.0,43.0,23.0,37.0,38.0,1345.0,square1,f,0.2367,0,S,9.0
S9,38.0,36.0,31.0,29.0,29.0,36.0,1381.0,square1,f,0.15,0,S,9.0
S9,39.0,41.0,29.0,26.0,28.0,41.0,1422.0,square1,f,0.2001,0,S,9.0
S9,40.0,32.0,36.0,26.0,28.0,32.0,1454.0,square1,f,0.0999,0,S,9.0
S9,41.0,40.0,37.0,35.0,28.0,40.0,1494.0,square1,f,0.2684,0,S,9.0
S9,42.0,43.0,32.0,26.0,37.0,43.0,1537.0,square1,f,0.1991,0,S,9.0
S9,43.0,40.0,31.0,23.0,31.0,40.0,1577.0,square1,f,0.259,0,S,9.0
S9,44.0,42.0,38.0,24.0,40.0,42.0,1619.0,square1,f,0.1495,0,S,9.0
S9,45.0,36.0,35.0,30.0,33.0,36.0,1655.0,square1,f,0.2602,0,S,9.0
S9,46.0,38.0,30.0,33.0,26.0,38.0,1693.0,square1,f,0.2387,0,S,9.0
S9,47.0,39.0,37.0,25.0,26.0,39.0,1732.0,square1,f,0.2112,0,S,9.0
S9,48.0,36.0,35.0,26.0,27.0,36.0,1768.0,square1,f,0.2068,0,S,9.0
S9,49.0,40.0,32.0,24.0,28.0,40.0,1808.0,square1,f,0.1073,0,S,9.0
S5,0.0,90.0,70.0,79.0,84.0,90.0,90.0,square1,r,1.0417,0,S,5.0
S5,1.0,92.0,77.0,83.0,81.0,77.0,167.0,square2,i,0.3989,1,S,5.0
S5,2.0,83.0,72.0,81.0,76.0,81.0,248.0,square3,f,0.354,2,S,5.0
S5,3.0,87.0,72.0,79.0,81.0,81.0,329.0,square4,j,0.3683,3,S,5.0
S5,4.0,86.0,81.0,78.0,72.0,86.0,415.0,square1,r,0.2622,0,S,5.0
S5,5.0,89.0,70.0,79.0,83.0,89.0,504.0,square1,r,0.2729,0,S,5.0
S5,6.0,86.0,69.0,81.0,81.0,86.0,590.0,square1,r,0.149,0,S,5.0
S5,7.0,82.0,72.0,86.0,80.0,82.0,672.0,square1,r,0.2266,0,S,5.0
S5,8.0,84.0,67.0,80.0,77.0,84.0,756.0,square1,r,0.1734,0,S,5.0
S5,9.0,92.0,80.0,86.0,84.0,92.0,848.0,square1,r,0.0834,0,S,5.0
S5,10.0,82.0,71.0,80.0,80.0,82.0,930.0,square1,r,0.1991,0,S,5.0
S5,11.0,80.0,75.0,79.0,75.0,80.0,1010.0,square1,r,0.2253,0,S,5.0
S5,12.0,84.0,75.0,80.0,82.0,84.0,1094.0,square1,r,0.1823,0,S,5.0
S5,13.0,85.0,74.0,74.0,81.0,74.0,1168.0,square3,f,0.1324,2,S,5.0
S5,14.0,81.0,79.0,85.0,81.0,79.0,1247.0,square2,i,0.3219,1,S,5.0
S5,15.0,81.0,75.0,76.0,77.0,81.0,1328.0,square1,r,0.1157,0,S,5.0
S5,16.0,86.0,74.0,78.0,74.0,86.0,1414.0,square1,r,0.258,0,S,5.0
S5,17.0,81.0,77.0,81.0,77.0,81.0,1495.0,square1,r,0.1725,0,S,5.0
S5,18.0,87.0,70.0,84.0,82.0,87.0,1582.0,square1,r,0.2104,0,S,5.0
S5,19.0,84.0,76.0,83.0,76.0,84.0,1666.0,square1,r,0.3669,0,S,5.0
S5,20.0,79.0,78.0,82.0,76.0,79.0,1745.0,square1,r,0.0728,0,S,5.0
S5,21.0,86.0,68.0,80.0,72.0,86.0,1831.0,square1,r,0.2389,0,S,5.0
S5,22.0,93.0,80.0,85.0,84.0,93.0,1924.0,square1,r,0.0739,0,S,5.0
S5,23.0,87.0,73.0,76.0,70.0,87.0,2011.0,square1,r,0.2055,0,S,5.0
S5,24.0,85.0,69.0,81.0,78.0,85.0,2096.0,square1,r,0.0489,0,S,5.0
S5,25.0,89.0,77.0,77.0,76.0,89.0,2185.0,square1,r,0.2275,0,S,5.0
S5,26.0,84.0,71.0,81.0,75.0,84.0,2269.0,square1,r,0.1754,0,S,5.0
S5,27.0,84.0,75.0,82.0,71.0,84.0,2353.0,square1,r,0.1823,0,S,5.0
S5,28.0,83.0,72.0,82.0,78.0,83.0,2436.0,square1,r,0.1945,0,S,5.0
S5,29.0,91.0,67.0,79.0,74.0,91.0,2527.0,square1,r,0.2079,0,S,5.0
S5,30.0,82.0,69.0,81.0,77.0,82.0,2609.0,square1,r,0.2448,0,S,5.0
S5,31.0,82.0,72.0,80.0,78.0,82.0,2691.0,square1,r,0.2089,0,S,5.0
S5,32.0,83.0,73.0,91.0,80.0,83.0,2774.0,square1,r,0.1086,0,S,5.0
S5,33.0,83.0,68.0,85.0,78.0,83.0,2857.0,square1,r,0.0156,0,S,5.0
S5,34.0,89.0,79.0,83.0,77.0,89.0,2946.0,square1,r,0.1691,0,S,5.0
S5,35.0,88.0,72.0,79.0,80.0,88.0,3034.0,square1,r,0.3909,0,S,5.0
S5,36.0,90.0,74.0,84.0,76.0,90.0,3124.0,square1,r,0.1835,0,S,5.0
S5,37.0,85.0,75.0,80.0,82.0,82.0,3206.0,square4,j,0.2425,3,S,5.0
S5,38.0,78.0,74.0,85.0,79.0,78.0,3284.0,square1,r,0.0775,0,S,5.0
S5,39.0,87.0,73.0,87.0,85.0,87.0,3371.0,square1,r,0.2075,0,S,5.0
S5,40.0,83.0,67.0,81.0,80.0,83.0,3454.0,square1,r,0.1825,0,S,5.0
S5,41.0,82.0,69.0,88.0,80.0,82.0,3536.0,square1,r,0.4174,0,S,5.0
S5,42.0,85.0,78.0,91.0,80.0,85.0,3621.0,square1,r,0.1334,0,S,5.0
S5,43.0,89.0,74.0,78.0,74.0,89.0,3710.0,square1,r,0.2048,0,S,5.0
S5,44.0,90.0,74.0,77.0,85.0,90.0,3800.0,square1,r,0.1055,0,S,5.0
S5,45.0,89.0,68.0,81.0,78.0,89.0,3889.0,square1,r,0.1379,0,S,5.0
S5,46.0,86.0,70.0,86.0,68.0,86.0,3975.0,square1,r,0.2093,0,S,5.0
S5,47.0,90.0,77.0,85.0,84.0,90.0,4065.0,square1,r,0.2501,0,S,5.0
S5,48.0,76.0,66.0,82.0,79.0,76.0,4141.0,square1,r,0.0745,0,S,5.0
S5,49.0,84.0,73.0,82.0,75.0,84.0,4225.0,square1,r,0.1392,0,S,5.0
S6,0.0,40.0,29.0,39.0,26.0,39.0,39.0,square3,r,0.8005,2,S,6.0
S6,1.0,34.0,40.0,31.0,25.0,25.0,64.0,square4,f,0.0692,3,S,6.0
S6,2.0,37.0,31.0,25.0,30.0,31.0,95.0,square2,j,0.2072,1,S,6.0
S6,3.0,39.0,37.0,30.0,27.0,39.0,134.0,square1,i,0.1719,0,S,6.0
S6,4.0,42.0,40.0,28.0,32.0,28.0,162.0,square3,r,0.266,2,S,6.0
S6,5.0,35.0,35.0,39.0,29.0,29.0,191.0,square4,f,0.6849,3,S,6.0
S6,6.0,48.0,30.0,37.0,33.0,30.0,221.0,square2,j,0.069,1,S,6.0
S6,7.0,47.0,34.0,31.0,29.0,47.0,268.0,square1,i,0.1683,0,S,6.0
S6,8.0,43.0,35.0,30.0,25.0,43.0,311.0,square1,i,0.109,0,S,6.0
S6,9.0,36.0,38.0,35.0,35.0,36.0,347.0,square1,i,0.0774,0,S,6.0
S6,10.0,38.0,35.0,31.0,21.0,38.0,385.0,square1,i,0.0824,0,S,6.0
S6,11.0,30.0,36.0,31.0,20.0,30.0,415.0,square1,i,0.009,0,S,6.0
S6,12.0,37.0,40.0,33.0,22.0,37.0,452.0,square1,i,0.1096,0,S,6.0
S6,13.0,32.0,41.0,35.0,29.0,32.0,484.0,square1,i,0.4622,0,S,6.0
S6,14.0,41.0,29.0,30.0,32.0,41.0,525.0,square1,i,0.0568,0,S,6.0
S6,15.0,43.0,37.0,31.0,27.0,43.0,568.0,square1,i,0.1394,0,S,6.0
S6,16.0,34.0,34.0,35.0,31.0,34.0,602.0,square1,i,0.1077,0,S,6.0
S6,17.0,47.0,40.0,29.0,28.0,47.0,649.0,square1,i,0.0833,0,S,6.0
S6,18.0,37.0,38.0,34.0,35.0,37.0,686.0,square1,i,0.1658,0,S,6.0
S6,19.0,36.0,39.0,31.0,26.0,36.0,722.0,square1,i,0.1324,0,S,6.0
S6,20.0,44.0,40.0,31.0,25.0,44.0,766.0,square1,i,0.1325,0,S,6.0
S6,21.0,39.0,41.0,35.0,24.0,39.0,805.0,square1,i,0.2012,0,S,6.0
S6,22.0,41.0,38.0,41.0,31.0,41.0,846.0,square1,i,0.199,0,S,6.0
S6,23.0,37.0,31.0,30.0,32.0,37.0,883.0,square1,i,0.2264,0,S,6.0
S6,24.0,48.0,34.0,34.0,21.0,48.0,931.0,square1,i,0.2667,0,S,6.0
S6,25.0,42.0,45.0,26.0,29.0,42.0,973.0,square1,i,0.0658,0,S,6.0
S6,26.0,40.0,39.0,36.0,28.0,40.0,1013.0,square1,i,0.1949,0,S,6.0
S6,27.0,42.0,33.0,29.0,29.0,42.0,1055.0,square1,i,0.1522,0,S,6.0
S6,28.0,41.0,30.0,29.0,29.0,41.0,1096.0,square1,i,0.1028,0,S,6.0
S6,29.0,42.0,40.0,32.0,27.0,42.0,1138.0,square1,i,0.1355,0,S,6.0
S6,30.0,42.0,36.0,30.0,26.0,42.0,1180.0,square1,i,0.0158,0,S,6.0
S6,31.0,42.0,34.0,35.0,29.0,42.0,1222.0,square1,i,0.1946,0,S,6.0
S6,32.0,35.0,36.0,31.0,23.0,35.0,1257.0,square1,i,0.2403,0,S,6.0
S6,33.0,35.0,31.0,35.0,30.0,35.0,1292.0,square1,i,0.0846,0,S,6.0
S6,34.0,40.0,38.0,31.0,27.0,40.0,1332.0,square1,i,0.1658,0,S,6.0
S6,35.0,42.0,37.0,34.0,34.0,42.0,1374.0,square1,i,0.0345,0,S,6.0
S6,36.0,37.0,46.0,31.0,34.0,37.0,1411.0,square1,i,0.238,0,S,6.0
S6,37.0,38.0,40.0,30.0,26.0,38.0,1449.0,square1,i,0.1053,0,S,6.0
S6,38.0,36.0,34.0,31.0,33.0,36.0,1485.0,square1,i,0.0097,0,S,6.0
S6,39.0,44.0,37.0,33.0,31.0,44.0,1529.0,square1,i,0.2156,0,S,6.0
S6,40.0,40.0,38.0,31.0,25.0,40.0,1569.0,square1,i,0.0024,0,S,6.0
S6,41.0,49.0,35.0,35.0,28.0,49.0,1618.0,square1,i,0.1671,0,S,6.0
S6,42.0,44.0,40.0,32.0,28.0,44.0,1662.0,square1,i,0.3657,0,S,6.0
S6,43.0,43.0,36.0,33.0,26.0,43.0,1705.0,square1,i,0.067,0,S,6.0
S6,44.0,38.0,33.0,34.0,26.0,38.0,1743.0,square1,i,0.1657,0,S,6.0
S6,45.0,32.0,35.0,30.0,28.0,32.0,1775.0,square1,i,0.1388,0,S,6.0
S6,46.0,38.0,36.0,34.0,30.0,38.0,1813.0,square1,i,0.202,0,S,6.0
S6,47.0,44.0,35.0,32.0,31.0,44.0,1857.0,square1,i,0.1349,0,S,6.0
S6,48.0,40.0,40.0,31.0,33.0,40.0,1897.0,square1,i,0.2701,0,S,6.0
S6,49.0,41.0,29.0,29.0,29.0,41.0,1938.0,square1,i,0.1041,0,S,6.0
S4,0.0,18.0,16.0,34.0,20.0,18.0,18.0,square1,r,0.7018,0,S,4.0
S4,1.0,33.0,26.0,26.0,23.0,23.0,41.0,square4,i,0.1425,3,S,4.0
S4,2.0,35.0,15.0,33.0,22.0,15.0,56.0,square2,f,0.2699,1,S,4.0
S4,3.0,28.0,19.0,27.0,27.0,27.0,83.0,square3,j,0.2656,2,S,4.0
S4,4.0,27.0,16.0,25.0,28.0,28.0,111.0,square4,i,0.3325,3,S,4.0
S4,5.0,23.0,22.0,31.0,24.0,22.0,133.0,square2,f,0.2251,1,S,4.0
S4,6.0,25.0,20.0,34.0,23.0,34.0,167.0,square3,j,0.2371,2,S,4.0
S4,7.0,21.0,22.0,30.0,21.0,21.0,188.0,square4,i,0.2404,3,S,4.0
S4,8.0,33.0,24.0,33.0,17.0,33.0,221.0,square3,j,0.1086,2,S,4.0
S4,9.0,24.0,18.0,31.0,28.0,28.0,249.0,square4,i,0.1725,3,S,4.0
S4,10.0,31.0,26.0,35.0,20.0,35.0,284.0,square3,j,0.1158,2,S,4.0
S4,11.0,25.0,15.0,31.0,25.0,31.0,315.0,square3,j,0.0023,2,S,4.0
S4,12.0,24.0,16.0,29.0,22.0,29.0,344.0,square3,j,0.0387,2,S,4.0
S4,13.0,28.0,23.0,25.0,17.0,25.0,369.0,square3,j,0.074,2,S,4.0
S4,14.0,22.0,23.0,21.0,23.0,21.0,390.0,square3,j,0.0522,2,S,4.0
S4,15.0,25.0,19.0,28.0,25.0,28.0,418.0,square3,j,0.4868,2,S,4.0
S4,16.0,26.0,17.0,30.0,21.0,21.0,439.0,square4,i,0.04,3,S,4.0
S4,17.0,22.0,21.0,29.0,22.0,21.0,460.0,square2,f,0.1835,1,S,4.0
S4,18.0,28.0,22.0,32.0,22.0,28.0,488.0,square1,r,0.1454,0,S,4.0
S4,19.0,26.0,19.0,31.0,26.0,31.0,519.0,square3,j,0.2406,2,S,4.0
S4,20.0,28.0,18.0,28.0,25.0,25.0,544.0,square4,i,0.2834,3,S,4.0
S4,21.0,33.0,26.0,21.0,29.0,21.0,565.0,square3,j,0.1096,2,S,4.0
S4,22.0,31.0,19.0,29.0,20.0,19.0,584.0,square2,f,0.1103,1,S,4.0
S4,23.0,27.0,21.0,36.0,26.0,27.0,611.0,square1,r,0.249,0,S,4.0
S4,24.0,28.0,15.0,32.0,21.0,21.0,632.0,square4,i,0.7058,3,S,4.0
S4,25.0,27.0,18.0,28.0,25.0,27.0,659.0,square1,r,0.2354,0,S,4.0
S4,26.0,26.0,20.0,27.0,14.0,26.0,685.0,square1,r,0.2055,0,S,4.0
S4,27.0,28.0,19.0,36.0,18.0,28.0,713.0,square1,r,0.2343,0,S,4.0
S4,28.0,28.0,19.0,28.0,23.0,28.0,741.0,square1,r,0.1991,0,S,4.0
S4,29.0,25.0,22.0,29.0,23.0,25.0,766.0,square1,r,0.234,0,S,4.0
S4,30.0,26.0,16.0,30.0,20.0,26.0,792.0,square1,r,0.1016,0,S,4.0
S4,31.0,23.0,25.0,26.0,30.0,23.0,815.0,square1,r,0.1021,0,S,4.0
S4,32.0,21.0,26.0,22.0,23.0,21.0,836.0,square1,r,0.0158,0,S,4.0
S4,33.0,25.0,22.0,24.0,17.0,25.0,861.0,square1,r,0.1628,0,S,4.0
S4,34.0,30.0,22.0,33.0,24.0,30.0,891.0,square1,r,0.1785,0,S,4.0
S4,35.0,23.0,21.0,35.0,26.0,23.0,914.0,square1,r,0.2167,0,S,4.0
S4,36.0,19.0,21.0,33.0,24.0,19.0,933.0,square1,r,0.1157,0,S,4.0
S4,37.0,20.0,17.0,26.0,26.0,26.0,959.0,square3,j,0.1657,2,S,4.0
S4,38.0,28.0,20.0,28.0,26.0,26.0,985.0,square4,i,0.2338,3,S,4.0
S4,39.0,28.0,23.0,40.0,27.0,23.0,1008.0,square2,f,0.1787,1,S,4.0
S4,40.0,25.0,24.0,32.0,22.0,32.0,1040.0,square3,j,0.1657,2,S,4.0
S4,41.0,23.0,23.0,26.0,17.0,17.0,1057.0,square4,i,0.1049,3,S,4.0
S4,42.0,26.0,18.0,33.0,22.0,33.0,1090.0,square3,j,0.3946,2,S,4.0
S4,43.0,22.0,21.0,36.0,25.0,36.0,1126.0,square3,j,0.1748,2,S,4.0
S4,44.0,21.0,18.0,33.0,14.0,33.0,1159.0,square3,j,0.2448,2,S,4.0
S4,45.0,29.0,19.0,30.0,29.0,30.0,1189.0,square3,j,0.1443,2,S,4.0
S4,46.0,21.0,16.0,22.0,23.0,22.0,1211.0,square3,j,0.2394,2,S,4.0
S4,47.0,22.0,18.0,28.0,22.0,28.0,1239.0,square3,j,0.2108,2,S,4.0
S4,48.0,33.0,21.0,32.0,26.0,32.0,1271.0,square3,j,0.2073,2,S,4.0
S4,49.0,23.0,17.0,20.0,21.0,20.0,1291.0,square3,j,0.2359,2,S,4.0
S3,0.0,38.0,48.0,42.0,57.0,42.0,42.0,square3,r,0.7442,2,S,3.0
S3,1.0,29.0,43.0,51.0,57.0,43.0,85.0,square2,i,0.0002,1,S,3.0
S3,2.0,41.0,49.0,46.0,49.0,41.0,126.0,square1,f,0.2368,0,S,3.0
S3,3.0,44.0,50.0,45.0,52.0,52.0,178.0,square4,j,0.0722,3,S,3.0
S3,4.0,37.0,51.0,45.0,58.0,51.0,229.0,square2,i,0.594,1,S,3.0
S3,5.0,47.0,43.0,42.0,49.0,42.0,271.0,square3,r,0.0491,2,S,3.0
S3,6.0,44.0,53.0,51.0,58.0,44.0,315.0,square1,f,0.1324,0,S,3.0
S3,7.0,39.0,47.0,46.0,54.0,54.0,369.0,square4,j,0.1373,3,S,3.0
S3,8.0,43.0,53.0,41.0,52.0,53.0,422.0,square2,i,0.2016,1,S,3.0
S3,9.0,42.0,46.0,41.0,53.0,53.0,475.0,square4,j,0.1992,3,S,3.0
S3,10.0,37.0,49.0,49.0,55.0,49.0,524.0,square2,i,0.2351,1,S,3.0
S3,11.0,40.0,47.0,36.0,59.0,59.0,583.0,square4,j,0.0501,3,S,3.0
S3,12.0,46.0,51.0,39.0,56.0,56.0,639.0,square4,j,0.2004,3,S,3.0
S3,13.0,39.0,48.0,45.0,57.0,57.0,696.0,square4,j,0.2372,3,S,3.0
S3,14.0,39.0,55.0,43.0,47.0,47.0,743.0,square4,j,0.0724,3,S,3.0
S3,15.0,46.0,46.0,47.0,52.0,52.0,795.0,square4,j,0.1702,3,S,3.0
S3,16.0,42.0,49.0,50.0,55.0,55.0,850.0,square4,j,0.2334,3,S,3.0
S3,17.0,45.0,45.0,56.0,47.0,47.0,897.0,square4,j,0.0163,3,S,3.0
S3,18.0,46.0,43.0,45.0,50.0,50.0,947.0,square4,j,0.1441,3,S,3.0
S3,19.0,41.0,47.0,50.0,55.0,55.0,1002.0,square4,j,0.2074,3,S,3.0
S3,20.0,45.0,52.0,49.0,52.0,52.0,1054.0,square4,j,0.1825,3,S,3.0
S3,21.0,40.0,43.0,47.0,46.0,46.0,1100.0,square4,j,0.0991,3,S,3.0
S3,22.0,45.0,46.0,44.0,47.0,47.0,1147.0,square4,j,0.1941,3,S,3.0
S3,23.0,36.0,50.0,42.0,46.0,46.0,1193.0,square4,j,0.1193,3,S,3.0
S3,24.0,42.0,54.0,49.0,55.0,55.0,1248.0,square4,j,0.1353,3,S,3.0
S3,25.0,43.0,51.0,44.0,54.0,54.0,1302.0,square4,j,0.1677,3,S,3.0
S3,26.0,49.0,50.0,52.0,52.0,52.0,1354.0,square4,j,0.0686,3,S,3.0
S3,27.0,47.0,52.0,44.0,50.0,50.0,1404.0,square4,j,0.1426,3,S,3.0
S3,28.0,37.0,48.0,40.0,47.0,47.0,1451.0,square4,j,0.0158,3,S,3.0
S3,29.0,50.0,43.0,50.0,57.0,57.0,1508.0,square4,j,0.0657,3,S,3.0
S3,30.0,50.0,50.0,46.0,47.0,47.0,1555.0,square4,j,0.0004,3,S,3.0
S3,31.0,37.0,53.0,49.0,56.0,56.0,1611.0,square4,j,0.0334,3,S,3.0
S3,32.0,42.0,50.0,43.0,58.0,58.0,1669.0,square4,j,0.5011,3,S,3.0
S3,33.0,44.0,49.0,46.0,59.0,59.0,1728.0,square4,j,0.0455,3,S,3.0
S3,34.0,42.0,50.0,50.0,58.0,58.0,1786.0,square4,j,0.1333,3,S,3.0
S3,35.0,43.0,46.0,45.0,50.0,50.0,1836.0,square4,j,0.161,3,S,3.0
S3,36.0,46.0,52.0,50.0,48.0,48.0,1884.0,square4,j,0.0824,3,S,3.0
S3,37.0,48.0,50.0,49.0,52.0,52.0,1936.0,square4,j,0.0088,3,S,3.0
S3,38.0,39.0,43.0,50.0,55.0,55.0,1991.0,square4,j,0.2055,3,S,3.0
S3,39.0,50.0,53.0,46.0,57.0,57.0,2048.0,square4,j,0.1061,3,S,3.0
S3,40.0,41.0,46.0,48.0,55.0,55.0,2103.0,square4,j,0.2425,3,S,3.0
S3,41.0,49.0,49.0,40.0,56.0,56.0,2159.0,square4,j,0.2059,3,S,3.0
S3,42.0,47.0,49.0,43.0,48.0,48.0,2207.0,square4,j,0.1387,3,S,3.0
S3,43.0,46.0,43.0,41.0,58.0,58.0,2265.0,square4,j,0.1791,3,S,3.0
S3,44.0,46.0,52.0,51.0,55.0,55.0,2320.0,square4,j,0.3358,3,S,3.0
S3,45.0,46.0,41.0,46.0,49.0,49.0,2369.0,square4,j,0.1731,3,S,3.0
S3,46.0,32.0,56.0,40.0,50.0,50.0,2419.0,square4,j,0.2051,3,S,3.0
S3,47.0,42.0,49.0,44.0,51.0,51.0,2470.0,square4,j,0.1695,3,S,3.0
S3,48.0,36.0,45.0,38.0,50.0,50.0,2520.0,square4,j,0.2001,3,S,3.0
S3,49.0,45.0,48.0,47.0,52.0,52.0,2572.0,square4,j,0.2212,3,S,3.0
S8,0.0,58.0,60.0,52.0,45.0,45.0,45.0,square4,r,0.3906,3,S,8.0
S8,1.0,55.0,57.0,56.0,52.0,56.0,101.0,square3,i,0.3961,2,S,8.0
S8,2.0,54.0,58.0,58.0,49.0,58.0,159.0,square2,f,0.2494,1,S,8.0
S8,3.0,55.0,62.0,52.0,53.0,55.0,214.0,square1,j,0.228,0,S,8.0
S8,4.0,55.0,60.0,49.0,51.0,49.0,263.0,square3,i,0.3834,2,S,8.0
S8,5.0,48.0,63.0,61.0,49.0,63.0,326.0,square2,f,0.2394,1,S,8.0
S8,6.0,58.0,63.0,59.0,55.0,58.0,384.0,square1,j,0.2331,0,S,8.0
S8,7.0,56.0,53.0,49.0,51.0,49.0,433.0,square3,i,0.3883,2,S,8.0
S8,8.0,61.0,63.0,66.0,49.0,63.0,496.0,square2,f,0.1157,1,S,8.0
S8,9.0,60.0,59.0,53.0,47.0,59.0,555.0,square2,f,0.2896,1,S,8.0
S8,10.0,55.0,63.0,52.0,55.0,63.0,618.0,square2,f,0.2429,1,S,8.0
S8,11.0,62.0,60.0,54.0,50.0,60.0,678.0,square2,f,0.1103,1,S,8.0
S8,12.0,58.0,64.0,51.0,52.0,64.0,742.0,square2,f,0.1109,1,S,8.0
S8,13.0,62.0,59.0,53.0,53.0,59.0,801.0,square2,f,0.0668,1,S,8.0
S8,14.0,51.0,62.0,61.0,54.0,54.0,855.0,square4,r,0.1701,3,S,8.0
S8,15.0,56.0,68.0,56.0,50.0,68.0,923.0,square2,f,0.0168,1,S,8.0
S8,16.0,58.0,64.0,56.0,50.0,64.0,987.0,square2,f,0.2048,1,S,8.0
S8,17.0,64.0,63.0,60.0,42.0,63.0,1050.0,square2,f,0.0826,1,S,8.0
S8,18.0,54.0,64.0,57.0,55.0,64.0,1114.0,square2,f,0.1324,1,S,8.0
S8,19.0,56.0,53.0,57.0,53.0,53.0,1167.0,square2,f,0.2261,1,S,8.0
S8,20.0,59.0,64.0,56.0,49.0,64.0,1231.0,square2,f,0.2158,1,S,8.0
S8,21.0,54.0,59.0,55.0,48.0,59.0,1290.0,square2,f,0.1938,1,S,8.0
S8,22.0,63.0,63.0,59.0,49.0,63.0,1353.0,square2,f,0.1501,1,S,8.0
S8,23.0,59.0,60.0,48.0,52.0,60.0,1413.0,square2,f,0.1512,1,S,8.0
S8,24.0,55.0,53.0,60.0,50.0,53.0,1466.0,square2,f,0.1014,1,S,8.0
S8,25.0,57.0,60.0,55.0,54.0,60.0,1526.0,square2,f,0.1017,1,S,8.0
S8,26.0,62.0,66.0,57.0,58.0,66.0,1592.0,square2,f,0.0786,1,S,8.0
S8,27.0,58.0,55.0,52.0,48.0,55.0,1647.0,square2,f,0.1124,1,S,8.0
S8,28.0,53.0,59.0,53.0,55.0,59.0,1706.0,square2,f,0.2409,1,S,8.0
S8,29.0,60.0,58.0,57.0,53.0,58.0,1764.0,square2,f,0.1007,1,S,8.0
S8,30.0,57.0,67.0,52.0,56.0,67.0,1831.0,square2,f,0.1015,1,S,8.0
S8,31.0,60.0,58.0,52.0,50.0,58.0,1889.0,square2,f,0.1673,1,S,8.0
S8,32.0,54.0,61.0,56.0,57.0,61.0,1950.0,square2,f,0.0167,1,S,8.0
S8,33.0,66.0,64.0,63.0,52.0,64.0,2014.0,square2,f,0.2254,1,S,8.0
S8,34.0,54.0,65.0,66.0,56.0,65.0,2079.0,square2,f,0.1414,1,S,8.0
S8,35.0,54.0,62.0,61.0,48.0,62.0,2141.0,square2,f,0.2364,1,S,8.0
S8,36.0,53.0,63.0,54.0,55.0,63.0,2204.0,square2,f,0.0818,1,S,8.0
S8,37.0,64.0,58.0,57.0,51.0,58.0,2262.0,square2,f,0.1612,1,S,8.0
S8,38.0,68.0,65.0,59.0,57.0,65.0,2327.0,square2,f,0.1437,1,S,8.0
S8,39.0,64.0,65.0,51.0,55.0,65.0,2392.0,square2,f,0.087,1,S,8.0
S8,40.0,63.0,61.0,57.0,47.0,61.0,2453.0,square2,f,0.2014,1,S,8.0
S8,41.0,65.0,58.0,55.0,49.0,58.0,2511.0,square2,f,0.0371,1,S,8.0
S8,42.0,52.0,60.0,51.0,56.0,60.0,2571.0,square2,f,0.1123,1,S,8.0
S8,43.0,63.0,57.0,48.0,50.0,57.0,2628.0,square2,f,0.0015,1,S,8.0
S8,44.0,59.0,63.0,53.0,53.0,63.0,2691.0,square2,f,0.1342,1,S,8.0
S8,45.0,62.0,62.0,60.0,53.0,62.0,2753.0,square2,f,0.4615,1,S,8.0
S8,46.0,56.0,62.0,57.0,60.0,62.0,2815.0,square2,f,0.0161,1,S,8.0
S8,47.0,60.0,63.0,58.0,56.0,63.0,2878.0,square2,f,0.2281,1,S,8.0
S8,48.0,59.0,63.0,49.0,53.0,63.0,2941.0,square2,f,0.0825,1,S,8.0
S8,49.0,67.0,67.0,59.0,55.0,67.0,3008.0,square2,f,0.1386,1,S,8.0
V3,0.0,62.0,45.0,70.0,53.0,62.0,62.0,square1,r,0.7673,0,V,3.0
V3,1.0,63.0,47.0,76.0,60.0,47.0,109.0,square2,i,0.1335,1,V,3.0
V3,2.0,65.0,54.0,73.0,57.0,57.0,166.0,square4,f,0.1408,3,V,3.0
V3,3.0,68.0,51.0,71.0,51.0,71.0,237.0,square3,j,0.1078,2,V,3.0
V3,4.0,61.0,49.0,75.0,53.0,75.0,312.0,square3,j,0.1406,2,V,3.0
V3,5.0,65.0,47.0,74.0,50.0,74.0,386.0,square3,j,0.1824,2,V,3.0
V3,6.0,61.0,51.0,72.0,57.0,72.0,458.0,square3,j,0.2251,2,V,3.0
V3,7.0,67.0,49.0,75.0,55.0,75.0,533.0,square3,j,0.1412,2,V,3.0
V3,8.0,64.0,48.0,76.0,56.0,76.0,609.0,square3,j,0.1825,2,V,3.0
V3,9.0,67.0,49.0,71.0,56.0,67.0,676.0,square1,r,0.099,0,V,3.0
V3,10.0,65.0,50.0,71.0,56.0,71.0,747.0,square3,j,0.0834,2,V,3.0
V3,11.0,63.0,43.0,78.0,58.0,78.0,825.0,square3,j,0.2365,2,V,3.0
V3,12.0,66.0,53.0,73.0,54.0,73.0,898.0,square3,j,0.1036,2,V,3.0
V3,13.0,64.0,46.0,78.0,51.0,78.0,976.0,square3,j,0.2003,2,V,3.0
V3,14.0,67.0,51.0,71.0,58.0,71.0,1047.0,square3,j,0.2048,2,V,3.0
V3,15.0,61.0,50.0,73.0,54.0,73.0,1120.0,square3,j,0.0738,2,V,3.0
V3,16.0,64.0,52.0,74.0,54.0,74.0,1194.0,square3,j,0.1398,2,V,3.0
V3,17.0,61.0,48.0,74.0,55.0,74.0,1268.0,square3,j,0.172,2,V,3.0
V3,18.0,65.0,50.0,70.0,59.0,70.0,1338.0,square3,j,0.2088,2,V,3.0
V3,19.0,64.0,52.0,76.0,56.0,76.0,1414.0,square3,j,0.2374,2,V,3.0
V3,20.0,64.0,50.0,69.0,58.0,69.0,1483.0,square3,j,0.0087,2,V,3.0
V3,21.0,66.0,50.0,72.0,56.0,72.0,1555.0,square3,j,0.1493,2,V,3.0
V3,22.0,43.0,48.0,40.0,62.0,40.0,1595.0,square3,j,0.1,2,V,3.0
V3,23.0,41.0,51.0,35.0,59.0,59.0,1654.0,square4,f,0.1658,3,V,3.0
V3,24.0,51.0,51.0,37.0,60.0,51.0,1705.0,square1,r,0.2026,0,V,3.0
V3,25.0,45.0,53.0,36.0,57.0,53.0,1758.0,square2,i,0.1351,1,V,3.0
V3,26.0,44.0,51.0,38.0,59.0,59.0,1817.0,square4,f,0.1995,3,V,3.0
V3,27.0,43.0,51.0,34.0,66.0,51.0,1868.0,square2,i,0.2168,1,V,3.0
V3,28.0,47.0,51.0,40.0,67.0,67.0,1935.0,square4,f,0.0713,3,V,3.0
V3,29.0,42.0,55.0,35.0,65.0,42.0,1977.0,square1,r,0.2017,0,V,3.0
V3,30.0,49.0,54.0,36.0,62.0,62.0,2039.0,square4,f,0.0167,3,V,3.0
V3,31.0,50.0,53.0,42.0,66.0,42.0,2081.0,square3,j,0.0508,2,V,3.0
V3,32.0,47.0,53.0,34.0,58.0,58.0,2139.0,square4,f,0.0696,3,V,3.0
V3,33.0,45.0,56.0,34.0,62.0,62.0,2201.0,square4,f,0.2397,3,V,3.0
V3,34.0,48.0,54.0,38.0,64.0,64.0,2265.0,square4,f,0.1068,3,V,3.0
V3,35.0,39.0,55.0,42.0,65.0,65.0,2330.0,square4,f,0.1726,3,V,3.0
V3,36.0,46.0,57.0,41.0,63.0,63.0,2393.0,square4,f,0.2094,3,V,3.0
V3,37.0,43.0,54.0,41.0,65.0,65.0,2458.0,square4,f,0.0833,3,V,3.0
V3,38.0,47.0,52.0,37.0,63.0,63.0,2521.0,square4,f,0.0491,3,V,3.0
V3,39.0,47.0,53.0,38.0,55.0,55.0,2576.0,square4,f,0.1947,3,V,3.0
V3,40.0,41.0,54.0,39.0,64.0,64.0,2640.0,square4,f,0.2159,3,V,3.0
V3,41.0,48.0,52.0,38.0,64.0,64.0,2704.0,square4,f,0.1658,3,V,3.0
V3,42.0,45.0,50.0,34.0,63.0,63.0,2767.0,square4,f,0.1325,3,V,3.0
V3,43.0,44.0,50.0,34.0,62.0,62.0,2829.0,square4,f,0.201,3,V,3.0
V3,44.0,47.0,55.0,39.0,65.0,65.0,2894.0,square4,f,0.1993,3,V,3.0
V3,45.0,45.0,55.0,31.0,63.0,63.0,2957.0,square4,f,0.0024,3,V,3.0
V3,46.0,42.0,52.0,38.0,64.0,64.0,3021.0,square4,f,0.2391,3,V,3.0
V3,47.0,44.0,53.0,37.0,55.0,55.0,3076.0,square4,f,0.0424,3,V,3.0
V3,48.0,44.0,49.0,37.0,58.0,58.0,3134.0,square4,f,0.1096,3,V,3.0
V3,49.0,48.0,58.0,35.0,54.0,54.0,3188.0,square4,f,0.1502,3,V,3.0
V3,50.0,42.0,28.0,30.0,52.0,52.0,3240.0,square4,f,0.0368,3,V,3.0
V3,51.0,46.0,29.0,32.0,51.0,51.0,3291.0,square4,f,0.104,3,V,3.0
V3,52.0,37.0,20.0,36.0,50.0,20.0,3311.0,square2,i,0.0835,1,V,3.0
V3,53.0,44.0,22.0,34.0,55.0,44.0,3355.0,square1,r,0.4666,0,V,3.0
V3,54.0,37.0,27.0,26.0,50.0,26.0,3381.0,square3,j,0.2286,2,V,3.0
V3,55.0,41.0,21.0,39.0,53.0,53.0,3434.0,square4,f,0.1526,3,V,3.0
V3,56.0,40.0,20.0,38.0,51.0,51.0,3485.0,square4,f,0.2335,3,V,3.0
V3,57.0,44.0,28.0,31.0,57.0,57.0,3542.0,square4,f,0.1625,3,V,3.0
V3,58.0,46.0,20.0,28.0,49.0,49.0,3591.0,square4,f,0.1532,3,V,3.0
V3,59.0,44.0,24.0,30.0,55.0,55.0,3646.0,square4,f,0.0399,3,V,3.0
V3,60.0,42.0,29.0,29.0,51.0,51.0,3697.0,square4,f,0.1391,3,V,3.0
V3,61.0,41.0,21.0,30.0,46.0,46.0,3743.0,square4,f,0.0436,3,V,3.0
V3,62.0,41.0,27.0,31.0,49.0,49.0,3792.0,square4,f,0.0537,3,V,3.0
V3,63.0,42.0,27.0,34.0,51.0,51.0,3843.0,square4,f,0.1363,3,V,3.0
V3,64.0,41.0,24.0,30.0,47.0,47.0,3890.0,square4,f,0.2324,3,V,3.0
V3,65.0,36.0,18.0,34.0,48.0,48.0,3938.0,square4,f,0.107,3,V,3.0
V3,66.0,39.0,28.0,35.0,45.0,45.0,3983.0,square4,f,0.2357,3,V,3.0
V3,67.0,42.0,21.0,32.0,46.0,46.0,4029.0,square4,f,0.1029,3,V,3.0
V3,68.0,40.0,24.0,35.0,53.0,53.0,4082.0,square4,f,0.2394,3,V,3.0
V3,69.0,48.0,23.0,34.0,50.0,50.0,4132.0,square4,f,0.1168,3,V,3.0
V3,70.0,40.0,27.0,31.0,49.0,49.0,4181.0,square4,f,0.1725,3,V,3.0
V3,71.0,41.0,23.0,28.0,51.0,51.0,4232.0,square4,f,0.1335,3,V,3.0
V3,72.0,42.0,25.0,33.0,55.0,55.0,4287.0,square4,f,0.1613,3,V,3.0
V3,73.0,41.0,24.0,35.0,55.0,55.0,4342.0,square4,f,0.24,3,V,3.0
V3,74.0,38.0,26.0,28.0,53.0,53.0,4395.0,square4,f,0.1793,3,V,3.0
V3,75.0,54.0,39.0,69.0,50.0,50.0,4445.0,square4,f,0.1453,3,V,3.0
V3,76.0,55.0,42.0,64.0,53.0,55.0,4500.0,square1,r,0.1525,0,V,3.0
V3,77.0,59.0,37.0,66.0,44.0,59.0,4559.0,square1,r,0.1351,0,V,3.0
V3,78.0,58.0,38.0,60.0,46.0,58.0,4617.0,square1,r,0.1025,0,V,3.0
V3,79.0,54.0,35.0,66.0,49.0,54.0,4671.0,square1,r,0.144,0,V,3.0
V3,80.0,60.0,36.0,68.0,44.0,68.0,4739.0,square3,j,0.0782,2,V,3.0
V3,81.0,55.0,38.0,66.0,51.0,66.0,4805.0,square3,j,0.1125,2,V,3.0
V3,82.0,57.0,47.0,64.0,50.0,64.0,4869.0,square3,j,0.1849,2,V,3.0
V3,83.0,57.0,37.0,63.0,45.0,63.0,4932.0,square3,j,0.1663,2,V,3.0
V3,84.0,54.0,40.0,65.0,53.0,65.0,4997.0,square3,j,0.1658,2,V,3.0
V3,85.0,58.0,41.0,63.0,48.0,63.0,5060.0,square3,j,0.138,2,V,3.0
V3,86.0,53.0,38.0,57.0,49.0,57.0,5117.0,square3,j,0.1053,2,V,3.0
V3,87.0,49.0,42.0,60.0,43.0,60.0,5177.0,square3,j,0.1382,2,V,3.0
V3,88.0,56.0,35.0,70.0,46.0,35.0,5212.0,square2,i,0.1157,1,V,3.0
V3,89.0,58.0,39.0,63.0,52.0,63.0,5275.0,square3,j,0.0168,2,V,3.0
V3,90.0,59.0,43.0,63.0,45.0,63.0,5338.0,square3,j,0.1339,2,V,3.0
V3,91.0,54.0,37.0,69.0,49.0,69.0,5407.0,square3,j,0.1732,2,V,3.0
V3,92.0,56.0,41.0,61.0,47.0,61.0,5468.0,square3,j,0.0112,2,V,3.0
V3,93.0,58.0,35.0,68.0,47.0,68.0,5536.0,square3,j,0.176,2,V,3.0
V3,94.0,61.0,37.0,67.0,51.0,67.0,5603.0,square3,j,0.1499,2,V,3.0
V3,95.0,57.0,32.0,64.0,47.0,64.0,5667.0,square3,j,0.2002,2,V,3.0
V3,96.0,53.0,38.0,63.0,48.0,63.0,5730.0,square3,j,0.1158,2,V,3.0
V3,97.0,57.0,44.0,71.0,50.0,71.0,5801.0,square3,j,0.1067,2,V,3.0
V3,98.0,56.0,39.0,70.0,47.0,70.0,5871.0,square3,j,0.2283,2,V,3.0
V3,99.0,62.0,40.0,67.0,49.0,67.0,5938.0,square3,j,0.0167,2,V,3.0
V6,0.0,43.0,59.0,68.0,49.0,68.0,68.0,square3,r,0.6872,2,V,6.0
V6,1.0,43.0,62.0,71.0,50.0,50.0,118.0,square4,i,0.116,3,V,6.0
V6,2.0,48.0,61.0,72.0,51.0,48.0,166.0,square1,f,0.2331,0,V,6.0
V6,3.0,46.0,55.0,71.0,51.0,55.0,221.0,square2,j,0.1724,1,V,6.0
V6,4.0,44.0,61.0,74.0,48.0,74.0,295.0,square3,r,0.1385,2,V,6.0
V6,5.0,45.0,62.0,70.0,51.0,70.0,365.0,square3,r,0.1058,2,V,6.0
V6,6.0,42.0,67.0,73.0,46.0,73.0,438.0,square3,r,0.2423,2,V,6.0
V6,7.0,44.0,63.0,71.0,53.0,71.0,509.0,square3,r,0.1167,2,V,6.0
V6,8.0,41.0,62.0,73.0,52.0,73.0,582.0,square3,r,0.1502,2,V,6.0
V6,9.0,46.0,59.0,72.0,54.0,72.0,654.0,square3,r,0.1334,2,V,6.0
V6,10.0,45.0,59.0,70.0,53.0,70.0,724.0,square3,r,0.1348,2,V,6.0
V6,11.0,45.0,60.0,70.0,49.0,70.0,794.0,square3,r,0.1007,2,V,6.0
V6,12.0,45.0,66.0,64.0,48.0,64.0,858.0,square3,r,0.0693,2,V,6.0
V6,13.0,45.0,61.0,69.0,47.0,69.0,927.0,square3,r,0.1113,2,V,6.0
V6,14.0,47.0,60.0,71.0,56.0,71.0,998.0,square3,r,0.0668,2,V,6.0
V6,15.0,46.0,64.0,67.0,52.0,67.0,1065.0,square3,r,0.099,2,V,6.0
V6,16.0,50.0,60.0,69.0,54.0,69.0,1134.0,square3,r,0.0752,2,V,6.0
V6,17.0,43.0,60.0,70.0,53.0,70.0,1204.0,square3,r,0.1091,2,V,6.0
V6,18.0,46.0,63.0,72.0,55.0,72.0,1276.0,square3,r,0.15,2,V,6.0
V6,19.0,46.0,65.0,73.0,51.0,65.0,1341.0,square2,j,0.0863,1,V,6.0
V6,20.0,44.0,63.0,66.0,51.0,66.0,1407.0,square3,r,0.1345,2,V,6.0
V6,21.0,43.0,63.0,70.0,49.0,70.0,1477.0,square3,r,0.1835,2,V,6.0
V6,22.0,45.0,63.0,71.0,50.0,63.0,1540.0,square2,j,0.172,1,V,6.0
V6,23.0,45.0,38.0,28.0,60.0,28.0,1568.0,square3,r,0.1057,2,V,6.0
V6,24.0,46.0,33.0,33.0,53.0,53.0,1621.0,square4,i,0.3324,3,V,6.0
V6,25.0,45.0,36.0,32.0,63.0,45.0,1666.0,square1,f,0.1168,0,V,6.0
V6,26.0,52.0,37.0,28.0,57.0,57.0,1723.0,square4,i,0.1061,3,V,6.0
V6,27.0,45.0,33.0,30.0,62.0,62.0,1785.0,square4,i,0.203,3,V,6.0
V6,28.0,43.0,37.0,24.0,51.0,51.0,1836.0,square4,i,0.1168,3,V,6.0
V6,29.0,48.0,39.0,34.0,61.0,61.0,1897.0,square4,i,0.24,3,V,6.0
V6,30.0,48.0,44.0,35.0,59.0,59.0,1956.0,square4,i,0.1393,3,V,6.0
V6,31.0,50.0,39.0,34.0,53.0,53.0,2009.0,square4,i,0.1492,3,V,6.0
V6,32.0,44.0,33.0,33.0,54.0,54.0,2063.0,square4,i,0.099,3,V,6.0
V6,33.0,48.0,37.0,30.0,56.0,56.0,2119.0,square4,i,0.1324,3,V,6.0
V6,34.0,52.0,37.0,27.0,59.0,59.0,2178.0,square4,i,0.2011,3,V,6.0
V6,35.0,47.0,32.0,29.0,59.0,59.0,2237.0,square4,i,0.1016,3,V,6.0
V6,36.0,45.0,37.0,27.0,56.0,56.0,2293.0,square4,i,0.1023,3,V,6.0
V6,37.0,39.0,37.0,31.0,57.0,57.0,2350.0,square4,i,0.0491,3,V,6.0
V6,38.0,50.0,38.0,29.0,56.0,29.0,2379.0,square3,r,0.0992,2,V,6.0
V6,39.0,48.0,37.0,27.0,57.0,48.0,2427.0,square1,f,0.0341,0,V,6.0
V6,40.0,53.0,37.0,29.0,57.0,37.0,2464.0,square2,j,0.0775,1,V,6.0
V6,41.0,41.0,34.0,33.0,58.0,58.0,2522.0,square4,i,0.0824,3,V,6.0
V6,42.0,50.0,37.0,31.0,57.0,57.0,2579.0,square4,i,0.1667,3,V,6.0
V6,43.0,48.0,34.0,30.0,58.0,58.0,2637.0,square4,i,0.1168,3,V,6.0
V6,44.0,44.0,37.0,33.0,60.0,60.0,2697.0,square4,i,0.0243,3,V,6.0
V6,45.0,44.0,32.0,33.0,55.0,55.0,2752.0,square4,i,0.236,3,V,6.0
V6,46.0,44.0,36.0,33.0,59.0,59.0,2811.0,square4,i,0.0724,3,V,6.0
V6,47.0,42.0,34.0,29.0,52.0,52.0,2863.0,square4,i,0.0823,3,V,6.0
V6,48.0,46.0,41.0,28.0,60.0,60.0,2923.0,square4,i,0.0991,3,V,6.0
V6,49.0,46.0,40.0,27.0,55.0,55.0,2978.0,square4,i,0.0835,3,V,6.0
V6,50.0,46.0,41.0,32.0,55.0,55.0,3033.0,square4,i,0.1501,3,V,6.0
V6,51.0,41.0,39.0,30.0,55.0,55.0,3088.0,square4,i,0.1723,3,V,6.0
V6,52.0,47.0,37.0,31.0,55.0,55.0,3143.0,square4,i,0.0592,3,V,6.0
V6,53.0,57.0,36.0,30.0,58.0,58.0,3201.0,square4,i,0.1737,3,V,6.0
V6,54.0,42.0,38.0,28.0,50.0,50.0,3251.0,square4,i,0.0196,3,V,6.0
V6,55.0,56.0,42.0,67.0,46.0,46.0,3297.0,square4,i,0.0087,3,V,6.0
V6,56.0,54.0,37.0,68.0,46.0,46.0,3343.0,square4,i,0.1722,3,V,6.0
V6,57.0,57.0,40.0,64.0,52.0,57.0,3400.0,square1,f,0.149,0,V,6.0
V6,58.0,53.0,45.0,68.0,45.0,68.0,3468.0,square3,r,0.1287,2,V,6.0
V6,59.0,59.0,41.0,69.0,49.0,41.0,3509.0,square2,j,0.1159,1,V,6.0
V6,60.0,62.0,41.0,71.0,51.0,71.0,3580.0,square3,r,0.2329,2,V,6.0
V6,61.0,58.0,50.0,72.0,51.0,72.0,3652.0,square3,r,0.1015,2,V,6.0
V6,62.0,61.0,43.0,65.0,47.0,65.0,3717.0,square3,r,0.1494,2,V,6.0
V6,63.0,55.0,40.0,67.0,51.0,67.0,3784.0,square3,r,0.14,2,V,6.0
V6,64.0,56.0,43.0,67.0,47.0,67.0,3851.0,square3,r,0.0502,2,V,6.0
V6,65.0,62.0,46.0,67.0,48.0,67.0,3918.0,square3,r,0.0492,2,V,6.0
V6,66.0,55.0,44.0,67.0,48.0,67.0,3985.0,square3,r,0.0167,2,V,6.0
V6,67.0,61.0,46.0,70.0,49.0,70.0,4055.0,square3,r,0.0501,2,V,6.0
V6,68.0,63.0,41.0,72.0,46.0,72.0,4127.0,square3,r,0.3693,2,V,6.0
V6,69.0,59.0,41.0,68.0,48.0,68.0,4195.0,square3,r,0.0069,2,V,6.0
V6,70.0,59.0,37.0,70.0,45.0,70.0,4265.0,square3,r,0.0517,2,V,6.0
V6,71.0,83.0,64.0,56.0,70.0,56.0,4321.0,square3,r,0.2326,2,V,6.0
V6,72.0,82.0,59.0,53.0,75.0,82.0,4403.0,square1,f,0.1325,0,V,6.0
V6,73.0,85.0,67.0,58.0,73.0,85.0,4488.0,square1,f,0.1059,0,V,6.0
V6,74.0,79.0,67.0,61.0,73.0,79.0,4567.0,square1,f,0.1376,0,V,6.0
V6,75.0,84.0,62.0,53.0,69.0,84.0,4651.0,square1,f,0.1048,0,V,6.0
V6,76.0,81.0,60.0,55.0,76.0,81.0,4732.0,square1,f,0.1,0,V,6.0
V6,77.0,84.0,61.0,60.0,72.0,84.0,4816.0,square1,f,0.1947,0,V,6.0
V6,78.0,90.0,61.0,54.0,74.0,90.0,4906.0,square1,f,0.1834,0,V,6.0
V6,79.0,80.0,64.0,51.0,75.0,80.0,4986.0,square1,f,0.1167,0,V,6.0
V6,80.0,85.0,62.0,56.0,78.0,85.0,5071.0,square1,f,0.1185,0,V,6.0
V6,81.0,86.0,65.0,58.0,69.0,86.0,5157.0,square1,f,0.1026,0,V,6.0
V6,82.0,83.0,62.0,58.0,77.0,83.0,5240.0,square1,f,0.3593,0,V,6.0
V6,83.0,87.0,61.0,59.0,70.0,87.0,5327.0,square1,f,0.0219,0,V,6.0
V6,84.0,89.0,65.0,54.0,78.0,89.0,5416.0,square1,f,0.1377,0,V,6.0
V6,85.0,78.0,63.0,55.0,75.0,78.0,5494.0,square1,f,0.0835,0,V,6.0
V6,86.0,87.0,67.0,52.0,75.0,87.0,5581.0,square1,f,0.043,0,V,6.0
V6,87.0,86.0,62.0,60.0,75.0,86.0,5667.0,square1,f,0.167,0,V,6.0
V6,88.0,79.0,67.0,56.0,76.0,79.0,5746.0,square1,f,0.1329,0,V,6.0
V6,89.0,83.0,61.0,57.0,75.0,83.0,5829.0,square1,f,0.0684,0,V,6.0
V6,90.0,83.0,67.0,51.0,76.0,67.0,5896.0,square2,j,0.1102,1,V,6.0
V6,91.0,83.0,63.0,55.0,69.0,69.0,5965.0,square4,i,0.4157,3,V,6.0
V6,92.0,89.0,56.0,53.0,68.0,89.0,6054.0,square1,f,0.1325,0,V,6.0
V6,93.0,84.0,61.0,59.0,74.0,84.0,6138.0,square1,f,0.0747,0,V,6.0
V6,94.0,77.0,58.0,58.0,76.0,77.0,6215.0,square1,f,0.2048,0,V,6.0
V6,95.0,82.0,60.0,53.0,74.0,82.0,6297.0,square1,f,0.2014,0,V,6.0
V6,96.0,87.0,61.0,56.0,71.0,87.0,6384.0,square1,f,0.1741,0,V,6.0
V6,97.0,83.0,66.0,55.0,75.0,83.0,6467.0,square1,f,0.172,0,V,6.0
V6,98.0,81.0,63.0,55.0,76.0,81.0,6548.0,square1,f,0.2019,0,V,6.0
V6,99.0,92.0,63.0,61.0,78.0,92.0,6640.0,square1,f,0.1833,0,V,6.0
V8,0.0,49.0,55.0,64.0,74.0,55.0,55.0,square2,r,0.5667,1,V,8.0
V8,1.0,51.0,54.0,70.0,81.0,51.0,106.0,square1,i,0.0508,0,V,8.0
V8,2.0,46.0,62.0,70.0,77.0,70.0,176.0,square3,f,0.2395,2,V,8.0
V8,3.0,46.0,56.0,67.0,75.0,75.0,251.0,square4,j,0.0749,3,V,8.0
V8,4.0,50.0,59.0,67.0,83.0,67.0,318.0,square3,f,0.1398,2,V,8.0
V8,5.0,51.0,54.0,65.0,78.0,78.0,396.0,square4,j,0.1392,3,V,8.0
V8,6.0,45.0,57.0,66.0,80.0,80.0,476.0,square4,j,0.1157,3,V,8.0
V8,7.0,46.0,64.0,68.0,77.0,77.0,553.0,square4,j,0.1944,3,V,8.0
V8,8.0,50.0,57.0,66.0,73.0,73.0,626.0,square4,j,0.2396,3,V,8.0
V8,9.0,46.0,56.0,71.0,72.0,72.0,698.0,square4,j,0.1157,3,V,8.0
V8,10.0,56.0,58.0,67.0,75.0,75.0,773.0,square4,j,0.0026,3,V,8.0
V8,11.0,50.0,61.0,69.0,74.0,74.0,847.0,square4,j,0.7207,3,V,8.0
V8,12.0,59.0,59.0,69.0,77.0,77.0,924.0,square4,j,0.1995,3,V,8.0
V8,13.0,50.0,56.0,72.0,77.0,77.0,1001.0,square4,j,0.1334,3,V,8.0
V8,14.0,48.0,55.0,65.0,80.0,80.0,1081.0,square4,j,0.2121,3,V,8.0
V8,15.0,48.0,58.0,65.0,76.0,76.0,1157.0,square4,j,0.1526,3,V,8.0
V8,16.0,49.0,58.0,67.0,75.0,75.0,1232.0,square4,j,0.1033,3,V,8.0
V8,17.0,51.0,56.0,68.0,76.0,76.0,1308.0,square4,j,0.0719,3,V,8.0
V8,18.0,52.0,63.0,69.0,80.0,80.0,1388.0,square4,j,0.1155,3,V,8.0
V8,19.0,54.0,54.0,71.0,79.0,79.0,1467.0,square4,j,0.1324,3,V,8.0
V8,20.0,48.0,53.0,62.0,77.0,77.0,1544.0,square4,j,0.2001,3,V,8.0
V8,21.0,44.0,61.0,66.0,77.0,77.0,1621.0,square4,j,0.1824,3,V,8.0
V8,22.0,52.0,58.0,64.0,78.0,78.0,1699.0,square4,j,0.2002,3,V,8.0
V8,23.0,50.0,49.0,67.0,79.0,79.0,1778.0,square4,j,0.017,3,V,8.0
V8,24.0,49.0,59.0,69.0,74.0,74.0,1852.0,square4,j,0.173,3,V,8.0
V8,25.0,46.0,61.0,65.0,81.0,81.0,1933.0,square4,j,0.011,3,V,8.0
V8,26.0,49.0,58.0,63.0,35.0,35.0,1968.0,square4,j,0.2078,3,V,8.0
V8,27.0,48.0,51.0,66.0,41.0,66.0,2034.0,square3,f,0.1083,2,V,8.0
V8,28.0,46.0,55.0,65.0,38.0,46.0,2080.0,square1,i,0.2155,0,V,8.0
V8,29.0,47.0,58.0,69.0,40.0,58.0,2138.0,square2,r,0.0659,1,V,8.0
V8,30.0,42.0,55.0,67.0,43.0,67.0,2205.0,square3,f,0.0348,2,V,8.0
V8,31.0,49.0,56.0,64.0,36.0,49.0,2254.0,square1,i,0.049,0,V,8.0
V8,32.0,49.0,55.0,69.0,38.0,55.0,2309.0,square2,r,0.1286,1,V,8.0
V8,33.0,44.0,52.0,65.0,48.0,65.0,2374.0,square3,f,0.0169,2,V,8.0
V8,34.0,44.0,57.0,70.0,45.0,70.0,2444.0,square3,f,0.1727,2,V,8.0
V8,35.0,44.0,54.0,68.0,38.0,68.0,2512.0,square3,f,0.05,2,V,8.0
V8,36.0,45.0,56.0,64.0,40.0,64.0,2576.0,square3,f,0.0459,2,V,8.0
V8,37.0,47.0,57.0,66.0,37.0,66.0,2642.0,square3,f,0.0183,2,V,8.0
V8,38.0,49.0,50.0,66.0,37.0,66.0,2708.0,square3,f,0.2382,2,V,8.0
V8,39.0,51.0,56.0,61.0,39.0,61.0,2769.0,square3,f,0.0724,2,V,8.0
V8,40.0,47.0,59.0,66.0,41.0,66.0,2835.0,square3,f,0.2343,2,V,8.0
V8,41.0,42.0,56.0,69.0,42.0,69.0,2904.0,square3,f,0.2166,2,V,8.0
V8,42.0,47.0,57.0,72.0,35.0,72.0,2976.0,square3,f,0.0499,2,V,8.0
V8,43.0,47.0,57.0,63.0,44.0,63.0,3039.0,square3,f,0.0776,2,V,8.0
V8,44.0,45.0,58.0,67.0,42.0,67.0,3106.0,square3,f,0.1196,2,V,8.0
V8,45.0,44.0,56.0,66.0,43.0,66.0,3172.0,square3,f,0.1674,2,V,8.0
V8,46.0,46.0,53.0,70.0,37.0,70.0,3242.0,square3,f,0.0375,2,V,8.0
V8,47.0,54.0,53.0,71.0,41.0,71.0,3313.0,square3,f,0.1699,2,V,8.0
V8,48.0,49.0,53.0,69.0,37.0,69.0,3382.0,square3,f,0.0157,2,V,8.0
V8,49.0,39.0,57.0,65.0,47.0,65.0,3447.0,square3,f,0.0348,2,V,8.0
V8,50.0,48.0,55.0,65.0,41.0,65.0,3512.0,square3,f,0.526,2,V,8.0
V8,51.0,45.0,61.0,68.0,43.0,68.0,3580.0,square3,f,0.078,2,V,8.0
V8,52.0,53.0,52.0,68.0,37.0,68.0,3648.0,square3,f,0.336,2,V,8.0
V8,53.0,47.0,55.0,66.0,46.0,66.0,3714.0,square3,f,0.0712,2,V,8.0
V8,54.0,49.0,53.0,61.0,39.0,61.0,3775.0,square3,f,0.3372,2,V,8.0
V8,55.0,53.0,70.0,55.0,72.0,55.0,3830.0,square3,f,0.1058,2,V,8.0
V8,56.0,57.0,63.0,48.0,73.0,73.0,3903.0,square4,j,0.2411,3,V,8.0
V8,57.0,53.0,71.0,45.0,80.0,80.0,3983.0,square4,j,0.0444,3,V,8.0
V8,58.0,57.0,69.0,52.0,73.0,57.0,4040.0,square1,i,0.1438,0,V,8.0
V8,59.0,58.0,67.0,54.0,73.0,67.0,4107.0,square2,r,0.05,1,V,8.0
V8,60.0,55.0,66.0,47.0,76.0,76.0,4183.0,square4,j,0.2184,3,V,8.0
V8,61.0,56.0,65.0,54.0,72.0,72.0,4255.0,square4,j,0.0702,3,V,8.0
V8,62.0,56.0,65.0,49.0,75.0,75.0,4330.0,square4,j,0.2324,3,V,8.0
V8,63.0,61.0,65.0,44.0,78.0,78.0,4408.0,square4,j,0.1717,3,V,8.0
V8,64.0,54.0,66.0,48.0,75.0,75.0,4483.0,square4,j,0.0426,3,V,8.0
V8,65.0,59.0,65.0,46.0,79.0,79.0,4562.0,square4,j,0.1408,3,V,8.0
V8,66.0,51.0,62.0,46.0,73.0,73.0,4635.0,square4,j,0.212,3,V,8.0
V8,67.0,60.0,70.0,45.0,76.0,76.0,4711.0,square4,j,0.1447,3,V,8.0
V8,68.0,63.0,64.0,47.0,73.0,73.0,4784.0,square4,j,0.176,3,V,8.0
V8,69.0,58.0,66.0,43.0,77.0,77.0,4861.0,square4,j,0.0859,3,V,8.0
V8,70.0,59.0,65.0,49.0,73.0,73.0,4934.0,square4,j,0.15,3,V,8.0
V8,71.0,60.0,64.0,49.0,79.0,79.0,5013.0,square4,j,0.1026,3,V,8.0
V8,72.0,96.0,68.0,78.0,67.0,67.0,5080.0,square4,j,0.007,3,V,8.0
V8,73.0,96.0,68.0,79.0,64.0,64.0,5144.0,square4,j,0.0849,3,V,8.0
V8,74.0,92.0,67.0,81.0,62.0,62.0,5206.0,square4,j,0.1011,3,V,8.0
V8,75.0,96.0,72.0,83.0,62.0,83.0,5289.0,square3,f,0.0379,2,V,8.0
V8,76.0,94.0,70.0,77.0,57.0,77.0,5366.0,square3,f,0.1451,2,V,8.0
V8,77.0,91.0,68.0,81.0,59.0,81.0,5447.0,square3,f,0.1445,2,V,8.0
V8,78.0,90.0,73.0,80.0,63.0,80.0,5527.0,square3,f,0.0826,2,V,8.0
V8,79.0,90.0,73.0,83.0,61.0,73.0,5600.0,square2,r,0.0729,1,V,8.0
V8,80.0,95.0,75.0,81.0,66.0,95.0,5695.0,square1,i,0.555,0,V,8.0
V8,81.0,92.0,72.0,81.0,57.0,92.0,5787.0,square1,i,0.1833,0,V,8.0
V8,82.0,91.0,71.0,80.0,61.0,91.0,5878.0,square1,i,0.0491,0,V,8.0
V8,83.0,90.0,66.0,83.0,62.0,90.0,5968.0,square1,i,0.1326,0,V,8.0
V8,84.0,93.0,67.0,87.0,65.0,93.0,6061.0,square1,i,0.1168,0,V,8.0
V8,85.0,85.0,70.0,80.0,62.0,85.0,6146.0,square1,i,0.1501,0,V,8.0
V8,86.0,84.0,72.0,85.0,62.0,84.0,6230.0,square1,i,0.1693,0,V,8.0
V8,87.0,91.0,68.0,82.0,65.0,91.0,6321.0,square1,i,0.1167,0,V,8.0
V8,88.0,93.0,67.0,83.0,61.0,93.0,6414.0,square1,i,0.1118,0,V,8.0
V8,89.0,95.0,68.0,78.0,66.0,95.0,6509.0,square1,i,0.0824,0,V,8.0
V8,90.0,91.0,73.0,80.0,60.0,91.0,6600.0,square1,i,0.0657,0,V,8.0
V8,91.0,93.0,68.0,81.0,64.0,93.0,6693.0,square1,i,0.0615,0,V,8.0
V8,92.0,90.0,75.0,82.0,67.0,90.0,6783.0,square1,i,0.0159,0,V,8.0
V8,93.0,92.0,70.0,82.0,66.0,92.0,6875.0,square1,i,0.035,0,V,8.0
V8,94.0,90.0,71.0,78.0,63.0,90.0,6965.0,square1,i,0.0383,0,V,8.0
V8,95.0,88.0,65.0,78.0,63.0,88.0,7053.0,square1,i,0.0824,0,V,8.0
V8,96.0,89.0,72.0,85.0,62.0,89.0,7142.0,square1,i,0.1835,0,V,8.0
V8,97.0,92.0,72.0,77.0,67.0,92.0,7234.0,square1,i,0.0018,0,V,8.0
V8,98.0,86.0,63.0,82.0,62.0,86.0,7320.0,square1,i,0.0835,0,V,8.0
V8,99.0,90.0,66.0,75.0,61.0,90.0,7410.0,square1,i,0.0156,0,V,8.0
