block,Trial,square1,square2,square3,square4,currPoints,totalPoints,square,choiceKey.keys,choiceKey.rt,armNum,blockType,blockNum
prac,0.0,100.0,0.0,0.0,0.0,100,100.0,square1,,,0,p,0.0
prac,1.0,100.0,0.0,0.0,0.0,0,100.0,square4,,,3,p,0.0
prac,2.0,100.0,0.0,0.0,0.0,100,200.0,square1,,,0,p,0.0
prac,3.0,100.0,0.0,0.0,0.0,100,300.0,square1,,,0,p,0.0
prac,4.0,100.0,0.0,0.0,0.0,100,400.0,square1,,,0,p,0.0
prac,5.0,100.0,0.0,0.0,0.0,100,500.0,square1,,,0,p,0.0
prac,6.0,100.0,0.0,0.0,0.0,100,600.0,square1,,,0,p,0.0
prac,7.0,100.0,0.0,0.0,0.0,100,700.0,square1,,,0,p,0.0
prac,8.0,100.0,0.0,0.0,0.0,0,700.0,square2,,,1,p,0.0
prac,9.0,100.0,0.0,0.0,0.0,0,700.0,square4,,,3,p,0.0
V11,0.0,42.0,67.0,57.0,49.0,67,67.0,square2,r,1.739,1,V,11.0
V11,1.0,42.0,71.0,60.0,53.0,60,127.0,square3,f,0.26,2,V,11.0
V11,2.0,45.0,76.0,58.0,51.0,51,178.0,square4,j,0.614,3,V,11.0
V11,3.0,44.0,65.0,60.0,49.0,44,222.0,square1,i,0.116,0,V,11.0
V11,4.0,46.0,73.0,64.0,51.0,73,295.0,square2,r,0.029,1,V,11.0
V11,5.0,47.0,67.0,58.0,54.0,67,362.0,square2,r,0.205,1,V,11.0
V11,6.0,43.0,68.0,58.0,50.0,50,412.0,square4,j,1.263,3,V,11.0
V11,7.0,42.0,67.0,60.0,58.0,42,454.0,square1,i,0.314,0,V,11.0
V11,8.0,44.0,67.0,60.0,53.0,60,514.0,square3,f,0.165,2,V,11.0
V11,9.0,44.0,67.0,59.0,54.0,67,581.0,square2,r,0.212,1,V,11.0
V11,10.0,49.0,76.0,57.0,52.0,76,657.0,square2,r,0.23,1,V,11.0
V11,11.0,45.0,71.0,58.0,51.0,71,728.0,square2,r,0.25,1,V,11.0
V11,12.0,45.0,72.0,58.0,56.0,45,773.0,square1,i,0.265,0,V,11.0
V11,13.0,49.0,67.0,63.0,54.0,54,827.0,square4,j,0.064,3,V,11.0
V11,14.0,50.0,75.0,57.0,48.0,75,902.0,square2,r,0.347,1,V,11.0
V11,15.0,40.0,71.0,61.0,51.0,71,973.0,square2,r,0.217,1,V,11.0
V11,16.0,47.0,72.0,56.0,54.0,72,1045.0,square2,r,0.298,1,V,11.0
V11,17.0,40.0,71.0,61.0,46.0,71,1116.0,square2,r,0.347,1,V,11.0
V11,18.0,44.0,69.0,59.0,51.0,69,1185.0,square2,r,0.118,1,V,11.0
V11,19.0,44.0,73.0,59.0,47.0,73,1258.0,square2,r,0.446,1,V,11.0
V11,20.0,47.0,69.0,64.0,54.0,69,1327.0,square2,r,0.312,1,V,11.0
V11,21.0,78.0,49.0,70.0,65.0,49,1376.0,square2,r,0.304,1,V,11.0
V11,22.0,78.0,56.0,73.0,62.0,73,1449.0,square3,f,0.247,2,V,11.0
V11,23.0,84.0,54.0,71.0,65.0,84,1533.0,square1,i,0.131,0,V,11.0
V11,24.0,80.0,55.0,72.0,67.0,80,1613.0,square1,i,0.253,0,V,11.0
V11,25.0,80.0,55.0,75.0,63.0,80,1693.0,square1,i,0.265,0,V,11.0
V11,26.0,80.0,56.0,67.0,62.0,80,1773.0,square1,i,0.251,0,V,11.0
V11,27.0,80.0,51.0,68.0,62.0,80,1853.0,square1,i,0.269,0,V,11.0
V11,28.0,79.0,57.0,67.0,57.0,57,1910.0,square4,j,0.047,3,V,11.0
V11,29.0,79.0,50.0,67.0,62.0,79,1989.0,square1,i,0.233,0,V,11.0
V11,30.0,88.0,54.0,74.0,61.0,88,2077.0,square1,i,0.263,0,V,11.0
V11,31.0,81.0,51.0,75.0,63.0,81,2158.0,square1,i,0.247,0,V,11.0
V11,32.0,76.0,51.0,69.0,65.0,51,2209.0,square2,r,0.267,1,V,11.0
V11,33.0,78.0,54.0,72.0,64.0,78,2287.0,square1,i,0.266,0,V,11.0
V11,34.0,77.0,53.0,71.0,62.0,71,2358.0,square3,f,0.083,2,V,11.0
V11,35.0,74.0,59.0,75.0,62.0,75,2433.0,square3,f,0.347,2,V,11.0
V11,36.0,79.0,50.0,72.0,62.0,72,2505.0,square3,f,0.246,2,V,11.0
V11,37.0,74.0,54.0,68.0,62.0,74,2579.0,square1,i,0.215,0,V,11.0
V11,38.0,80.0,57.0,65.0,58.0,80,2659.0,square1,i,0.281,0,V,11.0
V11,39.0,73.0,52.0,75.0,66.0,73,2732.0,square1,i,0.297,0,V,11.0
V11,40.0,82.0,57.0,71.0,57.0,82,2814.0,square1,i,0.248,0,V,11.0
V11,41.0,78.0,53.0,73.0,64.0,78,2892.0,square1,i,0.298,0,V,11.0
V11,42.0,72.0,56.0,67.0,59.0,72,2964.0,square1,i,0.237,0,V,11.0
V11,43.0,81.0,54.0,73.0,63.0,81,3045.0,square1,i,0.269,0,V,11.0
V11,44.0,76.0,54.0,75.0,59.0,76,3121.0,square1,i,0.33,0,V,11.0
V11,45.0,79.0,59.0,71.0,64.0,79,3200.0,square1,i,0.268,0,V,11.0
V11,46.0,80.0,55.0,67.0,57.0,80,3280.0,square1,i,0.249,0,V,11.0
V11,47.0,84.0,53.0,75.0,56.0,84,3364.0,square1,i,0.149,0,V,11.0
V11,48.0,83.0,57.0,71.0,60.0,83,3447.0,square1,i,0.233,0,V,11.0
V11,49.0,79.0,52.0,71.0,60.0,79,3526.0,square1,i,0.131,0,V,11.0
V11,50.0,76.0,50.0,69.0,60.0,76,3602.0,square1,i,0.097,0,V,11.0
V11,51.0,79.0,54.0,72.0,57.0,79,3681.0,square1,i,0.05,0,V,11.0
V11,52.0,80.0,54.0,72.0,64.0,80,3761.0,square1,i,0.249,0,V,11.0
V11,53.0,35.0,50.0,55.0,69.0,35,3796.0,square1,i,0.218,0,V,11.0
V11,54.0,45.0,48.0,55.0,73.0,48,3844.0,square2,r,0.247,1,V,11.0
V11,55.0,43.0,53.0,58.0,70.0,58,3902.0,square3,f,0.331,2,V,11.0
V11,56.0,40.0,46.0,60.0,62.0,62,3964.0,square4,j,0.431,3,V,11.0
V11,57.0,44.0,46.0,53.0,71.0,71,4035.0,square4,j,0.251,3,V,11.0
V11,58.0,44.0,52.0,55.0,68.0,68,4103.0,square4,j,0.237,3,V,11.0
V11,59.0,44.0,44.0,57.0,66.0,66,4169.0,square4,j,0.163,3,V,11.0
V11,60.0,40.0,46.0,57.0,62.0,46,4215.0,square2,r,0.466,1,V,11.0
V11,61.0,42.0,52.0,58.0,62.0,58,4273.0,square3,f,0.286,2,V,11.0
V11,62.0,40.0,49.0,56.0,71.0,40,4313.0,square1,i,0.114,0,V,11.0
V11,63.0,40.0,54.0,60.0,66.0,66,4379.0,square4,j,0.149,3,V,11.0
V11,64.0,41.0,43.0,51.0,66.0,66,4445.0,square4,j,0.097,3,V,11.0
V11,65.0,39.0,48.0,59.0,66.0,66,4511.0,square4,j,0.0,3,V,11.0
V11,66.0,40.0,48.0,59.0,69.0,69,4580.0,square4,j,0.183,3,V,11.0
V11,67.0,46.0,45.0,58.0,69.0,69,4649.0,square4,j,0.081,3,V,11.0
V11,68.0,41.0,50.0,56.0,69.0,69,4718.0,square4,j,0.148,3,V,11.0
V11,69.0,48.0,49.0,57.0,71.0,71,4789.0,square4,j,0.014,3,V,11.0
V11,70.0,41.0,47.0,58.0,65.0,65,4854.0,square4,j,0.112,3,V,11.0
V11,71.0,37.0,46.0,58.0,60.0,60,4914.0,square4,j,0.217,3,V,11.0
V11,72.0,41.0,47.0,54.0,65.0,65,4979.0,square4,j,0.259,3,V,11.0
V11,73.0,42.0,47.0,60.0,67.0,47,5026.0,square2,r,0.281,1,V,11.0
V11,74.0,43.0,49.0,57.0,64.0,43,5069.0,square1,i,0.23,0,V,11.0
V11,75.0,38.0,46.0,57.0,66.0,57,5126.0,square3,f,0.247,2,V,11.0
V11,76.0,42.0,50.0,58.0,68.0,68,5194.0,square4,j,0.231,3,V,11.0
V11,77.0,36.0,49.0,58.0,64.0,64,5258.0,square4,j,0.064,3,V,11.0
V11,78.0,40.0,50.0,56.0,67.0,67,5325.0,square4,j,0.03,3,V,11.0
V11,79.0,39.0,48.0,56.0,67.0,67,5392.0,square4,j,0.183,3,V,11.0
V11,80.0,51.0,33.0,30.0,45.0,45,5437.0,square4,j,0.116,3,V,11.0
V11,81.0,49.0,31.0,23.0,48.0,48,5485.0,square4,j,0.214,3,V,11.0
V11,82.0,55.0,30.0,25.0,42.0,30,5515.0,square2,r,0.041,1,V,11.0
V11,83.0,50.0,33.0,27.0,48.0,27,5542.0,square3,f,0.179,2,V,11.0
V11,84.0,52.0,34.0,25.0,43.0,52,5594.0,square1,i,0.105,0,V,11.0
V11,85.0,49.0,28.0,28.0,44.0,49,5643.0,square1,i,0.149,0,V,11.0
V11,86.0,57.0,29.0,27.0,48.0,57,5700.0,square1,i,0.166,0,V,11.0
V11,87.0,49.0,29.0,21.0,38.0,49,5749.0,square1,i,0.085,0,V,11.0
V11,88.0,55.0,32.0,29.0,46.0,55,5804.0,square1,i,0.021,0,V,11.0
V11,89.0,50.0,28.0,23.0,43.0,50,5854.0,square1,i,0.082,0,V,11.0
V11,90.0,54.0,34.0,32.0,41.0,54,5908.0,square1,i,0.154,0,V,11.0
V11,91.0,50.0,34.0,26.0,44.0,50,5958.0,square1,i,0.131,0,V,11.0
V11,92.0,51.0,31.0,27.0,50.0,51,6009.0,square1,i,0.051,0,V,11.0
V11,93.0,49.0,38.0,28.0,42.0,49,6058.0,square1,i,0.082,0,V,11.0
V11,94.0,50.0,29.0,25.0,46.0,50,6108.0,square1,i,0.082,0,V,11.0
V11,95.0,51.0,36.0,22.0,40.0,51,6159.0,square1,i,0.097,0,V,11.0
V11,96.0,52.0,34.0,32.0,45.0,52,6211.0,square1,i,0.1,0,V,11.0
V11,97.0,53.0,27.0,32.0,44.0,53,6264.0,square1,i,0.131,0,V,11.0
V11,98.0,60.0,31.0,25.0,48.0,60,6324.0,square1,i,0.082,0,V,11.0
V11,99.0,53.0,33.0,23.0,42.0,53,6377.0,square1,i,0.096,0,V,11.0
V5,0.0,46.0,21.0,37.0,28.0,46,46.0,square1,r,0.508,0,V,5.0
V5,1.0,43.0,27.0,36.0,31.0,36,82.0,square3,i,0.245,2,V,5.0
V5,2.0,50.0,18.0,43.0,32.0,32,114.0,square4,f,0.065,3,V,5.0
V5,3.0,53.0,23.0,36.0,34.0,23,137.0,square2,j,0.33,1,V,5.0
V5,4.0,52.0,19.0,38.0,34.0,52,189.0,square1,r,0.096,0,V,5.0
V5,5.0,50.0,22.0,41.0,29.0,50,239.0,square1,r,0.597,0,V,5.0
V5,6.0,52.0,19.0,40.0,33.0,52,291.0,square1,r,0.299,0,V,5.0
V5,7.0,48.0,24.0,36.0,27.0,36,327.0,square3,i,0.266,2,V,5.0
V5,8.0,50.0,24.0,35.0,33.0,50,377.0,square1,r,0.163,0,V,5.0
V5,9.0,48.0,25.0,39.0,34.0,48,425.0,square1,r,0.315,0,V,5.0
V5,10.0,52.0,19.0,32.0,34.0,34,459.0,square4,f,0.347,3,V,5.0
V5,11.0,48.0,22.0,32.0,32.0,22,481.0,square2,j,0.231,1,V,5.0
V5,12.0,47.0,17.0,43.0,29.0,47,528.0,square1,r,0.252,0,V,5.0
V5,13.0,46.0,21.0,42.0,29.0,46,574.0,square1,r,0.38,0,V,5.0
V5,14.0,47.0,28.0,42.0,28.0,47,621.0,square1,r,0.229,0,V,5.0
V5,15.0,50.0,29.0,38.0,36.0,50,671.0,square1,r,0.335,0,V,5.0
V5,16.0,49.0,24.0,36.0,34.0,49,720.0,square1,r,0.001,0,V,5.0
V5,17.0,50.0,20.0,38.0,35.0,50,770.0,square1,r,0.249,0,V,5.0
V5,18.0,49.0,22.0,46.0,29.0,49,819.0,square1,r,0.147,0,V,5.0
V5,19.0,46.0,23.0,40.0,31.0,46,865.0,square1,r,0.067,0,V,5.0
V5,20.0,51.0,22.0,41.0,28.0,51,916.0,square1,r,0.131,0,V,5.0
V5,21.0,51.0,26.0,36.0,31.0,51,967.0,square1,r,0.081,0,V,5.0
V5,22.0,47.0,18.0,41.0,28.0,47,1014.0,square1,r,0.213,0,V,5.0
V5,23.0,52.0,20.0,36.0,29.0,52,1066.0,square1,r,0.113,0,V,5.0
V5,24.0,51.0,21.0,41.0,34.0,51,1117.0,square1,r,0.231,0,V,5.0
V5,25.0,50.0,20.0,41.0,27.0,50,1167.0,square1,r,0.163,0,V,5.0
V5,26.0,49.0,29.0,37.0,28.0,49,1216.0,square1,r,0.097,0,V,5.0
V5,27.0,10.0,13.0,42.0,32.0,10,1226.0,square1,r,0.023,0,V,5.0
V5,28.0,9.0,19.0,40.0,27.0,40,1266.0,square3,i,0.197,2,V,5.0
V5,29.0,17.0,17.0,38.0,29.0,29,1295.0,square4,f,0.051,3,V,5.0
V5,30.0,8.0,18.0,36.0,29.0,18,1313.0,square2,j,0.085,1,V,5.0
V5,31.0,16.0,24.0,34.0,29.0,34,1347.0,square3,i,0.117,2,V,5.0
V5,32.0,9.0,17.0,35.0,31.0,35,1382.0,square3,i,0.132,2,V,5.0
V5,33.0,11.0,19.0,36.0,28.0,36,1418.0,square3,i,0.001,2,V,5.0
V5,34.0,10.0,19.0,38.0,28.0,38,1456.0,square3,i,0.151,2,V,5.0
V5,35.0,5.0,23.0,40.0,34.0,5,1461.0,square1,r,0.0,0,V,5.0
V5,36.0,17.0,20.0,36.0,31.0,31,1492.0,square4,f,0.403,3,V,5.0
V5,37.0,12.0,13.0,36.0,30.0,13,1505.0,square2,j,0.002,1,V,5.0
V5,38.0,14.0,24.0,35.0,27.0,35,1540.0,square3,i,0.047,2,V,5.0
V5,39.0,13.0,20.0,39.0,32.0,39,1579.0,square3,i,0.149,2,V,5.0
V5,40.0,9.0,15.0,37.0,24.0,37,1616.0,square3,i,0.029,2,V,5.0
V5,41.0,9.0,14.0,38.0,31.0,38,1654.0,square3,i,0.031,2,V,5.0
V5,42.0,14.0,17.0,43.0,31.0,43,1697.0,square3,i,0.008,2,V,5.0
V5,43.0,10.0,18.0,39.0,23.0,39,1736.0,square3,i,0.207,2,V,5.0
V5,44.0,10.0,20.0,33.0,32.0,33,1769.0,square3,i,0.034,2,V,5.0
V5,45.0,16.0,17.0,37.0,29.0,37,1806.0,square3,i,0.047,2,V,5.0
V5,46.0,9.0,22.0,37.0,25.0,37,1843.0,square3,i,0.071,2,V,5.0
V5,47.0,10.0,22.0,35.0,26.0,35,1878.0,square3,i,0.001,2,V,5.0
V5,48.0,11.0,16.0,39.0,23.0,39,1917.0,square3,i,0.132,2,V,5.0
V5,49.0,13.0,16.0,33.0,27.0,33,1950.0,square3,i,0.165,2,V,5.0
V5,50.0,12.0,16.0,39.0,24.0,39,1989.0,square3,i,0.083,2,V,5.0
V5,51.0,10.0,21.0,43.0,28.0,43,2032.0,square3,i,0.031,2,V,5.0
V5,52.0,8.0,15.0,36.0,28.0,36,2068.0,square3,i,0.156,2,V,5.0
V5,53.0,38.0,20.0,31.0,54.0,31,2099.0,square3,i,0.0,2,V,5.0
V5,54.0,39.0,20.0,35.0,51.0,35,2134.0,square3,i,0.187,2,V,5.0
V5,55.0,41.0,21.0,27.0,50.0,27,2161.0,square3,i,0.016,2,V,5.0
V5,56.0,39.0,23.0,28.0,49.0,28,2189.0,square3,i,0.036,2,V,5.0
V5,57.0,36.0,28.0,29.0,59.0,29,2218.0,square3,i,0.08,2,V,5.0
V5,58.0,38.0,22.0,28.0,49.0,49,2267.0,square4,f,0.13,3,V,5.0
V5,59.0,44.0,23.0,30.0,51.0,51,2318.0,square4,f,0.05,3,V,5.0
V5,60.0,43.0,21.0,31.0,48.0,48,2366.0,square4,f,0.114,3,V,5.0
V5,61.0,39.0,24.0,35.0,50.0,50,2416.0,square4,f,0.031,3,V,5.0
V5,62.0,38.0,25.0,31.0,52.0,52,2468.0,square4,f,0.0,3,V,5.0
V5,63.0,41.0,14.0,31.0,52.0,52,2520.0,square4,f,0.136,3,V,5.0
V5,64.0,43.0,23.0,30.0,51.0,51,2571.0,square4,f,0.007,3,V,5.0
V5,65.0,41.0,23.0,35.0,52.0,52,2623.0,square4,f,0.117,3,V,5.0
V5,66.0,41.0,17.0,33.0,47.0,47,2670.0,square4,f,0.096,3,V,5.0
V5,67.0,44.0,23.0,32.0,49.0,49,2719.0,square4,f,0.152,3,V,5.0
V5,68.0,44.0,24.0,31.0,44.0,44,2763.0,square4,f,0.099,3,V,5.0
V5,69.0,43.0,28.0,27.0,48.0,48,2811.0,square4,f,0.079,3,V,5.0
V5,70.0,38.0,22.0,26.0,50.0,50,2861.0,square4,f,0.147,3,V,5.0
V5,71.0,41.0,29.0,26.0,53.0,53,2914.0,square4,f,0.037,3,V,5.0
V5,72.0,40.0,20.0,28.0,51.0,51,2965.0,square4,f,0.214,3,V,5.0
V5,73.0,59.0,44.0,51.0,35.0,35,3000.0,square4,f,0.105,3,V,5.0
V5,74.0,60.0,38.0,55.0,43.0,38,3038.0,square2,j,0.548,1,V,5.0
V5,75.0,63.0,45.0,50.0,37.0,45,3083.0,square2,j,0.014,1,V,5.0
V5,76.0,62.0,42.0,50.0,37.0,42,3125.0,square2,j,0.113,1,V,5.0
V5,77.0,57.0,37.0,52.0,35.0,37,3162.0,square2,j,0.097,1,V,5.0
V5,78.0,66.0,45.0,54.0,37.0,45,3207.0,square2,j,0.018,1,V,5.0
V5,79.0,64.0,37.0,48.0,35.0,37,3244.0,square2,j,0.05,1,V,5.0
V5,80.0,63.0,40.0,56.0,38.0,40,3284.0,square2,j,0.03,1,V,5.0
V5,81.0,62.0,41.0,54.0,32.0,41,3325.0,square2,j,0.021,1,V,5.0
V5,82.0,58.0,41.0,59.0,39.0,41,3366.0,square2,j,0.103,1,V,5.0
V5,83.0,66.0,46.0,54.0,35.0,46,3412.0,square2,j,0.081,1,V,5.0
V5,84.0,67.0,44.0,52.0,33.0,44,3456.0,square2,j,0.13,1,V,5.0
V5,85.0,67.0,45.0,46.0,36.0,45,3501.0,square2,j,0.119,1,V,5.0
V5,86.0,65.0,44.0,51.0,38.0,44,3545.0,square2,j,0.074,1,V,5.0
V5,87.0,64.0,49.0,48.0,35.0,49,3594.0,square2,j,0.148,1,V,5.0
V5,88.0,68.0,47.0,56.0,36.0,47,3641.0,square2,j,0.147,1,V,5.0
V5,89.0,60.0,42.0,57.0,32.0,42,3683.0,square2,j,0.136,1,V,5.0
V5,90.0,59.0,43.0,53.0,34.0,43,3726.0,square2,j,0.135,1,V,5.0
V5,91.0,64.0,43.0,51.0,34.0,43,3769.0,square2,j,0.181,1,V,5.0
V5,92.0,65.0,41.0,57.0,38.0,41,3810.0,square2,j,0.149,1,V,5.0
V5,93.0,59.0,48.0,54.0,40.0,48,3858.0,square2,j,0.153,1,V,5.0
V5,94.0,66.0,44.0,53.0,43.0,44,3902.0,square2,j,0.184,1,V,5.0
V5,95.0,63.0,43.0,50.0,40.0,43,3945.0,square2,j,0.186,1,V,5.0
V5,96.0,62.0,44.0,50.0,33.0,44,3989.0,square2,j,0.201,1,V,5.0
V5,97.0,64.0,49.0,55.0,37.0,49,4038.0,square2,j,0.001,1,V,5.0
V5,98.0,65.0,44.0,53.0,36.0,44,4082.0,square2,j,0.166,1,V,5.0
V5,99.0,65.0,42.0,55.0,35.0,42,4124.0,square2,j,1.049,1,V,5.0
V6,0.0,43.0,59.0,68.0,49.0,49,49.0,square4,r,1.376,3,V,6.0
V6,1.0,43.0,62.0,71.0,50.0,62,111.0,square2,i,0.279,1,V,6.0
V6,2.0,48.0,61.0,72.0,51.0,72,183.0,square3,f,0.015,2,V,6.0
V6,3.0,46.0,55.0,71.0,51.0,46,229.0,square1,j,0.231,0,V,6.0
V6,4.0,44.0,61.0,74.0,48.0,74,303.0,square3,f,0.134,2,V,6.0
V6,5.0,45.0,62.0,70.0,51.0,70,373.0,square3,f,0.016,2,V,6.0
V6,6.0,42.0,67.0,73.0,46.0,73,446.0,square3,f,0.154,2,V,6.0
V6,7.0,44.0,63.0,71.0,53.0,71,517.0,square3,f,0.096,2,V,6.0
V6,8.0,41.0,62.0,73.0,52.0,73,590.0,square3,f,0.101,2,V,6.0
V6,9.0,46.0,59.0,72.0,54.0,72,662.0,square3,f,0.081,2,V,6.0
V6,10.0,45.0,59.0,70.0,53.0,70,732.0,square3,f,0.181,2,V,6.0
V6,11.0,45.0,60.0,70.0,49.0,70,802.0,square3,f,0.068,2,V,6.0
V6,12.0,45.0,66.0,64.0,48.0,64,866.0,square3,f,0.08,2,V,6.0
V6,13.0,45.0,61.0,69.0,47.0,69,935.0,square3,f,0.067,2,V,6.0
V6,14.0,47.0,60.0,71.0,56.0,71,1006.0,square3,f,0.02,2,V,6.0
V6,15.0,46.0,64.0,67.0,52.0,67,1073.0,square3,f,0.098,2,V,6.0
V6,16.0,50.0,60.0,69.0,54.0,69,1142.0,square3,f,0.115,2,V,6.0
V6,17.0,43.0,60.0,70.0,53.0,70,1212.0,square3,f,0.129,2,V,6.0
V6,18.0,46.0,63.0,72.0,55.0,72,1284.0,square3,f,0.08,2,V,6.0
V6,19.0,46.0,65.0,73.0,51.0,73,1357.0,square3,f,0.003,2,V,6.0
V6,20.0,44.0,63.0,66.0,51.0,66,1423.0,square3,f,0.097,2,V,6.0
V6,21.0,43.0,63.0,70.0,49.0,70,1493.0,square3,f,0.03,2,V,6.0
V6,22.0,45.0,63.0,71.0,50.0,71,1564.0,square3,f,0.117,2,V,6.0
V6,23.0,45.0,38.0,28.0,60.0,28,1592.0,square3,f,0.085,2,V,6.0
V6,24.0,46.0,33.0,33.0,53.0,53,1645.0,square4,r,0.714,3,V,6.0
V6,25.0,45.0,36.0,32.0,63.0,36,1681.0,square2,i,0.05,1,V,6.0
V6,26.0,52.0,37.0,28.0,57.0,52,1733.0,square1,j,0.144,0,V,6.0
V6,27.0,45.0,33.0,30.0,62.0,62,1795.0,square4,r,0.182,3,V,6.0
V6,28.0,43.0,37.0,24.0,51.0,43,1838.0,square1,j,0.015,0,V,6.0
V6,29.0,48.0,39.0,34.0,61.0,61,1899.0,square4,r,0.001,3,V,6.0
V6,30.0,48.0,44.0,35.0,59.0,59,1958.0,square4,r,0.031,3,V,6.0
V6,31.0,50.0,39.0,34.0,53.0,53,2011.0,square4,r,0.08,3,V,6.0
V6,32.0,44.0,33.0,33.0,54.0,54,2065.0,square4,r,0.047,3,V,6.0
V6,33.0,48.0,37.0,30.0,56.0,56,2121.0,square4,r,0.054,3,V,6.0
V6,34.0,52.0,37.0,27.0,59.0,59,2180.0,square4,r,0.08,3,V,6.0
V6,35.0,47.0,32.0,29.0,59.0,59,2239.0,square4,r,0.061,3,V,6.0
V6,36.0,45.0,37.0,27.0,56.0,56,2295.0,square4,r,0.067,3,V,6.0
V6,37.0,39.0,37.0,31.0,57.0,57,2352.0,square4,r,0.098,3,V,6.0
V6,38.0,50.0,38.0,29.0,56.0,56,2408.0,square4,r,0.068,3,V,6.0
V6,39.0,48.0,37.0,27.0,57.0,57,2465.0,square4,r,0.114,3,V,6.0
V6,40.0,53.0,37.0,29.0,57.0,57,2522.0,square4,r,0.101,3,V,6.0
V6,41.0,41.0,34.0,33.0,58.0,58,2580.0,square4,r,0.065,3,V,6.0
V6,42.0,50.0,37.0,31.0,57.0,57,2637.0,square4,r,0.163,3,V,6.0
V6,43.0,48.0,34.0,30.0,58.0,58,2695.0,square4,r,0.148,3,V,6.0
V6,44.0,44.0,37.0,33.0,60.0,60,2755.0,square4,r,0.164,3,V,6.0
V6,45.0,44.0,32.0,33.0,55.0,55,2810.0,square4,r,0.064,3,V,6.0
V6,46.0,44.0,36.0,33.0,59.0,59,2869.0,square4,r,0.069,3,V,6.0
V6,47.0,42.0,34.0,29.0,52.0,52,2921.0,square4,r,0.075,3,V,6.0
V6,48.0,46.0,41.0,28.0,60.0,60,2981.0,square4,r,0.099,3,V,6.0
V6,49.0,46.0,40.0,27.0,55.0,55,3036.0,square4,r,0.079,3,V,6.0
V6,50.0,46.0,41.0,32.0,55.0,55,3091.0,square4,r,0.113,3,V,6.0
V6,51.0,41.0,39.0,30.0,55.0,55,3146.0,square4,r,0.105,3,V,6.0
V6,52.0,47.0,37.0,31.0,55.0,47,3193.0,square1,j,0.023,0,V,6.0
V6,53.0,57.0,36.0,30.0,58.0,36,3229.0,square2,i,0.096,1,V,6.0
V6,54.0,42.0,38.0,28.0,50.0,28,3257.0,square3,f,0.084,2,V,6.0
V6,55.0,56.0,42.0,67.0,46.0,46,3303.0,square4,r,0.145,3,V,6.0
V6,56.0,54.0,37.0,68.0,46.0,46,3349.0,square4,r,0.085,3,V,6.0
V6,57.0,57.0,40.0,64.0,52.0,52,3401.0,square4,r,0.117,3,V,6.0
V6,58.0,53.0,45.0,68.0,45.0,45,3446.0,square4,r,0.1,3,V,6.0
V6,59.0,59.0,41.0,69.0,49.0,49,3495.0,square4,r,0.088,3,V,6.0
V6,60.0,62.0,41.0,71.0,51.0,62,3557.0,square1,j,0.13,0,V,6.0
V6,61.0,58.0,50.0,72.0,51.0,58,3615.0,square1,j,0.064,0,V,6.0
V6,62.0,61.0,43.0,65.0,47.0,61,3676.0,square1,j,0.163,0,V,6.0
V6,63.0,55.0,40.0,67.0,51.0,55,3731.0,square1,j,0.012,0,V,6.0
V6,64.0,56.0,43.0,67.0,47.0,56,3787.0,square1,j,0.057,0,V,6.0
V6,65.0,62.0,46.0,67.0,48.0,62,3849.0,square1,j,0.015,0,V,6.0
V6,66.0,55.0,44.0,67.0,48.0,55,3904.0,square1,j,0.056,0,V,6.0
V6,67.0,61.0,46.0,70.0,49.0,61,3965.0,square1,j,0.098,0,V,6.0
V6,68.0,63.0,41.0,72.0,46.0,63,4028.0,square1,j,0.08,0,V,6.0
V6,69.0,59.0,41.0,68.0,48.0,59,4087.0,square1,j,0.068,0,V,6.0
V6,70.0,59.0,37.0,70.0,45.0,59,4146.0,square1,j,0.082,0,V,6.0
V6,71.0,83.0,64.0,56.0,70.0,83,4229.0,square1,j,0.081,0,V,6.0
V6,72.0,82.0,59.0,53.0,75.0,82,4311.0,square1,j,0.099,0,V,6.0
V6,73.0,85.0,67.0,58.0,73.0,85,4396.0,square1,j,0.097,0,V,6.0
V6,74.0,79.0,67.0,61.0,73.0,79,4475.0,square1,j,0.101,0,V,6.0
V6,75.0,84.0,62.0,53.0,69.0,84,4559.0,square1,j,0.169,0,V,6.0
V6,76.0,81.0,60.0,55.0,76.0,81,4640.0,square1,j,0.129,0,V,6.0
V6,77.0,84.0,61.0,60.0,72.0,84,4724.0,square1,j,0.097,0,V,6.0
V6,78.0,90.0,61.0,54.0,74.0,90,4814.0,square1,j,0.101,0,V,6.0
V6,79.0,80.0,64.0,51.0,75.0,80,4894.0,square1,j,0.148,0,V,6.0
V6,80.0,85.0,62.0,56.0,78.0,85,4979.0,square1,j,0.146,0,V,6.0
V6,81.0,86.0,65.0,58.0,69.0,86,5065.0,square1,j,0.179,0,V,6.0
V6,82.0,83.0,62.0,58.0,77.0,83,5148.0,square1,j,0.097,0,V,6.0
V6,83.0,87.0,61.0,59.0,70.0,87,5235.0,square1,j,0.097,0,V,6.0
V6,84.0,89.0,65.0,54.0,78.0,89,5324.0,square1,j,0.114,0,V,6.0
V6,85.0,78.0,63.0,55.0,75.0,78,5402.0,square1,j,0.147,0,V,6.0
V6,86.0,87.0,67.0,52.0,75.0,87,5489.0,square1,j,0.136,0,V,6.0
V6,87.0,86.0,62.0,60.0,75.0,86,5575.0,square1,j,0.183,0,V,6.0
V6,88.0,79.0,67.0,56.0,76.0,79,5654.0,square1,j,0.183,0,V,6.0
V6,89.0,83.0,61.0,57.0,75.0,83,5737.0,square1,j,0.131,0,V,6.0
V6,90.0,83.0,67.0,51.0,76.0,83,5820.0,square1,j,0.119,0,V,6.0
V6,91.0,83.0,63.0,55.0,69.0,83,5903.0,square1,j,0.131,0,V,6.0
V6,92.0,89.0,56.0,53.0,68.0,89,5992.0,square1,j,0.164,0,V,6.0
V6,93.0,84.0,61.0,59.0,74.0,84,6076.0,square1,j,0.069,0,V,6.0
V6,94.0,77.0,58.0,58.0,76.0,77,6153.0,square1,j,0.149,0,V,6.0
V6,95.0,82.0,60.0,53.0,74.0,82,6235.0,square1,j,0.18,0,V,6.0
V6,96.0,87.0,61.0,56.0,71.0,87,6322.0,square1,j,0.198,0,V,6.0
V6,97.0,83.0,66.0,55.0,75.0,83,6405.0,square1,j,0.028,0,V,6.0
V6,98.0,81.0,63.0,55.0,76.0,81,6486.0,square1,j,0.097,0,V,6.0
V6,99.0,92.0,63.0,61.0,78.0,92,6578.0,square1,j,0.163,0,V,6.0
NS11,0.0,78.0,37.0,30.0,78.0,30,30.0,square3,r,1.023,2,N,11.0
NS11,1.0,85.0,34.0,30.0,76.0,76,106.0,square4,i,0.07,3,N,11.0
NS11,2.0,79.0,33.0,36.0,77.0,79,185.0,square1,f,0.001,0,N,11.0
NS11,3.0,82.0,33.0,28.0,72.0,33,218.0,square2,j,0.098,1,N,11.0
NS11,4.0,82.0,34.0,33.0,76.0,82,300.0,square1,f,0.0,0,N,11.0
NS11,5.0,78.0,38.0,32.0,83.0,83,383.0,square4,i,0.055,3,N,11.0
NS11,6.0,78.0,37.0,34.0,77.0,78,461.0,square1,f,0.029,0,N,11.0
NS11,7.0,80.0,30.0,33.0,74.0,74,535.0,square4,i,0.098,3,N,11.0
NS11,8.0,79.0,32.0,30.0,73.0,79,614.0,square1,f,0.113,0,N,11.0
NS11,9.0,81.0,41.0,34.0,61.0,61,675.0,square4,i,0.1,3,N,11.0
NS11,10.0,76.0,38.0,25.0,64.0,76,751.0,square1,f,0.269,0,N,11.0
NS11,11.0,79.0,34.0,27.0,65.0,65,816.0,square4,i,0.128,3,N,11.0
NS11,12.0,81.0,32.0,25.0,68.0,81,897.0,square1,f,0.079,0,N,11.0
NS11,13.0,84.0,36.0,24.0,64.0,64,961.0,square4,i,0.178,3,N,11.0
NS11,14.0,80.0,30.0,24.0,61.0,80,1041.0,square1,f,0.167,0,N,11.0
NS11,15.0,86.0,33.0,22.0,66.0,86,1127.0,square1,f,0.104,0,N,11.0
NS11,16.0,85.0,32.0,20.0,64.0,85,1212.0,square1,f,0.081,0,N,11.0
NS11,17.0,83.0,32.0,22.0,71.0,83,1295.0,square1,f,0.002,0,N,11.0
NS11,18.0,80.0,31.0,19.0,66.0,80,1375.0,square1,f,0.145,0,N,11.0
NS11,19.0,75.0,40.0,23.0,69.0,75,1450.0,square1,f,0.081,0,N,11.0
NS11,20.0,73.0,37.0,14.0,67.0,73,1523.0,square1,f,0.081,0,N,11.0
NS11,21.0,81.0,34.0,23.0,70.0,81,1604.0,square1,f,0.05,0,N,11.0
NS11,22.0,77.0,39.0,16.0,73.0,77,1681.0,square1,f,0.08,0,N,11.0
NS11,23.0,78.0,30.0,23.0,74.0,78,1759.0,square1,f,0.085,0,N,11.0
NS11,24.0,80.0,32.0,26.0,68.0,80,1839.0,square1,f,0.007,0,N,11.0
NS11,25.0,81.0,29.0,29.0,73.0,81,1920.0,square1,f,0.015,0,N,11.0
NS11,26.0,77.0,31.0,26.0,69.0,77,1997.0,square1,f,0.051,0,N,11.0
NS11,27.0,69.0,47.0,29.0,64.0,69,2066.0,square1,f,0.148,0,N,11.0
NS11,28.0,69.0,39.0,28.0,71.0,69,2135.0,square1,f,0.0,0,N,11.0
NS11,29.0,71.0,41.0,24.0,66.0,71,2206.0,square1,f,0.046,0,N,11.0
NS11,30.0,70.0,40.0,21.0,68.0,70,2276.0,square1,f,0.081,0,N,11.0
NS11,31.0,72.0,44.0,21.0,68.0,68,2344.0,square4,i,0.0,3,N,11.0
NS11,32.0,72.0,41.0,19.0,75.0,19,2363.0,square3,r,0.013,2,N,11.0
NS11,33.0,66.0,48.0,21.0,72.0,48,2411.0,square2,j,0.179,1,N,11.0
NS11,34.0,67.0,48.0,24.0,72.0,72,2483.0,square4,i,0.08,3,N,11.0
NS11,35.0,58.0,52.0,14.0,73.0,99999,2483.0,invalid,,,-1,N,11.0
NS11,36.0,61.0,52.0,23.0,70.0,70,2553.0,square4,i,1.027,3,N,11.0
NS11,37.0,50.0,55.0,29.0,67.0,67,2620.0,square4,i,0.013,3,N,11.0
NS11,38.0,51.0,54.0,20.0,64.0,64,2684.0,square4,i,0.132,3,N,11.0
NS11,39.0,54.0,49.0,26.0,63.0,63,2747.0,square4,i,1.223,3,N,11.0
NS11,40.0,50.0,47.0,24.0,70.0,70,2817.0,square4,i,0.369,3,N,11.0
NS11,41.0,54.0,46.0,23.0,63.0,63,2880.0,square4,i,0.237,3,N,11.0
NS11,42.0,54.0,47.0,25.0,61.0,99999,2880.0,invalid,,,-1,N,11.0
NS11,43.0,46.0,49.0,33.0,72.0,72,2952.0,square4,i,1.039,3,N,11.0
NS11,44.0,54.0,50.0,38.0,72.0,72,3024.0,square4,i,0.079,3,N,11.0
NS11,45.0,56.0,53.0,39.0,81.0,81,3105.0,square4,i,0.088,3,N,11.0
NS11,46.0,57.0,55.0,33.0,77.0,77,3182.0,square4,i,0.06,3,N,11.0
NS11,47.0,56.0,51.0,32.0,76.0,76,3258.0,square4,i,0.029,3,N,11.0
NS11,48.0,58.0,49.0,29.0,85.0,85,3343.0,square4,i,0.047,3,N,11.0
NS11,49.0,58.0,53.0,27.0,83.0,83,3426.0,square4,i,0.095,3,N,11.0
NS11,50.0,62.0,49.0,24.0,80.0,80,3506.0,square4,i,0.048,3,N,11.0
NS11,51.0,57.0,55.0,23.0,77.0,77,3583.0,square4,i,0.096,3,N,11.0
NS11,52.0,56.0,55.0,20.0,77.0,77,3660.0,square4,i,0.065,3,N,11.0
NS11,53.0,59.0,56.0,20.0,78.0,78,3738.0,square4,i,0.063,3,N,11.0
NS11,54.0,58.0,57.0,27.0,74.0,74,3812.0,square4,i,0.08,3,N,11.0
NS11,55.0,60.0,55.0,24.0,79.0,79,3891.0,square4,i,0.048,3,N,11.0
NS11,56.0,60.0,52.0,22.0,77.0,77,3968.0,square4,i,0.064,3,N,11.0
NS11,57.0,58.0,55.0,22.0,72.0,72,4040.0,square4,i,0.001,3,N,11.0
NS11,58.0,63.0,52.0,22.0,75.0,75,4115.0,square4,i,0.083,3,N,11.0
NS11,59.0,62.0,56.0,17.0,70.0,70,4185.0,square4,i,0.097,3,N,11.0
NS11,60.0,61.0,55.0,22.0,70.0,70,4255.0,square4,i,0.035,3,N,11.0
NS11,61.0,57.0,52.0,21.0,76.0,76,4331.0,square4,i,0.064,3,N,11.0
NS11,62.0,57.0,48.0,28.0,75.0,75,4406.0,square4,i,0.062,3,N,11.0
NS11,63.0,57.0,58.0,30.0,68.0,68,4474.0,square4,i,0.0,3,N,11.0
NS11,64.0,61.0,61.0,27.0,74.0,74,4548.0,square4,i,0.001,3,N,11.0
NS11,65.0,67.0,63.0,40.0,71.0,71,4619.0,square4,i,0.079,3,N,11.0
NS11,66.0,69.0,55.0,38.0,73.0,73,4692.0,square4,i,0.066,3,N,11.0
NS11,67.0,72.0,57.0,36.0,65.0,65,4757.0,square4,i,0.147,3,N,11.0
NS11,68.0,71.0,61.0,36.0,64.0,64,4821.0,square4,i,0.013,3,N,11.0
NS11,69.0,74.0,66.0,37.0,58.0,58,4879.0,square4,i,0.0,3,N,11.0
NS11,70.0,69.0,60.0,40.0,66.0,40,4919.0,square3,r,0.012,2,N,11.0
NS11,71.0,71.0,58.0,40.0,64.0,71,4990.0,square1,f,0.031,0,N,11.0
NS11,72.0,72.0,58.0,46.0,67.0,58,5048.0,square2,j,0.015,1,N,11.0
NS11,73.0,72.0,56.0,47.0,65.0,72,5120.0,square1,f,0.103,0,N,11.0
NS11,74.0,66.0,54.0,47.0,63.0,66,5186.0,square1,f,0.119,0,N,11.0
NS11,75.0,75.0,53.0,43.0,58.0,75,5261.0,square1,f,0.162,0,N,11.0
NS11,76.0,75.0,48.0,40.0,59.0,75,5336.0,square1,f,0.102,0,N,11.0
NS11,77.0,65.0,48.0,36.0,58.0,65,5401.0,square1,f,0.15,0,N,11.0
NS11,78.0,70.0,45.0,37.0,59.0,70,5471.0,square1,f,0.13,0,N,11.0
NS11,79.0,70.0,41.0,36.0,59.0,70,5541.0,square1,f,0.152,0,N,11.0
NS11,80.0,73.0,43.0,39.0,59.0,73,5614.0,square1,f,0.017,0,N,11.0
NS11,81.0,72.0,39.0,38.0,60.0,60,5674.0,square4,i,0.096,3,N,11.0
NS11,82.0,72.0,39.0,44.0,65.0,72,5746.0,square1,f,0.174,0,N,11.0
NS11,83.0,68.0,38.0,40.0,61.0,68,5814.0,square1,f,0.016,0,N,11.0
NS11,84.0,69.0,36.0,36.0,64.0,69,5883.0,square1,f,0.046,0,N,11.0
NS11,85.0,70.0,34.0,40.0,69.0,70,5953.0,square1,f,0.048,0,N,11.0
NS11,86.0,70.0,32.0,36.0,71.0,70,6023.0,square1,f,0.001,0,N,11.0
NS11,87.0,69.0,31.0,37.0,70.0,69,6092.0,square1,f,0.002,0,N,11.0
NS11,88.0,69.0,34.0,41.0,67.0,69,6161.0,square1,f,0.001,0,N,11.0
NS11,89.0,67.0,39.0,44.0,67.0,67,6228.0,square1,f,0.063,0,N,11.0
NS11,90.0,64.0,33.0,36.0,69.0,64,6292.0,square1,f,0.047,0,N,11.0
NS11,91.0,60.0,33.0,38.0,67.0,60,6352.0,square1,f,0.003,0,N,11.0
NS11,92.0,60.0,33.0,37.0,68.0,60,6412.0,square1,f,0.062,0,N,11.0
NS11,93.0,54.0,36.0,38.0,73.0,73,6485.0,square4,i,0.146,3,N,11.0
NS11,94.0,58.0,35.0,39.0,68.0,39,6524.0,square3,r,0.083,2,N,11.0
NS11,95.0,50.0,38.0,32.0,77.0,38,6562.0,square2,j,1.236,1,N,11.0
NS11,96.0,53.0,42.0,30.0,71.0,71,6633.0,square4,i,0.147,3,N,11.0
NS11,97.0,54.0,38.0,32.0,75.0,75,6708.0,square4,i,0.082,3,N,11.0
NS11,98.0,52.0,48.0,32.0,72.0,72,6780.0,square4,i,0.146,3,N,11.0
NS11,99.0,55.0,45.0,33.0,73.0,73,6853.0,square4,i,0.154,3,N,11.0
NS2,0.0,44.0,66.0,42.0,38.0,99999,0.0,invalid,,,-1,N,2.0
NS2,1.0,44.0,66.0,47.0,43.0,66,66.0,square2,r,0.403,1,N,2.0
NS2,2.0,42.0,62.0,53.0,43.0,42,108.0,square1,i,0.089,0,N,2.0
NS2,3.0,46.0,58.0,48.0,46.0,48,156.0,square3,f,1.181,2,N,2.0
NS2,4.0,47.0,61.0,51.0,42.0,42,198.0,square4,j,0.158,3,N,2.0
NS2,5.0,51.0,58.0,50.0,50.0,58,256.0,square2,r,0.003,1,N,2.0
NS2,6.0,52.0,58.0,43.0,48.0,58,314.0,square2,r,0.044,1,N,2.0
NS2,7.0,50.0,52.0,43.0,50.0,52,366.0,square2,r,0.001,1,N,2.0
NS2,8.0,54.0,58.0,41.0,46.0,58,424.0,square2,r,0.03,1,N,2.0
NS2,9.0,52.0,59.0,42.0,46.0,52,476.0,square1,i,0.164,0,N,2.0
NS2,10.0,50.0,52.0,37.0,48.0,37,513.0,square3,f,0.002,2,N,2.0
NS2,11.0,45.0,56.0,38.0,43.0,43,556.0,square4,j,0.004,3,N,2.0
NS2,12.0,50.0,56.0,37.0,48.0,56,612.0,square2,r,0.084,1,N,2.0
NS2,13.0,47.0,63.0,36.0,49.0,63,675.0,square2,r,0.18,1,N,2.0
NS2,14.0,51.0,56.0,39.0,49.0,56,731.0,square2,r,0.016,1,N,2.0
NS2,15.0,46.0,64.0,39.0,50.0,64,795.0,square2,r,0.12,1,N,2.0
NS2,16.0,51.0,61.0,37.0,47.0,61,856.0,square2,r,0.148,1,N,2.0
NS2,17.0,59.0,68.0,46.0,53.0,68,924.0,square2,r,0.069,1,N,2.0
NS2,18.0,53.0,65.0,42.0,49.0,65,989.0,square2,r,0.084,1,N,2.0
NS2,19.0,52.0,67.0,47.0,49.0,67,1056.0,square2,r,0.172,1,N,2.0
NS2,20.0,56.0,64.0,45.0,48.0,64,1120.0,square2,r,0.139,1,N,2.0
NS2,21.0,57.0,73.0,46.0,44.0,73,1193.0,square2,r,0.034,1,N,2.0
NS2,22.0,54.0,76.0,36.0,47.0,76,1269.0,square2,r,0.03,1,N,2.0
NS2,23.0,55.0,77.0,35.0,42.0,77,1346.0,square2,r,0.151,1,N,2.0
NS2,24.0,53.0,68.0,35.0,46.0,68,1414.0,square2,r,0.066,1,N,2.0
NS2,25.0,55.0,73.0,29.0,45.0,73,1487.0,square2,r,0.08,1,N,2.0
NS2,26.0,52.0,69.0,30.0,49.0,69,1556.0,square2,r,0.13,1,N,2.0
NS2,27.0,52.0,62.0,33.0,52.0,62,1618.0,square2,r,0.031,1,N,2.0
NS2,28.0,58.0,62.0,33.0,47.0,62,1680.0,square2,r,0.146,1,N,2.0
NS2,29.0,56.0,65.0,38.0,46.0,65,1745.0,square2,r,0.08,1,N,2.0
NS2,30.0,56.0,66.0,37.0,50.0,66,1811.0,square2,r,0.045,1,N,2.0
NS2,31.0,50.0,64.0,35.0,45.0,64,1875.0,square2,r,0.166,1,N,2.0
NS2,32.0,56.0,62.0,38.0,45.0,62,1937.0,square2,r,0.023,1,N,2.0
NS2,33.0,59.0,58.0,34.0,48.0,58,1995.0,square2,r,0.066,1,N,2.0
NS2,34.0,55.0,59.0,36.0,48.0,59,2054.0,square2,r,0.147,1,N,2.0
NS2,35.0,54.0,57.0,33.0,48.0,54,2108.0,square1,i,0.132,0,N,2.0
NS2,36.0,53.0,58.0,34.0,51.0,34,2142.0,square3,f,0.58,2,N,2.0
NS2,37.0,46.0,53.0,32.0,55.0,55,2197.0,square4,j,0.068,3,N,2.0
NS2,38.0,46.0,59.0,37.0,49.0,46,2243.0,square1,i,0.001,0,N,2.0
NS2,39.0,53.0,59.0,36.0,48.0,48,2291.0,square4,j,0.131,3,N,2.0
NS2,40.0,46.0,60.0,37.0,42.0,60,2351.0,square2,r,0.033,1,N,2.0
NS2,41.0,51.0,57.0,42.0,41.0,57,2408.0,square2,r,0.097,1,N,2.0
NS2,42.0,49.0,53.0,46.0,41.0,53,2461.0,square2,r,0.182,1,N,2.0
NS2,43.0,49.0,57.0,43.0,39.0,57,2518.0,square2,r,0.011,1,N,2.0
NS2,44.0,48.0,55.0,48.0,37.0,55,2573.0,square2,r,0.012,1,N,2.0
NS2,45.0,49.0,52.0,34.0,36.0,52,2625.0,square2,r,0.004,1,N,2.0
NS2,46.0,50.0,46.0,39.0,34.0,46,2671.0,square2,r,0.032,1,N,2.0
NS2,47.0,55.0,48.0,39.0,26.0,55,2726.0,square1,i,0.148,0,N,2.0
NS2,48.0,55.0,42.0,41.0,31.0,55,2781.0,square1,i,0.262,0,N,2.0
NS2,49.0,55.0,41.0,36.0,36.0,55,2836.0,square1,i,0.117,0,N,2.0
NS2,50.0,50.0,43.0,43.0,36.0,50,2886.0,square1,i,0.063,0,N,2.0
NS2,51.0,49.0,40.0,44.0,32.0,49,2935.0,square1,i,0.061,0,N,2.0
NS2,52.0,54.0,45.0,40.0,32.0,54,2989.0,square1,i,0.067,0,N,2.0
NS2,53.0,55.0,44.0,42.0,38.0,42,3031.0,square3,f,0.081,2,N,2.0
NS2,54.0,57.0,44.0,42.0,37.0,37,3068.0,square4,j,0.063,3,N,2.0
NS2,55.0,56.0,47.0,35.0,29.0,47,3115.0,square2,r,0.028,1,N,2.0
NS2,56.0,56.0,45.0,31.0,36.0,56,3171.0,square1,i,0.0,0,N,2.0
NS2,57.0,48.0,43.0,33.0,36.0,48,3219.0,square1,i,0.029,0,N,2.0
NS2,58.0,46.0,44.0,30.0,40.0,46,3265.0,square1,i,0.001,0,N,2.0
NS2,59.0,45.0,36.0,33.0,37.0,45,3310.0,square1,i,0.05,0,N,2.0
NS2,60.0,45.0,37.0,32.0,38.0,37,3347.0,square2,r,0.097,1,N,2.0
NS2,61.0,47.0,37.0,31.0,37.0,47,3394.0,square1,i,1.697,0,N,2.0
NS2,62.0,46.0,36.0,28.0,34.0,46,3440.0,square1,i,0.114,0,N,2.0
NS2,63.0,53.0,36.0,26.0,43.0,53,3493.0,square1,i,0.012,0,N,2.0
NS2,64.0,53.0,37.0,24.0,45.0,53,3546.0,square1,i,0.001,0,N,2.0
NS2,65.0,49.0,34.0,27.0,49.0,49,3595.0,square1,i,0.041,0,N,2.0
NS2,66.0,50.0,30.0,26.0,57.0,50,3645.0,square1,i,0.064,0,N,2.0
NS2,67.0,49.0,28.0,32.0,55.0,49,3694.0,square1,i,0.069,0,N,2.0
NS2,68.0,53.0,23.0,35.0,55.0,53,3747.0,square1,i,0.031,0,N,2.0
NS2,69.0,49.0,29.0,33.0,51.0,49,3796.0,square1,i,0.055,0,N,2.0
NS2,70.0,54.0,27.0,30.0,60.0,54,3850.0,square1,i,0.113,0,N,2.0
NS2,71.0,57.0,28.0,31.0,59.0,57,3907.0,square1,i,0.084,0,N,2.0
NS2,72.0,55.0,25.0,29.0,61.0,55,3962.0,square1,i,0.103,0,N,2.0
NS2,73.0,63.0,29.0,31.0,56.0,63,4025.0,square1,i,0.0,0,N,2.0
NS2,74.0,59.0,34.0,34.0,58.0,59,4084.0,square1,i,0.046,0,N,2.0
NS2,75.0,58.0,37.0,31.0,53.0,58,4142.0,square1,i,0.098,0,N,2.0
NS2,76.0,62.0,41.0,25.0,53.0,62,4204.0,square1,i,0.014,0,N,2.0
NS2,77.0,60.0,37.0,30.0,52.0,60,4264.0,square1,i,0.064,0,N,2.0
NS2,78.0,63.0,37.0,37.0,50.0,63,4327.0,square1,i,0.152,0,N,2.0
NS2,79.0,66.0,44.0,32.0,47.0,47,4374.0,square4,j,0.024,3,N,2.0
NS2,80.0,65.0,41.0,30.0,45.0,30,4404.0,square3,f,0.069,2,N,2.0
NS2,81.0,60.0,37.0,26.0,49.0,37,4441.0,square2,r,0.101,1,N,2.0
NS2,82.0,68.0,38.0,28.0,46.0,68,4509.0,square1,i,0.046,0,N,2.0
NS2,83.0,63.0,42.0,30.0,49.0,63,4572.0,square1,i,0.049,0,N,2.0
NS2,84.0,71.0,41.0,37.0,51.0,71,4643.0,square1,i,0.03,0,N,2.0
NS2,85.0,63.0,47.0,29.0,40.0,63,4706.0,square1,i,0.095,0,N,2.0
NS2,86.0,67.0,42.0,36.0,44.0,67,4773.0,square1,i,0.047,0,N,2.0
NS2,87.0,62.0,45.0,31.0,41.0,62,4835.0,square1,i,0.063,0,N,2.0
NS2,88.0,63.0,39.0,32.0,44.0,63,4898.0,square1,i,0.037,0,N,2.0
NS2,89.0,66.0,39.0,37.0,39.0,66,4964.0,square1,i,0.18,0,N,2.0
NS2,90.0,53.0,38.0,35.0,40.0,53,5017.0,square1,i,0.08,0,N,2.0
NS2,91.0,57.0,39.0,38.0,43.0,57,5074.0,square1,i,0.002,0,N,2.0
NS2,92.0,53.0,36.0,40.0,47.0,53,5127.0,square1,i,0.08,0,N,2.0
NS2,93.0,47.0,39.0,43.0,38.0,47,5174.0,square1,i,0.063,0,N,2.0
NS2,94.0,45.0,33.0,46.0,40.0,45,5219.0,square1,i,0.119,0,N,2.0
NS2,95.0,49.0,38.0,53.0,36.0,49,5268.0,square1,i,0.005,0,N,2.0
NS2,96.0,50.0,39.0,46.0,34.0,50,5318.0,square1,i,0.065,0,N,2.0
NS2,97.0,57.0,37.0,44.0,41.0,57,5375.0,square1,i,0.097,0,N,2.0
NS2,98.0,55.0,43.0,39.0,43.0,55,5430.0,square1,i,0.035,0,N,2.0
NS2,99.0,56.0,46.0,41.0,41.0,56,5486.0,square1,i,0.016,0,N,2.0
NS8,0.0,61.0,62.0,34.0,32.0,32,32.0,square4,r,0.997,3,N,8.0
NS8,1.0,57.0,56.0,38.0,27.0,56,88.0,square2,i,0.419,1,N,8.0
NS8,2.0,66.0,55.0,42.0,28.0,66,154.0,square1,f,0.131,0,N,8.0
NS8,3.0,67.0,51.0,37.0,28.0,37,191.0,square3,j,0.013,2,N,8.0
NS8,4.0,65.0,53.0,38.0,32.0,65,256.0,square1,f,0.028,0,N,8.0
NS8,5.0,67.0,52.0,43.0,33.0,67,323.0,square1,f,0.006,0,N,8.0
NS8,6.0,56.0,47.0,41.0,36.0,56,379.0,square1,f,0.001,0,N,8.0
NS8,7.0,58.0,46.0,37.0,31.0,58,437.0,square1,f,0.096,0,N,8.0
NS8,8.0,60.0,58.0,36.0,35.0,60,497.0,square1,f,0.129,0,N,8.0
NS8,9.0,60.0,66.0,41.0,39.0,60,557.0,square1,f,0.127,0,N,8.0
NS8,10.0,60.0,60.0,36.0,33.0,60,617.0,square1,f,0.161,0,N,8.0
NS8,11.0,53.0,63.0,32.0,35.0,53,670.0,square1,f,0.095,0,N,8.0
NS8,12.0,51.0,60.0,32.0,29.0,51,721.0,square1,f,0.078,0,N,8.0
NS8,13.0,53.0,65.0,30.0,32.0,53,774.0,square1,f,0.028,0,N,8.0
NS8,14.0,56.0,69.0,25.0,33.0,56,830.0,square1,f,0.002,0,N,8.0
NS8,15.0,57.0,71.0,29.0,35.0,35,865.0,square4,r,0.078,3,N,8.0
NS8,16.0,55.0,64.0,31.0,33.0,64,929.0,square2,i,0.053,1,N,8.0
NS8,17.0,48.0,65.0,29.0,32.0,65,994.0,square2,i,0.048,1,N,8.0
NS8,18.0,44.0,64.0,28.0,34.0,64,1058.0,square2,i,0.153,1,N,8.0
NS8,19.0,46.0,60.0,26.0,33.0,60,1118.0,square2,i,0.103,1,N,8.0
NS8,20.0,41.0,58.0,29.0,35.0,58,1176.0,square2,i,0.229,1,N,8.0
NS8,21.0,45.0,57.0,29.0,35.0,57,1233.0,square2,i,0.096,1,N,8.0
NS8,22.0,47.0,53.0,32.0,32.0,53,1286.0,square2,i,0.055,1,N,8.0
NS8,23.0,49.0,52.0,33.0,35.0,52,1338.0,square2,i,0.13,1,N,8.0
NS8,24.0,56.0,53.0,30.0,37.0,53,1391.0,square2,i,0.079,1,N,8.0
NS8,25.0,57.0,48.0,28.0,42.0,48,1439.0,square2,i,0.002,1,N,8.0
NS8,26.0,52.0,48.0,33.0,43.0,48,1487.0,square2,i,0.012,1,N,8.0
NS8,27.0,53.0,45.0,28.0,47.0,45,1532.0,square2,i,0.012,1,N,8.0
NS8,28.0,50.0,43.0,27.0,41.0,43,1575.0,square2,i,0.053,1,N,8.0
NS8,29.0,53.0,52.0,29.0,43.0,52,1627.0,square2,i,0.238,1,N,8.0
NS8,30.0,54.0,51.0,30.0,41.0,54,1681.0,square1,f,0.081,0,N,8.0
NS8,31.0,50.0,50.0,31.0,42.0,50,1731.0,square1,f,0.163,0,N,8.0
NS8,32.0,50.0,50.0,35.0,43.0,43,1774.0,square4,r,0.113,3,N,8.0
NS8,33.0,46.0,48.0,39.0,41.0,39,1813.0,square3,j,0.047,2,N,8.0
NS8,34.0,47.0,46.0,41.0,40.0,47,1860.0,square1,f,0.065,0,N,8.0
NS8,35.0,57.0,45.0,36.0,37.0,45,1905.0,square2,i,0.013,1,N,8.0
NS8,36.0,53.0,49.0,41.0,38.0,53,1958.0,square1,f,0.147,0,N,8.0
NS8,37.0,57.0,50.0,41.0,39.0,57,2015.0,square1,f,0.001,0,N,8.0
NS8,38.0,61.0,51.0,39.0,43.0,61,2076.0,square1,f,0.08,0,N,8.0
NS8,39.0,59.0,54.0,41.0,36.0,59,2135.0,square1,f,0.083,0,N,8.0
NS8,40.0,53.0,55.0,47.0,40.0,53,2188.0,square1,f,0.068,0,N,8.0
NS8,41.0,53.0,55.0,43.0,39.0,53,2241.0,square1,f,0.134,0,N,8.0
NS8,42.0,59.0,55.0,45.0,40.0,59,2300.0,square1,f,0.004,0,N,8.0
NS8,43.0,54.0,46.0,51.0,37.0,54,2354.0,square1,f,0.036,0,N,8.0
NS8,44.0,56.0,44.0,50.0,35.0,56,2410.0,square1,f,0.214,0,N,8.0
NS8,45.0,51.0,46.0,41.0,37.0,51,2461.0,square1,f,0.1,0,N,8.0
NS8,46.0,52.0,43.0,44.0,34.0,52,2513.0,square1,f,0.131,0,N,8.0
NS8,47.0,46.0,41.0,36.0,37.0,46,2559.0,square1,f,0.005,0,N,8.0
NS8,48.0,47.0,46.0,39.0,37.0,47,2606.0,square1,f,0.164,0,N,8.0
NS8,49.0,48.0,36.0,38.0,40.0,48,2654.0,square1,f,0.094,0,N,8.0
NS8,50.0,51.0,37.0,36.0,46.0,51,2705.0,square1,f,0.178,0,N,8.0
NS8,51.0,53.0,38.0,40.0,43.0,53,2758.0,square1,f,0.12,0,N,8.0
NS8,52.0,47.0,32.0,37.0,44.0,47,2805.0,square1,f,0.147,0,N,8.0
NS8,53.0,52.0,31.0,38.0,46.0,52,2857.0,square1,f,0.063,0,N,8.0
NS8,54.0,44.0,34.0,40.0,45.0,44,2901.0,square1,f,0.166,0,N,8.0
NS8,55.0,46.0,26.0,37.0,41.0,46,2947.0,square1,f,0.15,0,N,8.0
NS8,56.0,42.0,29.0,36.0,40.0,40,2987.0,square4,r,0.013,3,N,8.0
NS8,57.0,39.0,21.0,39.0,40.0,21,3008.0,square2,i,0.136,1,N,8.0
NS8,58.0,42.0,18.0,39.0,40.0,39,3047.0,square3,j,0.011,2,N,8.0
NS8,59.0,46.0,16.0,41.0,39.0,46,3093.0,square1,f,0.138,0,N,8.0
NS8,60.0,45.0,20.0,40.0,39.0,45,3138.0,square1,f,0.063,0,N,8.0
NS8,61.0,45.0,26.0,42.0,39.0,45,3183.0,square1,f,0.212,0,N,8.0
NS8,62.0,46.0,21.0,45.0,37.0,46,3229.0,square1,f,0.139,0,N,8.0
NS8,63.0,50.0,23.0,40.0,38.0,50,3279.0,square1,f,0.181,0,N,8.0
NS8,64.0,46.0,24.0,41.0,33.0,46,3325.0,square1,f,0.045,0,N,8.0
NS8,65.0,48.0,28.0,42.0,32.0,48,3373.0,square1,f,0.032,0,N,8.0
NS8,66.0,47.0,20.0,40.0,35.0,47,3420.0,square1,f,0.146,0,N,8.0
NS8,67.0,49.0,25.0,46.0,34.0,49,3469.0,square1,f,0.346,0,N,8.0
NS8,68.0,47.0,24.0,45.0,33.0,47,3516.0,square1,f,0.083,0,N,8.0
NS8,69.0,45.0,21.0,47.0,35.0,35,3551.0,square4,r,0.046,3,N,8.0
NS8,70.0,44.0,21.0,47.0,37.0,21,3572.0,square2,i,0.045,1,N,8.0
NS8,71.0,44.0,15.0,41.0,38.0,41,3613.0,square3,j,0.094,2,N,8.0
NS8,72.0,47.0,19.0,49.0,40.0,47,3660.0,square1,f,0.152,0,N,8.0
NS8,73.0,39.0,21.0,53.0,38.0,39,3699.0,square1,f,0.045,0,N,8.0
NS8,74.0,42.0,19.0,53.0,35.0,42,3741.0,square1,f,0.151,0,N,8.0
NS8,75.0,37.0,18.0,43.0,35.0,43,3784.0,square3,j,0.049,2,N,8.0
NS8,76.0,35.0,14.0,42.0,38.0,42,3826.0,square3,j,0.163,2,N,8.0
NS8,77.0,38.0,19.0,47.0,44.0,47,3873.0,square3,j,0.035,2,N,8.0
NS8,78.0,38.0,18.0,50.0,46.0,50,3923.0,square3,j,0.081,2,N,8.0
NS8,79.0,33.0,22.0,54.0,44.0,54,3977.0,square3,j,0.083,2,N,8.0
NS8,80.0,38.0,21.0,56.0,52.0,56,4033.0,square3,j,0.145,2,N,8.0
NS8,81.0,37.0,22.0,56.0,43.0,56,4089.0,square3,j,0.132,2,N,8.0
NS8,82.0,30.0,26.0,60.0,42.0,60,4149.0,square3,j,0.147,2,N,8.0
NS8,83.0,38.0,22.0,54.0,46.0,54,4203.0,square3,j,0.113,2,N,8.0
NS8,84.0,33.0,18.0,52.0,46.0,52,4255.0,square3,j,0.099,2,N,8.0
NS8,85.0,42.0,12.0,57.0,48.0,57,4312.0,square3,j,0.181,2,N,8.0
NS8,86.0,45.0,19.0,58.0,42.0,58,4370.0,square3,j,0.119,2,N,8.0
NS8,87.0,46.0,10.0,65.0,44.0,65,4435.0,square3,j,0.122,2,N,8.0
NS8,88.0,45.0,11.0,59.0,45.0,45,4480.0,square4,r,0.084,3,N,8.0
NS8,89.0,42.0,11.0,60.0,47.0,11,4491.0,square2,i,0.083,1,N,8.0
NS8,90.0,40.0,7.0,64.0,49.0,40,4531.0,square1,f,0.731,0,N,8.0
NS8,91.0,42.0,11.0,64.0,48.0,64,4595.0,square3,j,0.137,2,N,8.0
NS8,92.0,43.0,13.0,60.0,43.0,60,4655.0,square3,j,0.117,2,N,8.0
NS8,93.0,44.0,12.0,64.0,45.0,64,4719.0,square3,j,0.062,2,N,8.0
NS8,94.0,45.0,16.0,65.0,49.0,65,4784.0,square3,j,0.147,2,N,8.0
NS8,95.0,45.0,24.0,66.0,42.0,66,4850.0,square3,j,0.094,2,N,8.0
NS8,96.0,53.0,27.0,67.0,44.0,67,4917.0,square3,j,0.177,2,N,8.0
NS8,97.0,50.0,29.0,68.0,43.0,68,4985.0,square3,j,0.063,2,N,8.0
NS8,98.0,52.0,29.0,66.0,37.0,66,5051.0,square3,j,0.032,2,N,8.0
NS8,99.0,53.0,32.0,65.0,37.0,65,5116.0,square3,j,0.037,2,N,8.0
