block,Trial,square1,square2,square3,square4,currPoints,totalPoints,square,choiceKey.keys,choiceKey.rt,armNum,blockType,blockNum
prac,0.0,100.0,0.0,0.0,0.0,0,0.0,square2,,,1,p,0.0
prac,1.0,100.0,0.0,0.0,0.0,0,0.0,square3,,,2,p,0.0
prac,2.0,100.0,0.0,0.0,0.0,0,0.0,square4,,,3,p,0.0
prac,3.0,100.0,0.0,0.0,0.0,99999,0.0,invalid,,,-1,p,0.0
prac,4.0,100.0,0.0,0.0,0.0,0,0.0,square2,,,1,p,0.0
prac,5.0,100.0,0.0,0.0,0.0,0,0.0,square3,,,2,p,0.0
prac,6.0,100.0,0.0,0.0,0.0,99999,0.0,invalid,,,-1,p,0.0
prac,7.0,100.0,0.0,0.0,0.0,99999,0.0,invalid,,,-1,p,0.0
prac,8.0,100.0,0.0,0.0,0.0,0,0.0,square4,,,3,p,0.0
prac,9.0,100.0,0.0,0.0,0.0,99999,0.0,invalid,,,-1,p,0.0
V5,0.0,46.0,21.0,37.0,28.0,28,28.0,square4,i,1.2696,3,V,5.0
V5,1.0,43.0,27.0,36.0,31.0,43,71.0,square1,r,1.0861,0,V,5.0
V5,2.0,50.0,18.0,43.0,32.0,18,89.0,square2,j,0.6163,1,V,5.0
V5,3.0,53.0,23.0,36.0,34.0,34,123.0,square4,i,0.3998,3,V,5.0
V5,4.0,52.0,19.0,38.0,34.0,34,157.0,square4,i,0.5336,3,V,5.0
V5,5.0,50.0,22.0,41.0,29.0,29,186.0,square4,i,0.3947,3,V,5.0
V5,6.0,52.0,19.0,40.0,33.0,99999,186.0,invalid,,,-1,V,5.0
V5,7.0,48.0,24.0,36.0,27.0,27,213.0,square4,i,0.9365,3,V,5.0
V5,8.0,50.0,24.0,35.0,33.0,24,237.0,square2,j,0.2135,1,V,5.0
V5,9.0,48.0,25.0,39.0,34.0,48,285.0,square1,r,1.7933,0,V,5.0
V5,10.0,52.0,19.0,32.0,34.0,19,304.0,square2,j,1.2185,1,V,5.0
V5,11.0,48.0,22.0,32.0,32.0,32,336.0,square4,i,0.4458,3,V,5.0
V5,12.0,47.0,17.0,43.0,29.0,43,379.0,square3,f,0.3973,2,V,5.0
V5,13.0,46.0,21.0,42.0,29.0,42,421.0,square3,f,0.4443,2,V,5.0
V5,14.0,47.0,28.0,42.0,28.0,28,449.0,square4,i,0.3124,3,V,5.0
V5,15.0,50.0,29.0,38.0,36.0,38,487.0,square3,f,0.3652,2,V,5.0
V5,16.0,49.0,24.0,36.0,34.0,36,523.0,square3,f,0.268,2,V,5.0
V5,17.0,50.0,20.0,38.0,35.0,38,561.0,square3,f,1.0863,2,V,5.0
V5,18.0,49.0,22.0,46.0,29.0,22,583.0,square2,j,0.3785,1,V,5.0
V5,19.0,46.0,23.0,40.0,31.0,40,623.0,square3,f,0.48,2,V,5.0
V5,20.0,51.0,22.0,41.0,28.0,51,674.0,square1,r,0.4342,0,V,5.0
V5,21.0,51.0,26.0,36.0,31.0,51,725.0,square1,r,0.3296,0,V,5.0
V5,22.0,47.0,18.0,41.0,28.0,47,772.0,square1,r,0.4533,0,V,5.0
V5,23.0,52.0,20.0,36.0,29.0,52,824.0,square1,r,0.4015,0,V,5.0
V5,24.0,51.0,21.0,41.0,34.0,34,858.0,square4,i,0.4126,3,V,5.0
V5,25.0,50.0,20.0,41.0,27.0,41,899.0,square3,f,0.3884,2,V,5.0
V5,26.0,49.0,29.0,37.0,28.0,49,948.0,square1,r,0.3302,0,V,5.0
V5,27.0,10.0,13.0,42.0,32.0,10,958.0,square1,r,0.3512,0,V,5.0
V5,28.0,9.0,19.0,40.0,27.0,40,998.0,square3,f,1.0826,2,V,5.0
V5,29.0,17.0,17.0,38.0,29.0,17,1015.0,square2,j,0.8003,1,V,5.0
V5,30.0,8.0,18.0,36.0,29.0,36,1051.0,square3,f,0.4001,2,V,5.0
V5,31.0,16.0,24.0,34.0,29.0,29,1080.0,square4,i,0.4465,3,V,5.0
V5,32.0,9.0,17.0,35.0,31.0,9,1089.0,square1,r,0.4502,0,V,5.0
V5,33.0,11.0,19.0,36.0,28.0,36,1125.0,square3,f,0.2963,2,V,5.0
V5,34.0,10.0,19.0,38.0,28.0,19,1144.0,square2,j,0.4132,1,V,5.0
V5,35.0,5.0,23.0,40.0,34.0,40,1184.0,square3,f,0.3806,2,V,5.0
V5,36.0,17.0,20.0,36.0,31.0,36,1220.0,square3,f,0.4473,2,V,5.0
V5,37.0,12.0,13.0,36.0,30.0,36,1256.0,square3,f,0.4137,2,V,5.0
V5,38.0,14.0,24.0,35.0,27.0,35,1291.0,square3,f,0.6315,2,V,5.0
V5,39.0,13.0,20.0,39.0,32.0,39,1330.0,square3,f,0.3362,2,V,5.0
V5,40.0,9.0,15.0,37.0,24.0,37,1367.0,square3,f,0.4952,2,V,5.0
V5,41.0,9.0,14.0,38.0,31.0,38,1405.0,square3,f,0.6658,2,V,5.0
V5,42.0,14.0,17.0,43.0,31.0,43,1448.0,square3,f,0.9477,2,V,5.0
V5,43.0,10.0,18.0,39.0,23.0,39,1487.0,square3,f,1.0967,2,V,5.0
V5,44.0,10.0,20.0,33.0,32.0,10,1497.0,square1,r,0.3332,0,V,5.0
V5,45.0,16.0,17.0,37.0,29.0,37,1534.0,square3,f,0.1825,2,V,5.0
V5,46.0,9.0,22.0,37.0,25.0,25,1559.0,square4,i,0.2805,3,V,5.0
V5,47.0,10.0,22.0,35.0,26.0,22,1581.0,square2,j,0.1497,1,V,5.0
V5,48.0,11.0,16.0,39.0,23.0,39,1620.0,square3,f,0.1811,2,V,5.0
V5,49.0,13.0,16.0,33.0,27.0,33,1653.0,square3,f,0.2832,2,V,5.0
V5,50.0,12.0,16.0,39.0,24.0,39,1692.0,square3,f,0.2189,2,V,5.0
V5,51.0,10.0,21.0,43.0,28.0,43,1735.0,square3,f,0.3127,2,V,5.0
V5,52.0,8.0,15.0,36.0,28.0,36,1771.0,square3,f,0.2299,2,V,5.0
V5,53.0,38.0,20.0,31.0,54.0,31,1802.0,square3,f,0.2503,2,V,5.0
V5,54.0,39.0,20.0,35.0,51.0,35,1837.0,square3,f,0.2509,2,V,5.0
V5,55.0,41.0,21.0,27.0,50.0,27,1864.0,square3,f,0.2305,2,V,5.0
V5,56.0,39.0,23.0,28.0,49.0,49,1913.0,square4,i,0.1557,3,V,5.0
V5,57.0,36.0,28.0,29.0,59.0,59,1972.0,square4,i,0.2464,3,V,5.0
V5,58.0,38.0,22.0,28.0,49.0,49,2021.0,square4,i,0.2224,3,V,5.0
V5,59.0,44.0,23.0,30.0,51.0,51,2072.0,square4,i,0.2804,3,V,5.0
V5,60.0,43.0,21.0,31.0,48.0,48,2120.0,square4,i,0.2465,3,V,5.0
V5,61.0,39.0,24.0,35.0,50.0,50,2170.0,square4,i,0.2001,3,V,5.0
V5,62.0,38.0,25.0,31.0,52.0,52,2222.0,square4,i,0.3023,3,V,5.0
V5,63.0,41.0,14.0,31.0,52.0,52,2274.0,square4,i,0.2467,3,V,5.0
V5,64.0,43.0,23.0,30.0,51.0,51,2325.0,square4,i,0.2826,3,V,5.0
V5,65.0,41.0,23.0,35.0,52.0,52,2377.0,square4,i,0.18,3,V,5.0
V5,66.0,41.0,17.0,33.0,47.0,17,2394.0,square2,j,0.2669,1,V,5.0
V5,67.0,44.0,23.0,32.0,49.0,44,2438.0,square1,r,0.222,0,V,5.0
V5,68.0,44.0,24.0,31.0,44.0,44,2482.0,square1,r,0.2474,0,V,5.0
V5,69.0,43.0,28.0,27.0,48.0,43,2525.0,square1,r,0.2542,0,V,5.0
V5,70.0,38.0,22.0,26.0,50.0,38,2563.0,square1,r,0.1676,0,V,5.0
V5,71.0,41.0,29.0,26.0,53.0,41,2604.0,square1,r,0.2315,0,V,5.0
V5,72.0,40.0,20.0,28.0,51.0,40,2644.0,square1,r,0.096,0,V,5.0
V5,73.0,59.0,44.0,51.0,35.0,59,2703.0,square1,r,0.1989,0,V,5.0
V5,74.0,60.0,38.0,55.0,43.0,43,2746.0,square4,i,0.2319,3,V,5.0
V5,75.0,63.0,45.0,50.0,37.0,63,2809.0,square1,r,0.213,0,V,5.0
V5,76.0,62.0,42.0,50.0,37.0,62,2871.0,square1,r,0.1327,0,V,5.0
V5,77.0,57.0,37.0,52.0,35.0,57,2928.0,square1,r,0.0848,0,V,5.0
V5,78.0,66.0,45.0,54.0,37.0,66,2994.0,square1,r,0.0681,0,V,5.0
V5,79.0,64.0,37.0,48.0,35.0,64,3058.0,square1,r,0.0672,0,V,5.0
V5,80.0,63.0,40.0,56.0,38.0,63,3121.0,square1,r,0.0684,0,V,5.0
V5,81.0,62.0,41.0,54.0,32.0,62,3183.0,square1,r,0.0464,0,V,5.0
V5,82.0,58.0,41.0,59.0,39.0,58,3241.0,square1,r,0.7464,0,V,5.0
V5,83.0,66.0,46.0,54.0,35.0,66,3307.0,square1,r,0.2347,0,V,5.0
V5,84.0,67.0,44.0,52.0,33.0,67,3374.0,square1,r,0.1005,0,V,5.0
V5,85.0,67.0,45.0,46.0,36.0,67,3441.0,square1,r,0.1364,0,V,5.0
V5,86.0,65.0,44.0,51.0,38.0,65,3506.0,square1,r,0.1366,0,V,5.0
V5,87.0,64.0,49.0,48.0,35.0,64,3570.0,square1,r,0.6694,0,V,5.0
V5,88.0,68.0,47.0,56.0,36.0,68,3638.0,square1,r,0.2303,0,V,5.0
V5,89.0,60.0,42.0,57.0,32.0,60,3698.0,square1,r,0.0969,0,V,5.0
V5,90.0,59.0,43.0,53.0,34.0,59,3757.0,square1,r,0.121,0,V,5.0
V5,91.0,64.0,43.0,51.0,34.0,64,3821.0,square1,r,0.138,0,V,5.0
V5,92.0,65.0,41.0,57.0,38.0,65,3886.0,square1,r,0.0501,0,V,5.0
V5,93.0,59.0,48.0,54.0,40.0,59,3945.0,square1,r,0.053,0,V,5.0
V5,94.0,66.0,44.0,53.0,43.0,66,4011.0,square1,r,0.0176,0,V,5.0
V5,95.0,63.0,43.0,50.0,40.0,63,4074.0,square1,r,0.0374,0,V,5.0
V5,96.0,62.0,44.0,50.0,33.0,62,4136.0,square1,r,0.6014,0,V,5.0
V5,97.0,64.0,49.0,55.0,37.0,64,4200.0,square1,r,0.2547,0,V,5.0
V5,98.0,65.0,44.0,53.0,36.0,65,4265.0,square1,r,0.0498,0,V,5.0
V5,99.0,65.0,42.0,55.0,35.0,65,4330.0,square1,r,0.2468,0,V,5.0
V11,0.0,42.0,67.0,57.0,49.0,67,67.0,square2,r,1.2387,1,V,11.0
V11,1.0,42.0,71.0,60.0,53.0,71,138.0,square2,r,0.0539,1,V,11.0
V11,2.0,45.0,76.0,58.0,51.0,76,214.0,square2,r,0.0684,1,V,11.0
V11,3.0,44.0,65.0,60.0,49.0,60,274.0,square3,j,0.0995,2,V,11.0
V11,4.0,46.0,73.0,64.0,51.0,46,320.0,square1,i,0.017,0,V,11.0
V11,5.0,47.0,67.0,58.0,54.0,54,374.0,square4,f,0.7333,3,V,11.0
V11,6.0,43.0,68.0,58.0,50.0,68,442.0,square2,r,0.1478,1,V,11.0
V11,7.0,42.0,67.0,60.0,58.0,67,509.0,square2,r,0.1456,1,V,11.0
V11,8.0,44.0,67.0,60.0,53.0,67,576.0,square2,r,0.2829,1,V,11.0
V11,9.0,44.0,67.0,59.0,54.0,67,643.0,square2,r,0.1651,1,V,11.0
V11,10.0,49.0,76.0,57.0,52.0,76,719.0,square2,r,0.1163,1,V,11.0
V11,11.0,45.0,71.0,58.0,51.0,71,790.0,square2,r,0.0205,1,V,11.0
V11,12.0,45.0,72.0,58.0,56.0,72,862.0,square2,r,0.0806,1,V,11.0
V11,13.0,49.0,67.0,63.0,54.0,67,929.0,square2,r,0.6131,1,V,11.0
V11,14.0,50.0,75.0,57.0,48.0,75,1004.0,square2,r,0.2499,1,V,11.0
V11,15.0,40.0,71.0,61.0,51.0,71,1075.0,square2,r,0.1175,1,V,11.0
V11,16.0,47.0,72.0,56.0,54.0,72,1147.0,square2,r,0.1328,1,V,11.0
V11,17.0,40.0,71.0,61.0,46.0,71,1218.0,square2,r,0.7631,1,V,11.0
V11,18.0,44.0,69.0,59.0,51.0,69,1287.0,square2,r,0.2971,1,V,11.0
V11,19.0,44.0,73.0,59.0,47.0,73,1360.0,square2,r,0.3489,1,V,11.0
V11,20.0,47.0,69.0,64.0,54.0,69,1429.0,square2,r,0.1496,1,V,11.0
V11,21.0,78.0,49.0,70.0,65.0,49,1478.0,square2,r,0.2021,1,V,11.0
V11,22.0,78.0,56.0,73.0,62.0,62,1540.0,square4,f,0.4321,3,V,11.0
V11,23.0,84.0,54.0,71.0,65.0,65,1605.0,square4,f,0.1507,3,V,11.0
V11,24.0,80.0,55.0,72.0,67.0,67,1672.0,square4,f,0.0175,3,V,11.0
V11,25.0,80.0,55.0,75.0,63.0,63,1735.0,square4,f,0.1275,3,V,11.0
V11,26.0,80.0,56.0,67.0,62.0,62,1797.0,square4,f,0.1,3,V,11.0
V11,27.0,80.0,51.0,68.0,62.0,62,1859.0,square4,f,0.0178,3,V,11.0
V11,28.0,79.0,57.0,67.0,57.0,57,1916.0,square4,f,0.0508,3,V,11.0
V11,29.0,79.0,50.0,67.0,62.0,79,1995.0,square1,i,0.53,0,V,11.0
V11,30.0,88.0,54.0,74.0,61.0,88,2083.0,square1,i,0.1801,0,V,11.0
V11,31.0,81.0,51.0,75.0,63.0,81,2164.0,square1,i,0.0013,0,V,11.0
V11,32.0,76.0,51.0,69.0,65.0,76,2240.0,square1,i,0.0301,0,V,11.0
V11,33.0,78.0,54.0,72.0,64.0,78,2318.0,square1,i,0.097,0,V,11.0
V11,34.0,77.0,53.0,71.0,62.0,77,2395.0,square1,i,0.0217,0,V,11.0
V11,35.0,74.0,59.0,75.0,62.0,74,2469.0,square1,i,0.0673,0,V,11.0
V11,36.0,79.0,50.0,72.0,62.0,79,2548.0,square1,i,0.0852,0,V,11.0
V11,37.0,74.0,54.0,68.0,62.0,74,2622.0,square1,i,0.1632,0,V,11.0
V11,38.0,80.0,57.0,65.0,58.0,80,2702.0,square1,i,0.0542,0,V,11.0
V11,39.0,73.0,52.0,75.0,66.0,73,2775.0,square1,i,0.0691,0,V,11.0
V11,40.0,82.0,57.0,71.0,57.0,82,2857.0,square1,i,0.1005,0,V,11.0
V11,41.0,78.0,53.0,73.0,64.0,78,2935.0,square1,i,0.0011,0,V,11.0
V11,42.0,72.0,56.0,67.0,59.0,72,3007.0,square1,i,0.1137,0,V,11.0
V11,43.0,81.0,54.0,73.0,63.0,81,3088.0,square1,i,0.8818,0,V,11.0
V11,44.0,76.0,54.0,75.0,59.0,76,3164.0,square1,i,0.0138,0,V,11.0
V11,45.0,79.0,59.0,71.0,64.0,79,3243.0,square1,i,0.0657,0,V,11.0
V11,46.0,80.0,55.0,67.0,57.0,80,3323.0,square1,i,0.6339,0,V,11.0
V11,47.0,84.0,53.0,75.0,56.0,84,3407.0,square1,i,0.0987,0,V,11.0
V11,48.0,83.0,57.0,71.0,60.0,83,3490.0,square1,i,0.0044,0,V,11.0
V11,49.0,79.0,52.0,71.0,60.0,79,3569.0,square1,i,0.1539,0,V,11.0
V11,50.0,76.0,50.0,69.0,60.0,76,3645.0,square1,i,0.799,0,V,11.0
V11,51.0,79.0,54.0,72.0,57.0,79,3724.0,square1,i,0.2148,0,V,11.0
V11,52.0,80.0,54.0,72.0,64.0,80,3804.0,square1,i,0.0175,0,V,11.0
V11,53.0,35.0,50.0,55.0,69.0,35,3839.0,square1,i,0.1301,0,V,11.0
V11,54.0,45.0,48.0,55.0,73.0,55,3894.0,square3,j,1.3618,2,V,11.0
V11,55.0,43.0,53.0,58.0,70.0,53,3947.0,square2,r,0.214,1,V,11.0
V11,56.0,40.0,46.0,60.0,62.0,62,4009.0,square4,f,0.034,3,V,11.0
V11,57.0,44.0,46.0,53.0,71.0,71,4080.0,square4,f,1.099,3,V,11.0
V11,58.0,44.0,52.0,55.0,68.0,68,4148.0,square4,f,0.1706,3,V,11.0
V11,59.0,44.0,44.0,57.0,66.0,66,4214.0,square4,f,0.0793,3,V,11.0
V11,60.0,40.0,46.0,57.0,62.0,62,4276.0,square4,f,0.099,3,V,11.0
V11,61.0,42.0,52.0,58.0,62.0,62,4338.0,square4,f,0.1126,3,V,11.0
V11,62.0,40.0,49.0,56.0,71.0,71,4409.0,square4,f,0.1505,3,V,11.0
V11,63.0,40.0,54.0,60.0,66.0,66,4475.0,square4,f,0.2176,3,V,11.0
V11,64.0,41.0,43.0,51.0,66.0,66,4541.0,square4,f,0.1474,3,V,11.0
V11,65.0,39.0,48.0,59.0,66.0,66,4607.0,square4,f,0.0138,3,V,11.0
V11,66.0,40.0,48.0,59.0,69.0,69,4676.0,square4,f,0.0501,3,V,11.0
V11,67.0,46.0,45.0,58.0,69.0,69,4745.0,square4,f,0.9338,3,V,11.0
V11,68.0,41.0,50.0,56.0,69.0,69,4814.0,square4,f,0.2302,3,V,11.0
V11,69.0,48.0,49.0,57.0,71.0,71,4885.0,square4,f,0.1007,3,V,11.0
V11,70.0,41.0,47.0,58.0,65.0,65,4950.0,square4,f,0.1039,3,V,11.0
V11,71.0,37.0,46.0,58.0,60.0,60,5010.0,square4,f,0.0804,3,V,11.0
V11,72.0,41.0,47.0,54.0,65.0,65,5075.0,square4,f,0.1856,3,V,11.0
V11,73.0,42.0,47.0,60.0,67.0,67,5142.0,square4,f,0.0011,3,V,11.0
V11,74.0,43.0,49.0,57.0,64.0,64,5206.0,square4,f,0.2331,3,V,11.0
V11,75.0,38.0,46.0,57.0,66.0,66,5272.0,square4,f,0.9642,3,V,11.0
V11,76.0,42.0,50.0,58.0,68.0,68,5340.0,square4,f,0.1139,3,V,11.0
V11,77.0,36.0,49.0,58.0,64.0,64,5404.0,square4,f,0.1635,3,V,11.0
V11,78.0,40.0,50.0,56.0,67.0,67,5471.0,square4,f,0.0012,3,V,11.0
V11,79.0,39.0,48.0,56.0,67.0,67,5538.0,square4,f,0.2507,3,V,11.0
V11,80.0,51.0,33.0,30.0,45.0,33,5571.0,square2,r,0.1509,1,V,11.0
V11,81.0,49.0,31.0,23.0,48.0,49,5620.0,square1,i,0.1341,0,V,11.0
V11,82.0,55.0,30.0,25.0,42.0,25,5645.0,square3,j,1.4355,2,V,11.0
V11,83.0,50.0,33.0,27.0,48.0,48,5693.0,square4,f,0.001,3,V,11.0
V11,84.0,52.0,34.0,25.0,43.0,43,5736.0,square4,f,0.4995,3,V,11.0
V11,85.0,49.0,28.0,28.0,44.0,44,5780.0,square4,f,0.2533,3,V,11.0
V11,86.0,57.0,29.0,27.0,48.0,48,5828.0,square4,f,0.884,3,V,11.0
V11,87.0,49.0,29.0,21.0,38.0,38,5866.0,square4,f,0.1459,3,V,11.0
V11,88.0,55.0,32.0,29.0,46.0,46,5912.0,square4,f,0.1682,3,V,11.0
V11,89.0,50.0,28.0,23.0,43.0,43,5955.0,square4,f,0.0159,3,V,11.0
V11,90.0,54.0,34.0,32.0,41.0,41,5996.0,square4,f,0.0294,3,V,11.0
V11,91.0,50.0,34.0,26.0,44.0,44,6040.0,square4,f,0.0173,3,V,11.0
V11,92.0,51.0,31.0,27.0,50.0,31,6071.0,square2,r,0.0799,1,V,11.0
V11,93.0,49.0,38.0,28.0,42.0,42,6113.0,square4,f,0.1306,3,V,11.0
V11,94.0,50.0,29.0,25.0,46.0,46,6159.0,square4,f,0.7683,3,V,11.0
V11,95.0,51.0,36.0,22.0,40.0,40,6199.0,square4,f,0.217,3,V,11.0
V11,96.0,52.0,34.0,32.0,45.0,45,6244.0,square4,f,0.1173,3,V,11.0
V11,97.0,53.0,27.0,32.0,44.0,44,6288.0,square4,f,0.1132,3,V,11.0
V11,98.0,60.0,31.0,25.0,48.0,48,6336.0,square4,f,0.7344,3,V,11.0
V11,99.0,53.0,33.0,23.0,42.0,42,6378.0,square4,f,0.1634,3,V,11.0
V1,0.0,46.0,61.0,52.0,71.0,99999,0.0,invalid,,,-1,V,1.0
V1,1.0,45.0,63.0,54.0,78.0,54,54.0,square3,r,0.2839,2,V,1.0
V1,2.0,51.0,58.0,59.0,77.0,77,131.0,square4,i,0.1497,3,V,1.0
V1,3.0,53.0,65.0,56.0,75.0,75,206.0,square4,i,0.3498,3,V,1.0
V1,4.0,49.0,68.0,53.0,72.0,72,278.0,square4,i,0.6495,3,V,1.0
V1,5.0,47.0,70.0,59.0,76.0,76,354.0,square4,i,0.0786,3,V,1.0
V1,6.0,55.0,63.0,54.0,76.0,76,430.0,square4,i,0.6786,3,V,1.0
V1,7.0,47.0,67.0,55.0,74.0,74,504.0,square4,i,0.3311,3,V,1.0
V1,8.0,47.0,65.0,46.0,76.0,76,580.0,square4,i,0.1171,3,V,1.0
V1,9.0,46.0,68.0,59.0,78.0,78,658.0,square4,i,0.2152,3,V,1.0
V1,10.0,58.0,67.0,58.0,79.0,79,737.0,square4,i,0.1508,3,V,1.0
V1,11.0,44.0,61.0,54.0,72.0,72,809.0,square4,i,0.1444,3,V,1.0
V1,12.0,44.0,65.0,56.0,75.0,75,884.0,square4,i,0.248,3,V,1.0
V1,13.0,47.0,63.0,53.0,73.0,73,957.0,square4,i,0.1516,3,V,1.0
V1,14.0,49.0,66.0,56.0,75.0,75,1032.0,square4,i,0.284,3,V,1.0
V1,15.0,49.0,66.0,52.0,79.0,79,1111.0,square4,i,0.1946,3,V,1.0
V1,16.0,51.0,61.0,48.0,72.0,72,1183.0,square4,i,0.148,3,V,1.0
V1,17.0,46.0,61.0,59.0,71.0,71,1254.0,square4,i,0.0023,3,V,1.0
V1,18.0,45.0,61.0,53.0,72.0,72,1326.0,square4,i,0.1669,3,V,1.0
V1,19.0,49.0,63.0,54.0,76.0,76,1402.0,square4,i,0.0968,3,V,1.0
V1,20.0,46.0,66.0,52.0,72.0,72,1474.0,square4,i,0.1718,3,V,1.0
V1,21.0,50.0,65.0,51.0,73.0,73,1547.0,square4,i,0.0635,3,V,1.0
V1,22.0,56.0,62.0,56.0,77.0,77,1624.0,square4,i,0.0967,3,V,1.0
V1,23.0,45.0,67.0,54.0,83.0,83,1707.0,square4,i,0.0035,3,V,1.0
V1,24.0,46.0,69.0,57.0,71.0,71,1778.0,square4,i,0.0492,3,V,1.0
V1,25.0,41.0,65.0,55.0,76.0,76,1854.0,square4,i,0.0013,3,V,1.0
V1,26.0,51.0,60.0,55.0,74.0,74,1928.0,square4,i,0.1138,3,V,1.0
V1,27.0,52.0,63.0,56.0,73.0,73,2001.0,square4,i,0.7502,3,V,1.0
V1,28.0,50.0,68.0,50.0,76.0,76,2077.0,square4,i,0.3351,3,V,1.0
V1,29.0,51.0,60.0,54.0,74.0,74,2151.0,square4,i,0.2347,3,V,1.0
V1,30.0,35.0,67.0,57.0,40.0,40,2191.0,square4,i,0.3188,3,V,1.0
V1,31.0,38.0,60.0,52.0,35.0,60,2251.0,square2,f,0.8003,1,V,1.0
V1,32.0,37.0,67.0,52.0,41.0,67,2318.0,square2,f,0.2018,1,V,1.0
V1,33.0,37.0,62.0,53.0,42.0,37,2355.0,square1,j,1.2189,0,V,1.0
V1,34.0,35.0,58.0,54.0,43.0,58,2413.0,square2,f,0.0011,1,V,1.0
V1,35.0,40.0,60.0,50.0,44.0,60,2473.0,square2,f,0.1673,1,V,1.0
V1,36.0,39.0,66.0,50.0,39.0,66,2539.0,square2,f,0.0015,1,V,1.0
V1,37.0,32.0,59.0,54.0,38.0,54,2593.0,square3,r,0.1536,2,V,1.0
V1,38.0,32.0,64.0,50.0,39.0,64,2657.0,square2,f,0.5177,1,V,1.0
V1,39.0,37.0,60.0,45.0,40.0,60,2717.0,square2,f,0.2636,1,V,1.0
V1,40.0,35.0,61.0,54.0,43.0,61,2778.0,square2,f,0.1488,1,V,1.0
V1,41.0,33.0,62.0,49.0,42.0,62,2840.0,square2,f,0.269,1,V,1.0
V1,42.0,31.0,70.0,52.0,42.0,70,2910.0,square2,f,0.2307,1,V,1.0
V1,43.0,37.0,59.0,48.0,41.0,59,2969.0,square2,f,0.0298,1,V,1.0
V1,44.0,39.0,63.0,53.0,44.0,63,3032.0,square2,f,0.013,1,V,1.0
V1,45.0,37.0,62.0,48.0,41.0,62,3094.0,square2,f,0.2195,1,V,1.0
V1,46.0,34.0,65.0,52.0,39.0,65,3159.0,square2,f,0.1051,1,V,1.0
V1,47.0,42.0,59.0,52.0,43.0,59,3218.0,square2,f,0.0348,1,V,1.0
V1,48.0,39.0,62.0,50.0,38.0,62,3280.0,square2,f,0.5646,1,V,1.0
V1,49.0,33.0,63.0,49.0,40.0,63,3343.0,square2,f,0.2136,1,V,1.0
V1,50.0,38.0,66.0,54.0,37.0,66,3409.0,square2,f,0.2466,1,V,1.0
V1,51.0,33.0,66.0,50.0,37.0,66,3475.0,square2,f,0.0494,1,V,1.0
V1,52.0,41.0,65.0,55.0,44.0,65,3540.0,square2,f,0.0878,1,V,1.0
V1,53.0,75.0,50.0,46.0,60.0,50,3590.0,square2,f,0.0037,1,V,1.0
V1,54.0,74.0,53.0,45.0,61.0,45,3635.0,square3,r,0.4675,2,V,1.0
V1,55.0,74.0,54.0,43.0,65.0,74,3709.0,square1,j,0.8525,0,V,1.0
V1,56.0,73.0,54.0,44.0,56.0,73,3782.0,square1,j,0.1344,0,V,1.0
V1,57.0,67.0,58.0,52.0,63.0,67,3849.0,square1,j,0.0347,0,V,1.0
V1,58.0,72.0,51.0,43.0,62.0,72,3921.0,square1,j,0.1295,0,V,1.0
V1,59.0,68.0,47.0,49.0,56.0,68,3989.0,square1,j,0.0508,0,V,1.0
V1,60.0,72.0,55.0,46.0,65.0,72,4061.0,square1,j,0.0624,0,V,1.0
V1,61.0,76.0,50.0,46.0,62.0,76,4137.0,square1,j,0.8829,0,V,1.0
V1,62.0,77.0,58.0,46.0,66.0,77,4214.0,square1,j,0.101,0,V,1.0
V1,63.0,72.0,53.0,48.0,66.0,72,4286.0,square1,j,0.0343,0,V,1.0
V1,64.0,70.0,49.0,49.0,60.0,70,4356.0,square1,j,0.0843,0,V,1.0
V1,65.0,68.0,49.0,46.0,66.0,68,4424.0,square1,j,0.0349,0,V,1.0
V1,66.0,77.0,52.0,41.0,64.0,77,4501.0,square1,j,0.984,0,V,1.0
V1,67.0,74.0,56.0,42.0,69.0,74,4575.0,square1,j,0.1814,0,V,1.0
V1,68.0,77.0,50.0,46.0,68.0,77,4652.0,square1,j,0.164,0,V,1.0
V1,69.0,76.0,48.0,45.0,63.0,76,4728.0,square1,j,0.0505,0,V,1.0
V1,70.0,71.0,53.0,50.0,65.0,71,4799.0,square1,j,0.1841,0,V,1.0
V1,71.0,70.0,56.0,44.0,59.0,70,4869.0,square1,j,0.1167,0,V,1.0
V1,72.0,74.0,54.0,55.0,61.0,74,4943.0,square1,j,0.3127,0,V,1.0
V1,73.0,73.0,53.0,47.0,61.0,73,5016.0,square1,j,0.134,0,V,1.0
V1,74.0,71.0,53.0,51.0,65.0,71,5087.0,square1,j,0.0509,0,V,1.0
V1,75.0,72.0,51.0,48.0,64.0,72,5159.0,square1,j,1.0471,0,V,1.0
V1,76.0,72.0,53.0,49.0,62.0,72,5231.0,square1,j,0.0665,0,V,1.0
V1,77.0,62.0,76.0,64.0,86.0,62,5293.0,square1,j,0.0657,0,V,1.0
V1,78.0,61.0,74.0,63.0,87.0,61,5354.0,square1,j,0.0636,0,V,1.0
V1,79.0,56.0,78.0,67.0,89.0,56,5410.0,square1,j,0.0343,0,V,1.0
V1,80.0,59.0,75.0,63.0,84.0,63,5473.0,square3,r,0.2849,2,V,1.0
V1,81.0,63.0,74.0,68.0,82.0,68,5541.0,square3,r,0.0024,2,V,1.0
V1,82.0,59.0,75.0,67.0,80.0,67,5608.0,square3,r,0.6008,2,V,1.0
V1,83.0,58.0,77.0,63.0,82.0,63,5671.0,square3,r,0.1504,2,V,1.0
V1,84.0,57.0,76.0,64.0,87.0,64,5735.0,square3,r,0.1457,2,V,1.0
V1,85.0,61.0,73.0,66.0,83.0,66,5801.0,square3,r,0.4354,2,V,1.0
V1,86.0,60.0,71.0,66.0,85.0,66,5867.0,square3,r,0.0343,2,V,1.0
V1,87.0,61.0,80.0,73.0,84.0,73,5940.0,square3,r,0.1515,2,V,1.0
V1,88.0,67.0,77.0,67.0,85.0,67,6007.0,square3,r,0.4132,2,V,1.0
V1,89.0,60.0,79.0,63.0,86.0,63,6070.0,square3,r,0.5183,2,V,1.0
V1,90.0,60.0,74.0,66.0,88.0,66,6136.0,square3,r,0.2363,2,V,1.0
V1,91.0,57.0,81.0,61.0,79.0,61,6197.0,square3,r,0.0172,2,V,1.0
V1,92.0,61.0,78.0,61.0,84.0,61,6258.0,square3,r,0.5778,2,V,1.0
V1,93.0,64.0,72.0,69.0,83.0,69,6327.0,square3,r,0.3508,2,V,1.0
V1,94.0,64.0,73.0,68.0,83.0,68,6395.0,square3,r,0.1708,2,V,1.0
V1,95.0,61.0,69.0,68.0,87.0,68,6463.0,square3,r,0.0306,2,V,1.0
V1,96.0,55.0,77.0,65.0,88.0,65,6528.0,square3,r,0.1322,2,V,1.0
V1,97.0,61.0,75.0,63.0,82.0,63,6591.0,square3,r,0.2177,2,V,1.0
V1,98.0,59.0,71.0,66.0,82.0,66,6657.0,square3,r,0.13,2,V,1.0
V1,99.0,61.0,69.0,67.0,84.0,67,6724.0,square3,r,0.017,2,V,1.0
S7,0.0,68.0,73.0,62.0,57.0,99999,0.0,invalid,,,-1,S,7.0
S7,1.0,74.0,67.0,66.0,59.0,74,74.0,square1,r,0.7505,0,S,7.0
S7,2.0,68.0,69.0,65.0,60.0,68,142.0,square1,r,0.3828,0,S,7.0
S7,3.0,74.0,68.0,65.0,63.0,74,216.0,square1,r,0.0829,0,S,7.0
S7,4.0,68.0,74.0,67.0,63.0,68,284.0,square1,r,0.1133,0,S,7.0
S7,5.0,68.0,67.0,61.0,57.0,68,352.0,square1,r,0.1997,0,S,7.0
S7,6.0,72.0,64.0,65.0,51.0,72,424.0,square1,r,0.2291,0,S,7.0
S7,7.0,69.0,63.0,69.0,63.0,69,493.0,square1,r,0.1985,0,S,7.0
S7,8.0,71.0,68.0,63.0,54.0,71,564.0,square1,r,0.1832,0,S,7.0
S7,9.0,81.0,66.0,68.0,62.0,81,645.0,square1,r,0.2328,0,S,7.0
S7,10.0,72.0,73.0,68.0,61.0,72,717.0,square1,r,0.002,0,S,7.0
S7,11.0,72.0,72.0,62.0,58.0,72,789.0,square1,r,0.2017,0,S,7.0
S7,12.0,66.0,66.0,62.0,61.0,66,855.0,square1,r,0.0012,0,S,7.0
S7,13.0,73.0,75.0,75.0,68.0,73,928.0,square1,r,0.2191,0,S,7.0
S7,14.0,71.0,73.0,72.0,66.0,71,999.0,square1,r,0.0952,0,S,7.0
S7,15.0,75.0,68.0,68.0,65.0,75,1074.0,square1,r,0.2171,0,S,7.0
S7,16.0,67.0,65.0,62.0,56.0,67,1141.0,square1,r,0.0297,0,S,7.0
S7,17.0,72.0,67.0,63.0,64.0,72,1213.0,square1,r,0.0012,0,S,7.0
S7,18.0,73.0,69.0,66.0,65.0,73,1286.0,square1,r,0.0012,0,S,7.0
S7,19.0,75.0,70.0,62.0,58.0,75,1361.0,square1,r,0.2002,0,S,7.0
S7,20.0,76.0,63.0,67.0,62.0,76,1437.0,square1,r,0.1134,0,S,7.0
S7,21.0,79.0,76.0,63.0,64.0,79,1516.0,square1,r,0.013,0,S,7.0
S7,22.0,67.0,72.0,63.0,62.0,67,1583.0,square1,r,0.1846,0,S,7.0
S7,23.0,69.0,71.0,70.0,62.0,69,1652.0,square1,r,0.0343,0,S,7.0
S7,24.0,74.0,67.0,70.0,62.0,74,1726.0,square1,r,0.001,0,S,7.0
S7,25.0,70.0,67.0,72.0,62.0,70,1796.0,square1,r,0.0677,0,S,7.0
S7,26.0,72.0,62.0,74.0,65.0,72,1868.0,square1,r,0.0194,0,S,7.0
S7,27.0,69.0,70.0,68.0,62.0,69,1937.0,square1,r,0.0341,0,S,7.0
S7,28.0,65.0,66.0,60.0,62.0,65,2002.0,square1,r,0.0362,0,S,7.0
S7,29.0,70.0,64.0,60.0,68.0,70,2072.0,square1,r,0.0165,0,S,7.0
S7,30.0,69.0,69.0,64.0,57.0,69,2141.0,square1,r,0.0536,0,S,7.0
S7,31.0,77.0,67.0,65.0,60.0,77,2218.0,square1,r,0.0342,0,S,7.0
S7,32.0,67.0,75.0,65.0,58.0,67,2285.0,square1,r,0.1964,0,S,7.0
S7,33.0,74.0,66.0,66.0,60.0,74,2359.0,square1,r,0.1451,0,S,7.0
S7,34.0,72.0,72.0,66.0,61.0,66,2425.0,square3,i,0.1303,2,S,7.0
S7,35.0,67.0,68.0,64.0,62.0,68,2493.0,square2,j,0.0198,1,S,7.0
S7,36.0,64.0,63.0,70.0,58.0,58,2551.0,square4,f,1.1187,3,S,7.0
S7,37.0,80.0,72.0,64.0,53.0,72,2623.0,square2,j,0.2509,1,S,7.0
S7,38.0,78.0,69.0,76.0,67.0,69,2692.0,square2,j,0.1175,1,S,7.0
S7,39.0,69.0,66.0,60.0,67.0,66,2758.0,square2,j,0.0685,1,S,7.0
S7,40.0,72.0,71.0,63.0,66.0,71,2829.0,square2,j,0.1189,1,S,7.0
S7,41.0,80.0,73.0,65.0,63.0,73,2902.0,square2,j,0.1517,1,S,7.0
S7,42.0,77.0,60.0,65.0,59.0,60,2962.0,square2,j,0.1346,1,S,7.0
S7,43.0,70.0,72.0,70.0,63.0,72,3034.0,square2,j,0.1348,1,S,7.0
S7,44.0,77.0,70.0,66.0,58.0,70,3104.0,square2,j,0.2008,1,S,7.0
S7,45.0,75.0,69.0,73.0,58.0,69,3173.0,square2,j,0.2003,1,S,7.0
S7,46.0,74.0,71.0,63.0,63.0,71,3244.0,square2,j,0.218,1,S,7.0
S7,47.0,73.0,75.0,71.0,64.0,75,3319.0,square2,j,0.2173,1,S,7.0
S7,48.0,78.0,79.0,64.0,58.0,79,3398.0,square2,j,0.0042,1,S,7.0
S7,49.0,75.0,72.0,66.0,72.0,72,3470.0,square2,j,0.0341,1,S,7.0
S10,0.0,72.0,76.0,80.0,64.0,64,64.0,square4,r,1.0942,3,S,10.0
S10,1.0,76.0,75.0,74.0,65.0,65,129.0,square4,r,0.0375,3,S,10.0
S10,2.0,70.0,72.0,79.0,74.0,74,203.0,square4,r,0.1331,3,S,10.0
S10,3.0,69.0,77.0,76.0,68.0,68,271.0,square4,r,0.1333,3,S,10.0
S10,4.0,72.0,79.0,77.0,70.0,70,341.0,square4,r,0.1503,3,S,10.0
S10,5.0,68.0,74.0,72.0,64.0,64,405.0,square4,r,0.2169,3,S,10.0
S10,6.0,70.0,77.0,72.0,62.0,62,467.0,square4,r,0.1999,3,S,10.0
S10,7.0,78.0,81.0,80.0,74.0,74,541.0,square4,r,0.1492,3,S,10.0
S10,8.0,78.0,78.0,82.0,66.0,66,607.0,square4,r,0.2498,3,S,10.0
S10,9.0,69.0,76.0,77.0,65.0,65,672.0,square4,r,0.117,3,S,10.0
S10,10.0,72.0,78.0,72.0,75.0,75,747.0,square4,r,0.0346,3,S,10.0
S10,11.0,71.0,76.0,78.0,66.0,66,813.0,square4,r,0.1967,3,S,10.0
S10,12.0,73.0,83.0,79.0,69.0,69,882.0,square4,r,0.0661,3,S,10.0
S10,13.0,68.0,77.0,65.0,65.0,65,947.0,square4,r,0.2678,3,S,10.0
S10,14.0,69.0,84.0,79.0,65.0,65,1012.0,square4,r,0.4456,3,S,10.0
S10,15.0,72.0,84.0,70.0,71.0,71,1083.0,square4,r,0.1869,3,S,10.0
S10,16.0,79.0,80.0,82.0,67.0,67,1150.0,square4,r,0.1666,3,S,10.0
S10,17.0,69.0,83.0,75.0,70.0,70,1220.0,square4,r,0.0801,3,S,10.0
S10,18.0,69.0,75.0,69.0,68.0,68,1288.0,square4,r,0.2673,3,S,10.0
S10,19.0,70.0,83.0,73.0,66.0,66,1354.0,square4,r,0.0027,3,S,10.0
S10,20.0,69.0,83.0,75.0,66.0,66,1420.0,square4,r,0.1678,3,S,10.0
S10,21.0,77.0,70.0,75.0,70.0,70,1490.0,square4,r,0.8507,3,S,10.0
S10,22.0,73.0,77.0,81.0,69.0,69,1559.0,square4,r,0.2368,3,S,10.0
S10,23.0,73.0,78.0,70.0,65.0,65,1624.0,square4,r,0.1193,3,S,10.0
S10,24.0,70.0,80.0,75.0,66.0,66,1690.0,square4,r,0.0174,3,S,10.0
S10,25.0,70.0,80.0,73.0,72.0,72,1762.0,square4,r,0.2167,3,S,10.0
S10,26.0,73.0,75.0,73.0,75.0,75,1837.0,square4,r,0.1511,3,S,10.0
S10,27.0,77.0,81.0,83.0,66.0,66,1903.0,square4,r,0.1016,3,S,10.0
S10,28.0,73.0,79.0,79.0,73.0,73,1976.0,square4,r,0.1502,3,S,10.0
S10,29.0,73.0,79.0,72.0,69.0,69,2045.0,square4,r,0.1676,3,S,10.0
S10,30.0,71.0,85.0,79.0,69.0,69,2114.0,square4,r,0.2343,3,S,10.0
S10,31.0,71.0,85.0,83.0,66.0,66,2180.0,square4,r,0.2009,3,S,10.0
S10,32.0,78.0,79.0,77.0,65.0,65,2245.0,square4,r,0.1839,3,S,10.0
S10,33.0,83.0,79.0,72.0,68.0,68,2313.0,square4,r,0.2188,3,S,10.0
S10,34.0,68.0,74.0,79.0,72.0,72,2385.0,square4,r,0.23,3,S,10.0
S10,35.0,70.0,83.0,79.0,67.0,67,2452.0,square4,r,0.1879,3,S,10.0
S10,36.0,67.0,76.0,75.0,72.0,72,2524.0,square4,r,0.1679,3,S,10.0
S10,37.0,76.0,82.0,79.0,60.0,60,2584.0,square4,r,0.1814,3,S,10.0
S10,38.0,72.0,75.0,69.0,68.0,68,2652.0,square4,r,0.2337,3,S,10.0
S10,39.0,73.0,78.0,76.0,70.0,70,2722.0,square4,r,0.0351,3,S,10.0
S10,40.0,76.0,77.0,66.0,60.0,60,2782.0,square4,r,0.1989,3,S,10.0
S10,41.0,74.0,83.0,73.0,67.0,67,2849.0,square4,r,0.2044,3,S,10.0
S10,42.0,72.0,69.0,80.0,63.0,63,2912.0,square4,r,0.202,3,S,10.0
S10,43.0,69.0,74.0,72.0,68.0,68,2980.0,square4,r,0.2173,3,S,10.0
S10,44.0,67.0,76.0,70.0,65.0,65,3045.0,square4,r,0.1505,3,S,10.0
S10,45.0,76.0,81.0,74.0,72.0,72,3117.0,square4,r,0.2349,3,S,10.0
S10,46.0,76.0,79.0,76.0,66.0,66,3183.0,square4,r,0.2501,3,S,10.0
S10,47.0,67.0,81.0,84.0,60.0,60,3243.0,square4,r,0.2007,3,S,10.0
S10,48.0,73.0,83.0,75.0,66.0,66,3309.0,square4,r,0.2499,3,S,10.0
S10,49.0,66.0,77.0,74.0,71.0,71,3380.0,square4,r,0.2001,3,S,10.0
S5,0.0,90.0,70.0,79.0,84.0,84,84.0,square4,i,1.0113,3,S,5.0
S5,1.0,92.0,77.0,83.0,81.0,77,161.0,square2,j,0.001,1,S,5.0
S5,2.0,83.0,72.0,81.0,76.0,83,244.0,square1,f,0.5331,0,S,5.0
S5,3.0,87.0,72.0,79.0,81.0,79,323.0,square3,r,0.0848,2,S,5.0
S5,4.0,86.0,81.0,78.0,72.0,72,395.0,square4,i,0.0832,3,S,5.0
S5,5.0,89.0,70.0,79.0,83.0,83,478.0,square4,i,0.2166,3,S,5.0
S5,6.0,86.0,69.0,81.0,81.0,81,559.0,square4,i,0.2162,3,S,5.0
S5,7.0,82.0,72.0,86.0,80.0,80,639.0,square4,i,0.0997,3,S,5.0
S5,8.0,84.0,67.0,80.0,77.0,77,716.0,square4,i,0.0168,3,S,5.0
S5,9.0,92.0,80.0,86.0,84.0,84,800.0,square4,i,0.1517,3,S,5.0
S5,10.0,82.0,71.0,80.0,80.0,80,880.0,square4,i,0.1178,3,S,5.0
S5,11.0,80.0,75.0,79.0,75.0,75,955.0,square4,i,0.2008,3,S,5.0
S5,12.0,84.0,75.0,80.0,82.0,82,1037.0,square4,i,0.0175,3,S,5.0
S5,13.0,85.0,74.0,74.0,81.0,81,1118.0,square4,i,0.2179,3,S,5.0
S5,14.0,81.0,79.0,85.0,81.0,81,1199.0,square4,i,0.2174,3,S,5.0
S5,15.0,81.0,75.0,76.0,77.0,77,1276.0,square4,i,0.1173,3,S,5.0
S5,16.0,86.0,74.0,78.0,74.0,74,1350.0,square4,i,0.2177,3,S,5.0
S5,17.0,81.0,77.0,81.0,77.0,77,1427.0,square4,i,0.1701,3,S,5.0
S5,18.0,87.0,70.0,84.0,82.0,87,1514.0,square1,f,0.0511,0,S,5.0
S5,19.0,84.0,76.0,83.0,76.0,84,1598.0,square1,f,0.0997,0,S,5.0
S5,20.0,79.0,78.0,82.0,76.0,79,1677.0,square1,f,0.0176,0,S,5.0
S5,21.0,86.0,68.0,80.0,72.0,86,1763.0,square1,f,0.13,0,S,5.0
S5,22.0,93.0,80.0,85.0,84.0,93,1856.0,square1,f,0.388,0,S,5.0
S5,23.0,87.0,73.0,76.0,70.0,87,1943.0,square1,f,0.1524,0,S,5.0
S5,24.0,85.0,69.0,81.0,78.0,85,2028.0,square1,f,0.2174,0,S,5.0
S5,25.0,89.0,77.0,77.0,76.0,89,2117.0,square1,f,0.2134,0,S,5.0
S5,26.0,84.0,71.0,81.0,75.0,84,2201.0,square1,f,0.1343,0,S,5.0
S5,27.0,84.0,75.0,82.0,71.0,84,2285.0,square1,f,0.0189,0,S,5.0
S5,28.0,83.0,72.0,82.0,78.0,83,2368.0,square1,f,0.0848,0,S,5.0
S5,29.0,91.0,67.0,79.0,74.0,91,2459.0,square1,f,0.2325,0,S,5.0
S5,30.0,82.0,69.0,81.0,77.0,82,2541.0,square1,f,0.1669,0,S,5.0
S5,31.0,82.0,72.0,80.0,78.0,82,2623.0,square1,f,0.0009,0,S,5.0
S5,32.0,83.0,73.0,91.0,80.0,83,2706.0,square1,f,0.0186,0,S,5.0
S5,33.0,83.0,68.0,85.0,78.0,83,2789.0,square1,f,0.051,0,S,5.0
S5,34.0,89.0,79.0,83.0,77.0,89,2878.0,square1,f,0.2186,0,S,5.0
S5,35.0,88.0,72.0,79.0,80.0,88,2966.0,square1,f,0.0019,0,S,5.0
S5,36.0,90.0,74.0,84.0,76.0,90,3056.0,square1,f,0.0343,0,S,5.0
S5,37.0,85.0,75.0,80.0,82.0,85,3141.0,square1,f,0.0509,0,S,5.0
S5,38.0,78.0,74.0,85.0,79.0,78,3219.0,square1,f,0.1476,0,S,5.0
S5,39.0,87.0,73.0,87.0,85.0,87,3306.0,square1,f,0.2701,0,S,5.0
S5,40.0,83.0,67.0,81.0,80.0,83,3389.0,square1,f,0.03,0,S,5.0
S5,41.0,82.0,69.0,88.0,80.0,82,3471.0,square1,f,0.0348,0,S,5.0
S5,42.0,85.0,78.0,91.0,80.0,85,3556.0,square1,f,0.0873,0,S,5.0
S5,43.0,89.0,74.0,78.0,74.0,89,3645.0,square1,f,0.0672,0,S,5.0
S5,44.0,90.0,74.0,77.0,85.0,90,3735.0,square1,f,0.1173,0,S,5.0
S5,45.0,89.0,68.0,81.0,78.0,89,3824.0,square1,f,0.253,0,S,5.0
S5,46.0,86.0,70.0,86.0,68.0,86,3910.0,square1,f,0.051,0,S,5.0
S5,47.0,90.0,77.0,85.0,84.0,90,4000.0,square1,f,0.2491,0,S,5.0
S5,48.0,76.0,66.0,82.0,79.0,76,4076.0,square1,f,0.0464,0,S,5.0
S5,49.0,84.0,73.0,82.0,75.0,84,4160.0,square1,f,0.0351,0,S,5.0
S12,0.0,38.0,42.0,30.0,42.0,38,38.0,square1,i,1.1172,0,S,12.0
S12,1.0,30.0,42.0,28.0,37.0,28,66.0,square3,f,1.8325,2,S,12.0
S12,2.0,34.0,41.0,38.0,43.0,43,109.0,square4,j,0.1825,3,S,12.0
S12,3.0,38.0,51.0,38.0,38.0,51,160.0,square2,r,0.2163,1,S,12.0
S12,4.0,32.0,37.0,33.0,45.0,37,197.0,square2,r,0.1213,1,S,12.0
S12,5.0,38.0,52.0,36.0,35.0,52,249.0,square2,r,0.3119,1,S,12.0
S12,6.0,30.0,43.0,30.0,38.0,43,292.0,square2,r,0.2324,1,S,12.0
S12,7.0,38.0,39.0,30.0,39.0,39,331.0,square2,r,0.1993,1,S,12.0
S12,8.0,37.0,49.0,35.0,38.0,38,369.0,square4,j,0.1502,3,S,12.0
S12,9.0,37.0,44.0,29.0,38.0,37,406.0,square1,i,0.3169,0,S,12.0
S12,10.0,35.0,42.0,30.0,45.0,30,436.0,square3,f,0.1341,2,S,12.0
S12,11.0,34.0,45.0,36.0,32.0,34,470.0,square1,i,0.1004,0,S,12.0
S12,12.0,33.0,45.0,35.0,42.0,42,512.0,square4,j,0.2151,3,S,12.0
S12,13.0,36.0,36.0,29.0,40.0,40,552.0,square4,j,0.2185,3,S,12.0
S12,14.0,36.0,49.0,32.0,42.0,42,594.0,square4,j,0.0852,3,S,12.0
S12,15.0,35.0,43.0,35.0,46.0,46,640.0,square4,j,0.1133,3,S,12.0
S12,16.0,39.0,48.0,41.0,43.0,43,683.0,square4,j,0.2192,3,S,12.0
S12,17.0,35.0,47.0,27.0,38.0,38,721.0,square4,j,0.2317,3,S,12.0
S12,18.0,37.0,51.0,33.0,33.0,37,758.0,square1,i,0.0512,0,S,12.0
S12,19.0,41.0,42.0,33.0,36.0,42,800.0,square2,r,0.1507,1,S,12.0
S12,20.0,34.0,44.0,26.0,41.0,44,844.0,square2,r,0.2024,1,S,12.0
S12,21.0,35.0,37.0,29.0,35.0,37,881.0,square2,r,0.1839,1,S,12.0
S12,22.0,37.0,48.0,31.0,41.0,48,929.0,square2,r,0.1676,1,S,12.0
S12,23.0,36.0,43.0,27.0,45.0,45,974.0,square4,j,0.8188,3,S,12.0
S12,24.0,39.0,48.0,38.0,38.0,38,1012.0,square3,f,0.2516,2,S,12.0
S12,25.0,31.0,43.0,30.0,40.0,40,1052.0,square4,j,0.3177,3,S,12.0
S12,26.0,35.0,48.0,34.0,33.0,33,1085.0,square4,j,0.2004,3,S,12.0
S12,27.0,46.0,46.0,28.0,38.0,46,1131.0,square1,i,0.1684,0,S,12.0
S12,28.0,32.0,37.0,32.0,40.0,32,1163.0,square1,i,0.0864,0,S,12.0
S12,29.0,38.0,41.0,32.0,44.0,41,1204.0,square2,r,0.5175,1,S,12.0
S12,30.0,32.0,48.0,29.0,42.0,48,1252.0,square2,r,0.1669,1,S,12.0
S12,31.0,34.0,46.0,30.0,42.0,46,1298.0,square2,r,0.0013,1,S,12.0
S12,32.0,39.0,43.0,41.0,40.0,43,1341.0,square2,r,0.2169,1,S,12.0
S12,33.0,36.0,47.0,33.0,46.0,47,1388.0,square2,r,0.2685,1,S,12.0
S12,34.0,36.0,41.0,34.0,41.0,41,1429.0,square2,r,0.0343,1,S,12.0
S12,35.0,34.0,42.0,31.0,43.0,42,1471.0,square2,r,0.0653,1,S,12.0
S12,36.0,39.0,43.0,26.0,33.0,43,1514.0,square2,r,0.0853,1,S,12.0
S12,37.0,39.0,49.0,30.0,42.0,49,1563.0,square2,r,0.0845,1,S,12.0
S12,38.0,33.0,47.0,36.0,41.0,47,1610.0,square2,r,0.0338,1,S,12.0
S12,39.0,29.0,46.0,35.0,36.0,46,1656.0,square2,r,0.1675,1,S,12.0
S12,40.0,39.0,39.0,29.0,36.0,39,1695.0,square2,r,0.1193,1,S,12.0
S12,41.0,33.0,44.0,31.0,40.0,33,1728.0,square1,i,0.5786,0,S,12.0
S12,42.0,34.0,46.0,25.0,37.0,37,1765.0,square4,j,0.9173,3,S,12.0
S12,43.0,37.0,42.0,30.0,42.0,42,1807.0,square2,r,0.1508,1,S,12.0
S12,44.0,33.0,49.0,36.0,39.0,49,1856.0,square2,r,0.2357,1,S,12.0
S12,45.0,35.0,40.0,30.0,47.0,40,1896.0,square2,r,0.2508,1,S,12.0
S12,46.0,40.0,41.0,29.0,35.0,41,1937.0,square2,r,0.0503,1,S,12.0
S12,47.0,32.0,42.0,28.0,43.0,42,1979.0,square2,r,0.1678,1,S,12.0
S12,48.0,43.0,47.0,31.0,38.0,47,2026.0,square2,r,0.1673,1,S,12.0
S12,49.0,37.0,41.0,35.0,40.0,41,2067.0,square2,r,0.101,1,S,12.0
S3,0.0,38.0,48.0,42.0,57.0,57,57.0,square4,r,0.4196,3,S,3.0
S3,1.0,29.0,43.0,51.0,57.0,43,100.0,square2,i,0.3651,1,S,3.0
S3,2.0,41.0,49.0,46.0,49.0,41,141.0,square1,f,1.3318,0,S,3.0
S3,3.0,44.0,50.0,45.0,52.0,45,186.0,square3,j,0.7136,2,S,3.0
S3,4.0,37.0,51.0,45.0,58.0,58,244.0,square4,r,0.2,3,S,3.0
S3,5.0,47.0,43.0,42.0,49.0,49,293.0,square4,r,0.1157,3,S,3.0
S3,6.0,44.0,53.0,51.0,58.0,58,351.0,square4,r,0.0999,3,S,3.0
S3,7.0,39.0,47.0,46.0,54.0,54,405.0,square4,r,0.1327,3,S,3.0
S3,8.0,43.0,53.0,41.0,52.0,52,457.0,square4,r,0.135,3,S,3.0
S3,9.0,42.0,46.0,41.0,53.0,53,510.0,square4,r,0.0839,3,S,3.0
S3,10.0,37.0,49.0,49.0,55.0,55,565.0,square4,r,0.151,3,S,3.0
S3,11.0,40.0,47.0,36.0,59.0,59,624.0,square4,r,0.2498,3,S,3.0
S3,12.0,46.0,51.0,39.0,56.0,56,680.0,square4,r,0.1829,3,S,3.0
S3,13.0,39.0,48.0,45.0,57.0,57,737.0,square4,r,0.1343,3,S,3.0
S3,14.0,39.0,55.0,43.0,47.0,47,784.0,square4,r,0.147,3,S,3.0
S3,15.0,46.0,46.0,47.0,52.0,52,836.0,square4,r,0.0149,3,S,3.0
S3,16.0,42.0,49.0,50.0,55.0,55,891.0,square4,r,0.1491,3,S,3.0
S3,17.0,45.0,45.0,56.0,47.0,47,938.0,square4,r,0.002,3,S,3.0
S3,18.0,46.0,43.0,45.0,50.0,50,988.0,square4,r,0.0018,3,S,3.0
S3,19.0,41.0,47.0,50.0,55.0,55,1043.0,square4,r,0.1031,3,S,3.0
S3,20.0,45.0,52.0,49.0,52.0,52,1095.0,square4,r,0.0636,3,S,3.0
S3,21.0,40.0,43.0,47.0,46.0,46,1141.0,square4,r,0.1176,3,S,3.0
S3,22.0,45.0,46.0,44.0,47.0,47,1188.0,square4,r,0.2166,3,S,3.0
S3,23.0,36.0,50.0,42.0,46.0,46,1234.0,square4,r,0.0833,3,S,3.0
S3,24.0,42.0,54.0,49.0,55.0,55,1289.0,square4,r,0.0842,3,S,3.0
S3,25.0,43.0,51.0,44.0,54.0,54,1343.0,square4,r,0.0527,3,S,3.0
S3,26.0,49.0,50.0,52.0,52.0,52,1395.0,square4,r,0.0343,3,S,3.0
S3,27.0,47.0,52.0,44.0,50.0,50,1445.0,square4,r,0.0024,3,S,3.0
S3,28.0,37.0,48.0,40.0,47.0,47,1492.0,square4,r,0.0176,3,S,3.0
S3,29.0,50.0,43.0,50.0,57.0,57,1549.0,square4,r,0.0509,3,S,3.0
S3,30.0,50.0,50.0,46.0,47.0,47,1596.0,square4,r,0.1506,3,S,3.0
S3,31.0,37.0,53.0,49.0,56.0,56,1652.0,square4,r,0.1679,3,S,3.0
S3,32.0,42.0,50.0,43.0,58.0,58,1710.0,square4,r,0.0345,3,S,3.0
S3,33.0,44.0,49.0,46.0,59.0,59,1769.0,square4,r,0.1352,3,S,3.0
S3,34.0,42.0,50.0,50.0,58.0,58,1827.0,square4,r,0.1803,3,S,3.0
S3,35.0,43.0,46.0,45.0,50.0,50,1877.0,square4,r,0.1877,3,S,3.0
S3,36.0,46.0,52.0,50.0,48.0,48,1925.0,square4,r,0.1153,3,S,3.0
S3,37.0,48.0,50.0,49.0,52.0,52,1977.0,square4,r,0.0024,3,S,3.0
S3,38.0,39.0,43.0,50.0,55.0,55,2032.0,square4,r,0.1692,3,S,3.0
S3,39.0,50.0,53.0,46.0,57.0,57,2089.0,square4,r,0.0477,3,S,3.0
S3,40.0,41.0,46.0,48.0,55.0,55,2144.0,square4,r,0.0842,3,S,3.0
S3,41.0,49.0,49.0,40.0,56.0,56,2200.0,square4,r,0.2168,3,S,3.0
S3,42.0,47.0,49.0,43.0,48.0,48,2248.0,square4,r,0.1158,3,S,3.0
S3,43.0,46.0,43.0,41.0,58.0,58,2306.0,square4,r,0.154,3,S,3.0
S3,44.0,46.0,52.0,51.0,55.0,55,2361.0,square4,r,0.1503,3,S,3.0
S3,45.0,46.0,41.0,46.0,49.0,49,2410.0,square4,r,0.217,3,S,3.0
S3,46.0,32.0,56.0,40.0,50.0,50,2460.0,square4,r,0.2181,3,S,3.0
S3,47.0,42.0,49.0,44.0,51.0,51,2511.0,square4,r,0.1298,3,S,3.0
S3,48.0,36.0,45.0,38.0,50.0,50,2561.0,square4,r,0.0839,3,S,3.0
S3,49.0,45.0,48.0,47.0,52.0,52,2613.0,square4,r,0.2136,3,S,3.0
S6,0.0,40.0,29.0,39.0,26.0,29,29.0,square2,f,0.46,1,S,6.0
S6,1.0,34.0,40.0,31.0,25.0,25,54.0,square4,i,0.0183,3,S,6.0
S6,2.0,37.0,31.0,25.0,30.0,37,91.0,square1,j,0.0832,0,S,6.0
S6,3.0,39.0,37.0,30.0,27.0,30,121.0,square3,r,0.1618,2,S,6.0
S6,4.0,42.0,40.0,28.0,32.0,42,163.0,square1,j,0.0011,0,S,6.0
S6,5.0,35.0,35.0,39.0,29.0,35,198.0,square1,j,0.1016,0,S,6.0
S6,6.0,48.0,30.0,37.0,33.0,48,246.0,square1,j,0.2615,0,S,6.0
S6,7.0,47.0,34.0,31.0,29.0,47,293.0,square1,j,0.1851,0,S,6.0
S6,8.0,43.0,35.0,30.0,25.0,43,336.0,square1,j,0.1846,0,S,6.0
S6,9.0,36.0,38.0,35.0,35.0,36,372.0,square1,j,0.0335,0,S,6.0
S6,10.0,38.0,35.0,31.0,21.0,38,410.0,square1,j,0.0504,0,S,6.0
S6,11.0,30.0,36.0,31.0,20.0,20,430.0,square4,i,0.3505,3,S,6.0
S6,12.0,37.0,40.0,33.0,22.0,40,470.0,square2,f,0.0678,1,S,6.0
S6,13.0,32.0,41.0,35.0,29.0,41,511.0,square2,f,0.1831,1,S,6.0
S6,14.0,41.0,29.0,30.0,32.0,29,540.0,square2,f,0.1006,1,S,6.0
S6,15.0,43.0,37.0,31.0,27.0,37,577.0,square2,f,0.2011,1,S,6.0
S6,16.0,34.0,34.0,35.0,31.0,35,612.0,square3,r,0.2548,2,S,6.0
S6,17.0,47.0,40.0,29.0,28.0,47,659.0,square1,j,0.7846,0,S,6.0
S6,18.0,37.0,38.0,34.0,35.0,37,696.0,square1,j,0.152,0,S,6.0
S6,19.0,36.0,39.0,31.0,26.0,36,732.0,square1,j,0.0842,0,S,6.0
S6,20.0,44.0,40.0,31.0,25.0,44,776.0,square1,j,0.1172,0,S,6.0
S6,21.0,39.0,41.0,35.0,24.0,39,815.0,square1,j,0.0511,0,S,6.0
S6,22.0,41.0,38.0,41.0,31.0,41,856.0,square1,j,0.0339,0,S,6.0
S6,23.0,37.0,31.0,30.0,32.0,37,893.0,square1,j,0.2172,0,S,6.0
S6,24.0,48.0,34.0,34.0,21.0,48,941.0,square1,j,0.2172,0,S,6.0
S6,25.0,42.0,45.0,26.0,29.0,42,983.0,square1,j,0.1859,0,S,6.0
S6,26.0,40.0,39.0,36.0,28.0,36,1019.0,square3,r,0.1156,2,S,6.0
S6,27.0,42.0,33.0,29.0,29.0,33,1052.0,square2,f,0.1013,1,S,6.0
S6,28.0,41.0,30.0,29.0,29.0,41,1093.0,square1,j,0.1669,0,S,6.0
S6,29.0,42.0,40.0,32.0,27.0,27,1120.0,square4,i,0.4656,3,S,6.0
S6,30.0,42.0,36.0,30.0,26.0,42,1162.0,square1,j,0.2331,0,S,6.0
S6,31.0,42.0,34.0,35.0,29.0,42,1204.0,square1,j,0.1007,0,S,6.0
S6,32.0,35.0,36.0,31.0,23.0,35,1239.0,square1,j,0.0686,0,S,6.0
S6,33.0,35.0,31.0,35.0,30.0,35,1274.0,square1,j,0.0014,0,S,6.0
S6,34.0,40.0,38.0,31.0,27.0,31,1305.0,square3,r,0.2675,2,S,6.0
S6,35.0,42.0,37.0,34.0,34.0,42,1347.0,square1,j,0.001,0,S,6.0
S6,36.0,37.0,46.0,31.0,34.0,37,1384.0,square1,j,0.1845,0,S,6.0
S6,37.0,38.0,40.0,30.0,26.0,38,1422.0,square1,j,0.0335,0,S,6.0
S6,38.0,36.0,34.0,31.0,33.0,36,1458.0,square1,j,0.2205,0,S,6.0
S6,39.0,44.0,37.0,33.0,31.0,44,1502.0,square1,j,0.0581,0,S,6.0
S6,40.0,40.0,38.0,31.0,25.0,40,1542.0,square1,j,0.0564,0,S,6.0
S6,41.0,49.0,35.0,35.0,28.0,49,1591.0,square1,j,0.2173,0,S,6.0
S6,42.0,44.0,40.0,32.0,28.0,44,1635.0,square1,j,0.2341,0,S,6.0
S6,43.0,43.0,36.0,33.0,26.0,43,1678.0,square1,j,0.1835,0,S,6.0
S6,44.0,38.0,33.0,34.0,26.0,38,1716.0,square1,j,0.217,0,S,6.0
S6,45.0,32.0,35.0,30.0,28.0,32,1748.0,square1,j,0.244,0,S,6.0
S6,46.0,38.0,36.0,34.0,30.0,38,1786.0,square1,j,0.0174,0,S,6.0
S6,47.0,44.0,35.0,32.0,31.0,44,1830.0,square1,j,0.0171,0,S,6.0
S6,48.0,40.0,40.0,31.0,33.0,40,1870.0,square1,j,0.0505,0,S,6.0
S6,49.0,41.0,29.0,29.0,29.0,41,1911.0,square1,j,0.0008,0,S,6.0
