block,Trial,square1,square2,square3,square4,currPoints,totalPoints,square,choiceKey.keys,choiceKey.rt,armNum,blockType,blockNum
prac,0.0,100.0,0.0,0.0,0.0,100,100.0,square1,,,0,p,0.0
prac,1.0,100.0,0.0,0.0,0.0,0,100.0,square2,,,1,p,0.0
prac,2.0,100.0,0.0,0.0,0.0,0,100.0,square4,,,3,p,0.0
prac,3.0,100.0,0.0,0.0,0.0,0,100.0,square3,,,2,p,0.0
prac,4.0,100.0,0.0,0.0,0.0,100,200.0,square1,,,0,p,0.0
prac,5.0,100.0,0.0,0.0,0.0,100,300.0,square1,,,0,p,0.0
prac,6.0,100.0,0.0,0.0,0.0,100,400.0,square1,,,0,p,0.0
prac,7.0,100.0,0.0,0.0,0.0,100,500.0,square1,,,0,p,0.0
prac,8.0,100.0,0.0,0.0,0.0,100,600.0,square1,,,0,p,0.0
prac,9.0,100.0,0.0,0.0,0.0,100,700.0,square1,,,0,p,0.0
V11,0.0,42.0,67.0,57.0,49.0,42,42.0,square1,r,1.0536,0,V,11.0
V11,1.0,42.0,71.0,60.0,53.0,60,102.0,square3,i,0.2717,2,V,11.0
V11,2.0,45.0,76.0,58.0,51.0,76,178.0,square2,j,0.3204,1,V,11.0
V11,3.0,44.0,65.0,60.0,49.0,49,227.0,square4,f,0.2082,3,V,11.0
V11,4.0,46.0,73.0,64.0,51.0,73,300.0,square2,j,0.118,1,V,11.0
V11,5.0,47.0,67.0,58.0,54.0,67,367.0,square2,j,0.0519,1,V,11.0
V11,6.0,43.0,68.0,58.0,50.0,58,425.0,square3,i,0.4258,2,V,11.0
V11,7.0,42.0,67.0,60.0,58.0,42,467.0,square1,r,0.2291,0,V,11.0
V11,8.0,44.0,67.0,60.0,53.0,67,534.0,square2,j,0.3419,1,V,11.0
V11,9.0,44.0,67.0,59.0,54.0,54,588.0,square4,f,0.063,3,V,11.0
V11,10.0,49.0,76.0,57.0,52.0,76,664.0,square2,j,0.4172,1,V,11.0
V11,11.0,45.0,71.0,58.0,51.0,71,735.0,square2,j,0.2723,1,V,11.0
V11,12.0,45.0,72.0,58.0,56.0,72,807.0,square2,j,0.1076,1,V,11.0
V11,13.0,49.0,67.0,63.0,54.0,67,874.0,square2,j,0.3404,1,V,11.0
V11,14.0,50.0,75.0,57.0,48.0,57,931.0,square3,i,0.0003,2,V,11.0
V11,15.0,40.0,71.0,61.0,51.0,40,971.0,square1,r,0.243,0,V,11.0
V11,16.0,47.0,72.0,56.0,54.0,72,1043.0,square2,j,0.4097,1,V,11.0
V11,17.0,40.0,71.0,61.0,46.0,46,1089.0,square4,f,0.1667,3,V,11.0
V11,18.0,44.0,69.0,59.0,51.0,69,1158.0,square2,j,0.2799,1,V,11.0
V11,19.0,44.0,73.0,59.0,47.0,73,1231.0,square2,j,0.2524,1,V,11.0
V11,20.0,47.0,69.0,64.0,54.0,69,1300.0,square2,j,0.3839,1,V,11.0
V11,21.0,78.0,49.0,70.0,65.0,70,1370.0,square3,i,0.0699,2,V,11.0
V11,22.0,78.0,56.0,73.0,62.0,56,1426.0,square2,j,0.161,1,V,11.0
V11,23.0,84.0,54.0,71.0,65.0,84,1510.0,square1,r,0.2916,0,V,11.0
V11,24.0,80.0,55.0,72.0,67.0,72,1582.0,square3,i,0.0648,2,V,11.0
V11,25.0,80.0,55.0,75.0,63.0,63,1645.0,square4,f,0.4098,3,V,11.0
V11,26.0,80.0,56.0,67.0,62.0,80,1725.0,square1,r,0.3056,0,V,11.0
V11,27.0,80.0,51.0,68.0,62.0,51,1776.0,square2,j,0.2433,1,V,11.0
V11,28.0,79.0,57.0,67.0,57.0,79,1855.0,square1,r,0.2987,0,V,11.0
V11,29.0,79.0,50.0,67.0,62.0,67,1922.0,square3,i,0.1266,2,V,11.0
V11,30.0,88.0,54.0,74.0,61.0,88,2010.0,square1,r,0.3473,0,V,11.0
V11,31.0,81.0,51.0,75.0,63.0,51,2061.0,square2,j,0.2224,1,V,11.0
V11,32.0,76.0,51.0,69.0,65.0,65,2126.0,square4,f,0.0557,3,V,11.0
V11,33.0,78.0,54.0,72.0,64.0,78,2204.0,square1,r,0.3336,0,V,11.0
V11,34.0,77.0,53.0,71.0,62.0,71,2275.0,square3,i,0.1255,2,V,11.0
V11,35.0,74.0,59.0,75.0,62.0,74,2349.0,square1,r,0.3907,0,V,11.0
V11,36.0,79.0,50.0,72.0,62.0,62,2411.0,square4,f,0.2576,3,V,11.0
V11,37.0,74.0,54.0,68.0,62.0,54,2465.0,square2,j,0.0914,1,V,11.0
V11,38.0,80.0,57.0,65.0,58.0,80,2545.0,square1,r,0.2297,0,V,11.0
V11,39.0,73.0,52.0,75.0,66.0,75,2620.0,square3,i,0.1278,2,V,11.0
V11,40.0,82.0,57.0,71.0,57.0,82,2702.0,square1,r,0.2849,0,V,11.0
V11,41.0,78.0,53.0,73.0,64.0,78,2780.0,square1,r,0.2237,0,V,11.0
V11,42.0,72.0,56.0,67.0,59.0,67,2847.0,square3,i,0.2293,2,V,11.0
V11,43.0,81.0,54.0,73.0,63.0,81,2928.0,square1,r,0.3267,0,V,11.0
V11,44.0,76.0,54.0,75.0,59.0,76,3004.0,square1,r,0.2085,0,V,11.0
V11,45.0,79.0,59.0,71.0,64.0,59,3063.0,square2,j,0.2085,1,V,11.0
V11,46.0,80.0,55.0,67.0,57.0,80,3143.0,square1,r,0.1948,0,V,11.0
V11,47.0,84.0,53.0,75.0,56.0,56,3199.0,square4,f,0.2323,3,V,11.0
V11,48.0,83.0,57.0,71.0,60.0,83,3282.0,square1,r,0.2296,0,V,11.0
V11,49.0,79.0,52.0,71.0,60.0,79,3361.0,square1,r,0.5069,0,V,11.0
V11,50.0,76.0,50.0,69.0,60.0,76,3437.0,square1,r,0.111,0,V,11.0
V11,51.0,79.0,54.0,72.0,57.0,79,3516.0,square1,r,0.2293,0,V,11.0
V11,52.0,80.0,54.0,72.0,64.0,80,3596.0,square1,r,0.1183,0,V,11.0
V11,53.0,35.0,50.0,55.0,69.0,35,3631.0,square1,r,0.0904,0,V,11.0
V11,54.0,45.0,48.0,55.0,73.0,55,3686.0,square3,i,0.271,2,V,11.0
V11,55.0,43.0,53.0,58.0,70.0,53,3739.0,square2,j,0.1617,1,V,11.0
V11,56.0,40.0,46.0,60.0,62.0,62,3801.0,square4,f,0.3265,3,V,11.0
V11,57.0,44.0,46.0,53.0,71.0,44,3845.0,square1,r,0.1875,0,V,11.0
V11,58.0,44.0,52.0,55.0,68.0,68,3913.0,square4,f,0.3197,3,V,11.0
V11,59.0,44.0,44.0,57.0,66.0,57,3970.0,square3,i,0.1666,2,V,11.0
V11,60.0,40.0,46.0,57.0,62.0,62,4032.0,square4,f,0.264,3,V,11.0
V11,61.0,42.0,52.0,58.0,62.0,52,4084.0,square2,j,0.1949,1,V,11.0
V11,62.0,40.0,49.0,56.0,71.0,71,4155.0,square4,f,0.4822,3,V,11.0
V11,63.0,40.0,54.0,60.0,66.0,66,4221.0,square4,f,0.2953,3,V,11.0
V11,64.0,41.0,43.0,51.0,66.0,66,4287.0,square4,f,0.3057,3,V,11.0
V11,65.0,39.0,48.0,59.0,66.0,66,4353.0,square4,f,0.2517,3,V,11.0
V11,66.0,40.0,48.0,59.0,69.0,40,4393.0,square1,r,0.2642,0,V,11.0
V11,67.0,46.0,45.0,58.0,69.0,69,4462.0,square4,f,0.2927,3,V,11.0
V11,68.0,41.0,50.0,56.0,69.0,69,4531.0,square4,f,0.2648,3,V,11.0
V11,69.0,48.0,49.0,57.0,71.0,71,4602.0,square4,f,0.1671,3,V,11.0
V11,70.0,41.0,47.0,58.0,65.0,65,4667.0,square4,f,0.3352,3,V,11.0
V11,71.0,37.0,46.0,58.0,60.0,46,4713.0,square2,j,0.1948,1,V,11.0
V11,72.0,41.0,47.0,54.0,65.0,54,4767.0,square3,i,0.0004,2,V,11.0
V11,73.0,42.0,47.0,60.0,67.0,67,4834.0,square4,f,0.2502,3,V,11.0
V11,74.0,43.0,49.0,57.0,64.0,43,4877.0,square1,r,0.2778,0,V,11.0
V11,75.0,38.0,46.0,57.0,66.0,66,4943.0,square4,f,0.2581,3,V,11.0
V11,76.0,42.0,50.0,58.0,68.0,68,5011.0,square4,f,0.2431,3,V,11.0
V11,77.0,36.0,49.0,58.0,64.0,64,5075.0,square4,f,0.2039,3,V,11.0
V11,78.0,40.0,50.0,56.0,67.0,67,5142.0,square4,f,0.4237,3,V,11.0
V11,79.0,39.0,48.0,56.0,67.0,67,5209.0,square4,f,0.0441,3,V,11.0
V11,80.0,51.0,33.0,30.0,45.0,45,5254.0,square4,f,0.0869,3,V,11.0
V11,81.0,49.0,31.0,23.0,48.0,48,5302.0,square4,f,0.2084,3,V,11.0
V11,82.0,55.0,30.0,25.0,42.0,30,5332.0,square2,j,0.6392,1,V,11.0
V11,83.0,50.0,33.0,27.0,48.0,27,5359.0,square3,i,0.382,2,V,11.0
V11,84.0,52.0,34.0,25.0,43.0,52,5411.0,square1,r,0.3019,0,V,11.0
V11,85.0,49.0,28.0,28.0,44.0,44,5455.0,square4,f,0.3474,3,V,11.0
V11,86.0,57.0,29.0,27.0,48.0,57,5512.0,square1,r,0.146,0,V,11.0
V11,87.0,49.0,29.0,21.0,38.0,49,5561.0,square1,r,0.2431,0,V,11.0
V11,88.0,55.0,32.0,29.0,46.0,55,5616.0,square1,r,0.382,0,V,11.0
V11,89.0,50.0,28.0,23.0,43.0,28,5644.0,square2,j,0.0027,1,V,11.0
V11,90.0,54.0,34.0,32.0,41.0,54,5698.0,square1,r,0.2362,0,V,11.0
V11,91.0,50.0,34.0,26.0,44.0,26,5724.0,square3,i,0.1413,2,V,11.0
V11,92.0,51.0,31.0,27.0,50.0,50,5774.0,square4,f,0.2708,3,V,11.0
V11,93.0,49.0,38.0,28.0,42.0,49,5823.0,square1,r,0.3471,0,V,11.0
V11,94.0,50.0,29.0,25.0,46.0,46,5869.0,square4,f,0.3262,3,V,11.0
V11,95.0,51.0,36.0,22.0,40.0,51,5920.0,square1,r,0.2363,0,V,11.0
V11,96.0,52.0,34.0,32.0,45.0,52,5972.0,square1,r,0.2302,0,V,11.0
V11,97.0,53.0,27.0,32.0,44.0,53,6025.0,square1,r,0.0376,0,V,11.0
V11,98.0,60.0,31.0,25.0,48.0,60,6085.0,square1,r,0.4399,0,V,11.0
V11,99.0,53.0,33.0,23.0,42.0,53,6138.0,square1,r,0.181,0,V,11.0
V9,0.0,20.0,29.0,37.0,45.0,99999,0.0,invalid,,,-1,V,9.0
V9,1.0,21.0,32.0,39.0,45.0,39,39.0,square3,r,0.3341,2,V,9.0
V9,2.0,16.0,27.0,41.0,48.0,48,87.0,square4,i,0.2855,3,V,9.0
V9,3.0,20.0,30.0,42.0,50.0,20,107.0,square1,j,0.2358,0,V,9.0
V9,4.0,22.0,34.0,37.0,47.0,34,141.0,square2,f,0.3958,1,V,9.0
V9,5.0,17.0,32.0,38.0,49.0,38,179.0,square3,r,0.0726,2,V,9.0
V9,6.0,17.0,25.0,39.0,47.0,39,218.0,square3,r,0.205,2,V,9.0
V9,7.0,22.0,28.0,33.0,48.0,33,251.0,square3,r,0.1968,2,V,9.0
V9,8.0,20.0,24.0,34.0,41.0,20,271.0,square1,j,0.3611,0,V,9.0
V9,9.0,20.0,33.0,30.0,51.0,30,301.0,square3,r,0.2454,2,V,9.0
V9,10.0,21.0,35.0,38.0,50.0,35,336.0,square2,f,0.2153,1,V,9.0
V9,11.0,19.0,29.0,44.0,45.0,45,381.0,square4,i,0.2938,3,V,9.0
V9,12.0,27.0,24.0,38.0,54.0,54,435.0,square4,i,0.2534,3,V,9.0
V9,13.0,15.0,26.0,37.0,50.0,50,485.0,square4,i,0.2086,3,V,9.0
V9,14.0,24.0,26.0,39.0,42.0,42,527.0,square4,i,0.1805,3,V,9.0
V9,15.0,26.0,27.0,43.0,49.0,49,576.0,square4,i,0.0793,3,V,9.0
V9,16.0,19.0,30.0,42.0,49.0,49,625.0,square4,i,0.2709,3,V,9.0
V9,17.0,21.0,30.0,34.0,49.0,49,674.0,square4,i,0.271,3,V,9.0
V9,18.0,25.0,33.0,41.0,51.0,41,715.0,square3,r,0.2117,2,V,9.0
V9,19.0,17.0,31.0,41.0,45.0,17,732.0,square1,j,0.2569,0,V,9.0
V9,20.0,19.0,31.0,34.0,49.0,49,781.0,square4,i,0.3276,3,V,9.0
V9,21.0,23.0,29.0,37.0,48.0,29,810.0,square2,f,0.2655,1,V,9.0
V9,22.0,15.0,32.0,36.0,48.0,48,858.0,square4,i,0.0841,3,V,9.0
V9,23.0,25.0,33.0,39.0,47.0,39,897.0,square3,r,0.0583,2,V,9.0
V9,24.0,21.0,30.0,38.0,52.0,52,949.0,square4,i,0.3071,3,V,9.0
V9,25.0,25.0,29.0,42.0,48.0,48,997.0,square4,i,0.2097,3,V,9.0
V9,26.0,22.0,29.0,39.0,47.0,47,1044.0,square4,i,0.251,3,V,9.0
V9,27.0,17.0,31.0,45.0,41.0,41,1085.0,square4,i,0.2017,3,V,9.0
V9,28.0,29.0,28.0,43.0,43.0,43,1128.0,square4,i,0.2293,3,V,9.0
V9,29.0,20.0,31.0,43.0,49.0,43,1171.0,square3,r,0.3649,2,V,9.0
V9,30.0,23.0,33.0,39.0,48.0,48,1219.0,square4,i,0.0209,3,V,9.0
V9,31.0,20.0,27.0,38.0,53.0,20,1239.0,square1,j,0.1252,0,V,9.0
V9,32.0,23.0,29.0,37.0,49.0,49,1288.0,square4,i,0.2014,3,V,9.0
V9,33.0,24.0,33.0,37.0,49.0,33,1321.0,square2,f,0.5068,1,V,9.0
V9,34.0,43.0,58.0,48.0,30.0,30,1351.0,square4,i,0.2709,3,V,9.0
V9,35.0,48.0,59.0,45.0,34.0,34,1385.0,square4,i,0.2115,3,V,9.0
V9,36.0,39.0,56.0,54.0,32.0,54,1439.0,square3,r,0.2778,2,V,9.0
V9,37.0,40.0,57.0,50.0,35.0,50,1489.0,square3,r,0.1683,2,V,9.0
V9,38.0,49.0,62.0,51.0,33.0,51,1540.0,square3,r,0.2292,2,V,9.0
V9,39.0,45.0,61.0,48.0,34.0,48,1588.0,square3,r,0.2712,2,V,9.0
V9,40.0,40.0,65.0,51.0,29.0,51,1639.0,square3,r,0.2381,2,V,9.0
V9,41.0,44.0,57.0,50.0,38.0,50,1689.0,square3,r,0.2169,2,V,9.0
V9,42.0,40.0,57.0,49.0,33.0,49,1738.0,square3,r,0.6376,2,V,9.0
V9,43.0,42.0,64.0,54.0,35.0,54,1792.0,square3,r,0.1141,2,V,9.0
V9,44.0,44.0,55.0,49.0,39.0,49,1841.0,square3,r,0.176,2,V,9.0
V9,45.0,37.0,66.0,51.0,35.0,51,1892.0,square3,r,0.1894,2,V,9.0
V9,46.0,40.0,59.0,51.0,32.0,40,1932.0,square1,j,0.014,0,V,9.0
V9,47.0,38.0,62.0,57.0,31.0,57,1989.0,square3,r,0.0981,2,V,9.0
V9,48.0,43.0,61.0,54.0,34.0,34,2023.0,square4,i,0.1528,3,V,9.0
V9,49.0,43.0,61.0,49.0,40.0,49,2072.0,square3,r,0.0626,2,V,9.0
V9,50.0,37.0,58.0,51.0,32.0,58,2130.0,square2,f,0.0488,1,V,9.0
V9,51.0,44.0,63.0,48.0,39.0,63,2193.0,square2,f,0.4249,1,V,9.0
V9,52.0,35.0,65.0,48.0,30.0,65,2258.0,square2,f,0.2501,1,V,9.0
V9,53.0,43.0,59.0,48.0,39.0,59,2317.0,square2,f,0.111,1,V,9.0
V9,54.0,43.0,59.0,52.0,30.0,59,2376.0,square2,f,0.2436,1,V,9.0
V9,55.0,41.0,58.0,51.0,34.0,58,2434.0,square2,f,0.2781,1,V,9.0
V9,56.0,44.0,63.0,50.0,33.0,50,2484.0,square3,r,0.0233,2,V,9.0
V9,57.0,42.0,60.0,49.0,32.0,60,2544.0,square2,f,0.1003,1,V,9.0
V9,58.0,44.0,62.0,57.0,30.0,44,2588.0,square1,j,0.5508,0,V,9.0
V9,59.0,45.0,61.0,45.0,31.0,61,2649.0,square2,f,0.0621,1,V,9.0
V9,60.0,43.0,63.0,53.0,33.0,33,2682.0,square4,i,0.3627,3,V,9.0
V9,61.0,39.0,56.0,55.0,31.0,56,2738.0,square2,f,0.1597,1,V,9.0
V9,62.0,39.0,61.0,50.0,34.0,61,2799.0,square2,f,0.1554,1,V,9.0
V9,63.0,44.0,57.0,48.0,36.0,57,2856.0,square2,f,0.257,1,V,9.0
V9,64.0,40.0,60.0,58.0,35.0,60,2916.0,square2,f,0.1945,1,V,9.0
V9,65.0,42.0,60.0,54.0,38.0,60,2976.0,square2,f,0.0623,1,V,9.0
V9,66.0,41.0,60.0,54.0,37.0,60,3036.0,square2,f,0.139,1,V,9.0
V9,67.0,43.0,61.0,54.0,40.0,61,3097.0,square2,f,0.1179,1,V,9.0
V9,68.0,45.0,40.0,26.0,18.0,40,3137.0,square2,f,0.0655,1,V,9.0
V9,69.0,50.0,41.0,29.0,20.0,29,3166.0,square3,r,0.4119,2,V,9.0
V9,70.0,43.0,36.0,27.0,15.0,43,3209.0,square1,j,0.2604,0,V,9.0
V9,71.0,44.0,40.0,28.0,18.0,18,3227.0,square4,i,0.1946,3,V,9.0
V9,72.0,42.0,38.0,27.0,18.0,42,3269.0,square1,j,0.0282,0,V,9.0
V9,73.0,46.0,33.0,25.0,19.0,46,3315.0,square1,j,0.286,0,V,9.0
V9,74.0,47.0,40.0,28.0,20.0,40,3355.0,square2,f,0.1324,1,V,9.0
V9,75.0,39.0,39.0,27.0,25.0,39,3394.0,square1,j,0.0789,0,V,9.0
V9,76.0,50.0,31.0,29.0,23.0,31,3425.0,square2,f,0.3751,1,V,9.0
V9,77.0,44.0,37.0,28.0,13.0,44,3469.0,square1,j,0.0003,0,V,9.0
V9,78.0,43.0,36.0,23.0,17.0,23,3492.0,square3,r,0.3479,2,V,9.0
V9,79.0,42.0,36.0,28.0,24.0,24,3516.0,square4,i,0.035,3,V,9.0
V9,80.0,47.0,35.0,30.0,14.0,47,3563.0,square1,j,0.378,0,V,9.0
V9,81.0,46.0,33.0,29.0,18.0,46,3609.0,square1,j,0.2988,0,V,9.0
V9,82.0,46.0,35.0,28.0,18.0,46,3655.0,square1,j,0.174,0,V,9.0
V9,83.0,47.0,41.0,32.0,15.0,47,3702.0,square1,j,0.1947,0,V,9.0
V9,84.0,45.0,38.0,31.0,18.0,45,3747.0,square1,j,0.0003,0,V,9.0
V9,85.0,42.0,35.0,30.0,21.0,42,3789.0,square1,j,0.1413,0,V,9.0
V9,86.0,49.0,39.0,23.0,18.0,49,3838.0,square1,j,0.0003,0,V,9.0
V9,87.0,49.0,39.0,27.0,16.0,49,3887.0,square1,j,0.1739,0,V,9.0
V9,88.0,45.0,38.0,25.0,14.0,45,3932.0,square1,j,0.0416,0,V,9.0
V9,89.0,45.0,32.0,28.0,19.0,45,3977.0,square1,j,0.0004,0,V,9.0
V9,90.0,44.0,35.0,29.0,20.0,44,4021.0,square1,j,0.1113,0,V,9.0
V9,91.0,42.0,38.0,32.0,16.0,42,4063.0,square1,j,0.0625,0,V,9.0
V9,92.0,45.0,36.0,23.0,20.0,45,4108.0,square1,j,0.0624,0,V,9.0
V9,93.0,45.0,35.0,26.0,18.0,18,4126.0,square4,i,0.4095,3,V,9.0
V9,94.0,44.0,37.0,27.0,13.0,44,4170.0,square1,j,0.2579,0,V,9.0
V9,95.0,46.0,36.0,25.0,20.0,25,4195.0,square3,r,0.3072,2,V,9.0
V9,96.0,43.0,39.0,27.0,16.0,43,4238.0,square1,j,0.3474,0,V,9.0
V9,97.0,48.0,39.0,30.0,16.0,39,4277.0,square2,f,0.2714,1,V,9.0
V9,98.0,49.0,40.0,26.0,20.0,49,4326.0,square1,j,0.2646,0,V,9.0
V9,99.0,49.0,41.0,27.0,18.0,49,4375.0,square1,j,0.1615,0,V,9.0
V1,0.0,46.0,61.0,52.0,71.0,61,61.0,square2,r,0.6852,1,V,1.0
V1,1.0,45.0,63.0,54.0,78.0,54,115.0,square3,j,0.0977,2,V,1.0
V1,2.0,51.0,58.0,59.0,77.0,51,166.0,square1,i,0.028,0,V,1.0
V1,3.0,53.0,65.0,56.0,75.0,65,231.0,square2,r,0.1808,1,V,1.0
V1,4.0,49.0,68.0,53.0,72.0,72,303.0,square4,f,0.1806,3,V,1.0
V1,5.0,47.0,70.0,59.0,76.0,76,379.0,square4,f,0.1671,3,V,1.0
V1,6.0,55.0,63.0,54.0,76.0,76,455.0,square4,f,0.1112,3,V,1.0
V1,7.0,47.0,67.0,55.0,74.0,74,529.0,square4,f,0.1052,3,V,1.0
V1,8.0,47.0,65.0,46.0,76.0,47,576.0,square1,i,0.0515,0,V,1.0
V1,9.0,46.0,68.0,59.0,78.0,78,654.0,square4,f,0.0628,3,V,1.0
V1,10.0,58.0,67.0,58.0,79.0,58,712.0,square3,j,0.0628,2,V,1.0
V1,11.0,44.0,61.0,54.0,72.0,72,784.0,square4,f,0.3566,3,V,1.0
V1,12.0,44.0,65.0,56.0,75.0,65,849.0,square2,r,0.0074,1,V,1.0
V1,13.0,47.0,63.0,53.0,73.0,73,922.0,square4,f,0.362,3,V,1.0
V1,14.0,49.0,66.0,56.0,75.0,75,997.0,square4,f,0.0696,3,V,1.0
V1,15.0,49.0,66.0,52.0,79.0,79,1076.0,square4,f,0.1886,3,V,1.0
V1,16.0,51.0,61.0,48.0,72.0,72,1148.0,square4,f,0.0553,3,V,1.0
V1,17.0,46.0,61.0,59.0,71.0,71,1219.0,square4,f,0.2009,3,V,1.0
V1,18.0,45.0,61.0,53.0,72.0,72,1291.0,square4,f,0.139,3,V,1.0
V1,19.0,49.0,63.0,54.0,76.0,76,1367.0,square4,f,0.1623,3,V,1.0
V1,20.0,46.0,66.0,52.0,72.0,72,1439.0,square4,f,0.0856,3,V,1.0
V1,21.0,50.0,65.0,51.0,73.0,73,1512.0,square4,f,0.2863,3,V,1.0
V1,22.0,56.0,62.0,56.0,77.0,77,1589.0,square4,f,0.2317,3,V,1.0
V1,23.0,45.0,67.0,54.0,83.0,83,1672.0,square4,f,0.0225,3,V,1.0
V1,24.0,46.0,69.0,57.0,71.0,71,1743.0,square4,f,0.2081,3,V,1.0
V1,25.0,41.0,65.0,55.0,76.0,76,1819.0,square4,f,0.2581,3,V,1.0
V1,26.0,51.0,60.0,55.0,74.0,74,1893.0,square4,f,0.2152,3,V,1.0
V1,27.0,52.0,63.0,56.0,73.0,73,1966.0,square4,f,0.16,3,V,1.0
V1,28.0,50.0,68.0,50.0,76.0,50,2016.0,square1,i,0.1886,0,V,1.0
V1,29.0,51.0,60.0,54.0,74.0,74,2090.0,square4,f,0.1669,3,V,1.0
V1,30.0,35.0,67.0,57.0,40.0,57,2147.0,square3,j,0.0277,2,V,1.0
V1,31.0,38.0,60.0,52.0,35.0,35,2182.0,square4,f,0.1597,3,V,1.0
V1,32.0,37.0,67.0,52.0,41.0,67,2249.0,square2,r,0.17,1,V,1.0
V1,33.0,37.0,62.0,53.0,42.0,62,2311.0,square2,r,0.2027,1,V,1.0
V1,34.0,35.0,58.0,54.0,43.0,54,2365.0,square3,j,0.2103,2,V,1.0
V1,35.0,40.0,60.0,50.0,44.0,40,2405.0,square1,i,0.2027,0,V,1.0
V1,36.0,39.0,66.0,50.0,39.0,66,2471.0,square2,r,0.1266,1,V,1.0
V1,37.0,32.0,59.0,54.0,38.0,38,2509.0,square4,f,0.1493,3,V,1.0
V1,38.0,32.0,64.0,50.0,39.0,64,2573.0,square2,r,0.2531,1,V,1.0
V1,39.0,37.0,60.0,45.0,40.0,60,2633.0,square2,r,0.2778,1,V,1.0
V1,40.0,35.0,61.0,54.0,43.0,61,2694.0,square2,r,0.2084,1,V,1.0
V1,41.0,33.0,62.0,49.0,42.0,49,2743.0,square3,j,0.0279,2,V,1.0
V1,42.0,31.0,70.0,52.0,42.0,70,2813.0,square2,r,0.1736,1,V,1.0
V1,43.0,37.0,59.0,48.0,41.0,37,2850.0,square1,i,0.1043,0,V,1.0
V1,44.0,39.0,63.0,53.0,44.0,63,2913.0,square2,r,0.434,1,V,1.0
V1,45.0,37.0,62.0,48.0,41.0,62,2975.0,square2,r,0.1389,1,V,1.0
V1,46.0,34.0,65.0,52.0,39.0,65,3040.0,square2,r,0.2228,1,V,1.0
V1,47.0,42.0,59.0,52.0,43.0,59,3099.0,square2,r,0.2641,1,V,1.0
V1,48.0,39.0,62.0,50.0,38.0,50,3149.0,square3,j,0.3126,2,V,1.0
V1,49.0,33.0,63.0,49.0,40.0,33,3182.0,square1,i,0.2159,0,V,1.0
V1,50.0,38.0,66.0,54.0,37.0,66,3248.0,square2,r,0.0903,1,V,1.0
V1,51.0,33.0,66.0,50.0,37.0,66,3314.0,square2,r,0.3002,1,V,1.0
V1,52.0,41.0,65.0,55.0,44.0,44,3358.0,square4,f,0.0086,3,V,1.0
V1,53.0,75.0,50.0,46.0,60.0,50,3408.0,square2,r,0.0385,1,V,1.0
V1,54.0,74.0,53.0,45.0,61.0,45,3453.0,square3,j,0.3139,2,V,1.0
V1,55.0,74.0,54.0,43.0,65.0,65,3518.0,square4,f,0.0984,3,V,1.0
V1,56.0,73.0,54.0,44.0,56.0,56,3574.0,square4,f,0.2847,3,V,1.0
V1,57.0,67.0,58.0,52.0,63.0,67,3641.0,square1,i,0.1114,0,V,1.0
V1,58.0,72.0,51.0,43.0,62.0,72,3713.0,square1,i,0.3128,0,V,1.0
V1,59.0,68.0,47.0,49.0,56.0,47,3760.0,square2,r,0.1113,1,V,1.0
V1,60.0,72.0,55.0,46.0,65.0,72,3832.0,square1,i,0.1739,0,V,1.0
V1,61.0,76.0,50.0,46.0,62.0,46,3878.0,square3,j,0.0633,2,V,1.0
V1,62.0,77.0,58.0,46.0,66.0,77,3955.0,square1,i,0.5781,0,V,1.0
V1,63.0,72.0,53.0,48.0,66.0,66,4021.0,square4,f,0.5149,3,V,1.0
V1,64.0,70.0,49.0,49.0,60.0,70,4091.0,square1,i,0.0495,0,V,1.0
V1,65.0,68.0,49.0,46.0,66.0,66,4157.0,square4,f,0.0166,3,V,1.0
V1,66.0,77.0,52.0,41.0,64.0,77,4234.0,square1,i,0.3197,0,V,1.0
V1,67.0,74.0,56.0,42.0,69.0,74,4308.0,square1,i,0.1544,0,V,1.0
V1,68.0,77.0,50.0,46.0,68.0,77,4385.0,square1,i,0.2154,0,V,1.0
V1,69.0,76.0,48.0,45.0,63.0,45,4430.0,square3,j,0.0139,2,V,1.0
V1,70.0,71.0,53.0,50.0,65.0,71,4501.0,square1,i,0.3287,0,V,1.0
V1,71.0,70.0,56.0,44.0,59.0,70,4571.0,square1,i,0.1389,0,V,1.0
V1,72.0,74.0,54.0,55.0,61.0,74,4645.0,square1,i,0.1813,0,V,1.0
V1,73.0,73.0,53.0,47.0,61.0,73,4718.0,square1,i,0.2222,0,V,1.0
V1,74.0,71.0,53.0,51.0,65.0,71,4789.0,square1,i,0.0003,0,V,1.0
V1,75.0,72.0,51.0,48.0,64.0,72,4861.0,square1,i,0.6118,0,V,1.0
V1,76.0,72.0,53.0,49.0,62.0,72,4933.0,square1,i,0.2012,0,V,1.0
V1,77.0,62.0,76.0,64.0,86.0,62,4995.0,square1,i,0.1064,0,V,1.0
V1,78.0,61.0,74.0,63.0,87.0,74,5069.0,square2,r,0.2722,1,V,1.0
V1,79.0,56.0,78.0,67.0,89.0,89,5158.0,square4,f,0.2323,3,V,1.0
V1,80.0,59.0,75.0,63.0,84.0,84,5242.0,square4,f,0.2571,3,V,1.0
V1,81.0,63.0,74.0,68.0,82.0,68,5310.0,square3,j,0.1735,2,V,1.0
V1,82.0,59.0,75.0,67.0,80.0,80,5390.0,square4,f,0.1668,3,V,1.0
V1,83.0,58.0,77.0,63.0,82.0,82,5472.0,square4,f,0.1952,3,V,1.0
V1,84.0,57.0,76.0,64.0,87.0,87,5559.0,square4,f,0.1805,3,V,1.0
V1,85.0,61.0,73.0,66.0,83.0,83,5642.0,square4,f,0.1407,3,V,1.0
V1,86.0,60.0,71.0,66.0,85.0,85,5727.0,square4,f,0.6947,3,V,1.0
V1,87.0,61.0,80.0,73.0,84.0,84,5811.0,square4,f,0.021,3,V,1.0
V1,88.0,67.0,77.0,67.0,85.0,85,5896.0,square4,f,0.1528,3,V,1.0
V1,89.0,60.0,79.0,63.0,86.0,86,5982.0,square4,f,0.0348,3,V,1.0
V1,90.0,60.0,74.0,66.0,88.0,88,6070.0,square4,f,0.0975,3,V,1.0
V1,91.0,57.0,81.0,61.0,79.0,79,6149.0,square4,f,0.1469,3,V,1.0
V1,92.0,61.0,78.0,61.0,84.0,84,6233.0,square4,f,0.0694,3,V,1.0
V1,93.0,64.0,72.0,69.0,83.0,64,6297.0,square1,i,0.6111,0,V,1.0
V1,94.0,64.0,73.0,68.0,83.0,83,6380.0,square4,f,0.3049,3,V,1.0
V1,95.0,61.0,69.0,68.0,87.0,69,6449.0,square2,r,0.2785,1,V,1.0
V1,96.0,55.0,77.0,65.0,88.0,88,6537.0,square4,f,0.0764,3,V,1.0
V1,97.0,61.0,75.0,63.0,82.0,63,6600.0,square3,j,0.2709,2,V,1.0
V1,98.0,59.0,71.0,66.0,82.0,82,6682.0,square4,f,0.0634,3,V,1.0
V1,99.0,61.0,69.0,67.0,84.0,84,6766.0,square4,f,0.0065,3,V,1.0
NS5,0.0,26.0,19.0,54.0,39.0,54,54.0,square3,r,0.7921,2,N,5.0
NS5,1.0,21.0,17.0,51.0,42.0,17,71.0,square2,i,0.2041,1,N,5.0
NS5,2.0,19.0,17.0,52.0,42.0,42,113.0,square4,j,0.2223,3,N,5.0
NS5,3.0,21.0,16.0,55.0,38.0,21,134.0,square1,f,0.0577,0,N,5.0
NS5,4.0,14.0,26.0,52.0,44.0,52,186.0,square3,r,0.1807,2,N,5.0
NS5,5.0,18.0,25.0,47.0,42.0,47,233.0,square3,r,0.0793,2,N,5.0
NS5,6.0,23.0,21.0,54.0,38.0,54,287.0,square3,r,0.0794,2,N,5.0
NS5,7.0,18.0,27.0,56.0,39.0,56,343.0,square3,r,0.0847,2,N,5.0
NS5,8.0,18.0,28.0,57.0,40.0,57,400.0,square3,r,0.0373,2,N,5.0
NS5,9.0,15.0,29.0,53.0,38.0,53,453.0,square3,r,0.0834,2,N,5.0
NS5,10.0,13.0,26.0,56.0,41.0,41,494.0,square4,j,0.3223,3,N,5.0
NS5,11.0,11.0,25.0,58.0,41.0,58,552.0,square3,r,0.1073,2,N,5.0
NS5,12.0,9.0,22.0,53.0,40.0,22,574.0,square2,i,0.2863,1,N,5.0
NS5,13.0,11.0,21.0,55.0,39.0,55,629.0,square3,r,0.2985,2,N,5.0
NS5,14.0,12.0,17.0,49.0,38.0,12,641.0,square1,f,0.2808,0,N,5.0
NS5,15.0,18.0,19.0,52.0,37.0,52,693.0,square3,r,0.1804,2,N,5.0
NS5,16.0,18.0,20.0,49.0,40.0,49,742.0,square3,r,0.0909,2,N,5.0
NS5,17.0,16.0,16.0,50.0,41.0,50,792.0,square3,r,0.0237,2,N,5.0
NS5,18.0,16.0,18.0,51.0,43.0,51,843.0,square3,r,0.1338,2,N,5.0
NS5,19.0,14.0,20.0,44.0,45.0,44,887.0,square3,r,0.6942,2,N,5.0
NS5,20.0,19.0,21.0,42.0,48.0,42,929.0,square3,r,0.3671,2,N,5.0
NS5,21.0,19.0,22.0,43.0,47.0,43,972.0,square3,r,0.0884,2,N,5.0
NS5,22.0,17.0,15.0,43.0,47.0,43,1015.0,square3,r,0.1624,2,N,5.0
NS5,23.0,16.0,28.0,37.0,47.0,37,1052.0,square3,r,0.5347,2,N,5.0
NS5,24.0,20.0,21.0,38.0,49.0,38,1090.0,square3,r,0.1829,2,N,5.0
NS5,25.0,22.0,17.0,34.0,46.0,34,1124.0,square3,r,0.2364,2,N,5.0
NS5,26.0,30.0,16.0,32.0,50.0,50,1174.0,square4,j,0.1118,3,N,5.0
NS5,27.0,21.0,20.0,35.0,42.0,21,1195.0,square1,f,0.1612,0,N,5.0
NS5,28.0,20.0,23.0,39.0,42.0,42,1237.0,square4,j,0.2225,3,N,5.0
NS5,29.0,21.0,18.0,39.0,41.0,18,1255.0,square2,i,0.0004,1,N,5.0
NS5,30.0,20.0,11.0,41.0,44.0,44,1299.0,square4,j,0.2223,3,N,5.0
NS5,31.0,20.0,9.0,36.0,43.0,36,1335.0,square3,r,0.1476,2,N,5.0
NS5,32.0,21.0,13.0,35.0,46.0,46,1381.0,square4,j,0.0933,3,N,5.0
NS5,33.0,16.0,22.0,32.0,44.0,44,1425.0,square4,j,0.2852,3,N,5.0
NS5,34.0,20.0,20.0,33.0,37.0,37,1462.0,square4,j,0.1875,3,N,5.0
NS5,35.0,19.0,27.0,34.0,40.0,27,1489.0,square2,i,0.3891,1,N,5.0
NS5,36.0,20.0,23.0,31.0,37.0,37,1526.0,square4,j,0.1741,3,N,5.0
NS5,37.0,15.0,28.0,41.0,40.0,41,1567.0,square3,r,0.1669,2,N,5.0
NS5,38.0,18.0,21.0,45.0,37.0,18,1585.0,square1,f,0.1182,0,N,5.0
NS5,39.0,23.0,22.0,40.0,34.0,40,1625.0,square3,r,0.2644,2,N,5.0
NS5,40.0,22.0,25.0,44.0,26.0,44,1669.0,square3,r,0.0143,2,N,5.0
NS5,41.0,28.0,25.0,39.0,29.0,39,1708.0,square3,r,0.4861,2,N,5.0
NS5,42.0,27.0,27.0,42.0,35.0,42,1750.0,square3,r,0.1191,2,N,5.0
NS5,43.0,25.0,25.0,49.0,38.0,38,1788.0,square4,j,0.0209,3,N,5.0
NS5,44.0,24.0,26.0,42.0,30.0,42,1830.0,square3,r,0.1184,2,N,5.0
NS5,45.0,33.0,22.0,43.0,37.0,43,1873.0,square3,r,0.0996,2,N,5.0
NS5,46.0,32.0,24.0,50.0,38.0,50,1923.0,square3,r,0.1743,2,N,5.0
NS5,47.0,39.0,25.0,52.0,29.0,52,1975.0,square3,r,0.0364,2,N,5.0
NS5,48.0,42.0,22.0,46.0,33.0,46,2021.0,square3,r,0.4801,2,N,5.0
NS5,49.0,40.0,26.0,40.0,33.0,40,2061.0,square3,r,0.243,2,N,5.0
NS5,50.0,34.0,19.0,47.0,33.0,47,2108.0,square3,r,0.1263,2,N,5.0
NS5,51.0,29.0,25.0,45.0,29.0,45,2153.0,square3,r,0.0726,2,N,5.0
NS5,52.0,29.0,24.0,48.0,35.0,48,2201.0,square3,r,0.1271,2,N,5.0
NS5,53.0,24.0,25.0,45.0,40.0,45,2246.0,square3,r,0.1076,2,N,5.0
NS5,54.0,26.0,25.0,51.0,36.0,51,2297.0,square3,r,0.1112,2,N,5.0
NS5,55.0,25.0,28.0,56.0,34.0,56,2353.0,square3,r,0.0711,2,N,5.0
NS5,56.0,23.0,27.0,54.0,36.0,54,2407.0,square3,r,0.2437,2,N,5.0
NS5,57.0,19.0,25.0,51.0,31.0,51,2458.0,square3,r,0.224,2,N,5.0
NS5,58.0,20.0,30.0,53.0,29.0,53,2511.0,square3,r,0.1739,2,N,5.0
NS5,59.0,17.0,30.0,52.0,28.0,52,2563.0,square3,r,0.1044,2,N,5.0
NS5,60.0,15.0,30.0,55.0,30.0,55,2618.0,square3,r,0.0558,2,N,5.0
NS5,61.0,22.0,29.0,54.0,30.0,54,2672.0,square3,r,0.139,2,N,5.0
NS5,62.0,18.0,31.0,55.0,32.0,55,2727.0,square3,r,0.2605,2,N,5.0
NS5,63.0,19.0,31.0,51.0,37.0,51,2778.0,square3,r,0.0141,2,N,5.0
NS5,64.0,20.0,30.0,45.0,35.0,45,2823.0,square3,r,0.1486,2,N,5.0
NS5,65.0,24.0,21.0,55.0,38.0,55,2878.0,square3,r,0.0346,2,N,5.0
NS5,66.0,22.0,29.0,58.0,36.0,58,2936.0,square3,r,0.0419,2,N,5.0
NS5,67.0,22.0,26.0,51.0,36.0,36,2972.0,square4,j,0.4341,3,N,5.0
NS5,68.0,20.0,28.0,52.0,36.0,52,3024.0,square3,r,0.2244,2,N,5.0
NS5,69.0,18.0,27.0,52.0,40.0,27,3051.0,square2,i,0.2504,1,N,5.0
NS5,70.0,22.0,34.0,55.0,39.0,55,3106.0,square3,r,0.1112,2,N,5.0
NS5,71.0,27.0,37.0,59.0,41.0,27,3133.0,square1,f,0.1826,0,N,5.0
NS5,72.0,27.0,37.0,57.0,40.0,57,3190.0,square3,r,0.072,2,N,5.0
NS5,73.0,35.0,36.0,55.0,38.0,55,3245.0,square3,r,0.1398,2,N,5.0
NS5,74.0,27.0,36.0,52.0,36.0,52,3297.0,square3,r,0.1758,2,N,5.0
NS5,75.0,31.0,40.0,53.0,38.0,53,3350.0,square3,r,0.0069,2,N,5.0
NS5,76.0,33.0,41.0,59.0,35.0,59,3409.0,square3,r,0.0003,2,N,5.0
NS5,77.0,33.0,42.0,56.0,38.0,56,3465.0,square3,r,0.5555,2,N,5.0
NS5,78.0,30.0,42.0,53.0,37.0,53,3518.0,square3,r,0.3335,2,N,5.0
NS5,79.0,27.0,49.0,51.0,44.0,51,3569.0,square3,r,0.0228,2,N,5.0
NS5,80.0,31.0,49.0,45.0,44.0,45,3614.0,square3,r,0.0519,2,N,5.0
NS5,81.0,33.0,51.0,48.0,43.0,48,3662.0,square3,r,0.4999,2,N,5.0
NS5,82.0,31.0,54.0,41.0,43.0,41,3703.0,square3,r,0.1968,2,N,5.0
NS5,83.0,25.0,57.0,42.0,40.0,42,3745.0,square3,r,0.146,2,N,5.0
NS5,84.0,36.0,57.0,45.0,38.0,45,3790.0,square3,r,0.4324,2,N,5.0
NS5,85.0,36.0,62.0,44.0,42.0,44,3834.0,square3,r,0.3358,2,N,5.0
NS5,86.0,33.0,55.0,48.0,43.0,48,3882.0,square3,r,0.2363,2,N,5.0
NS5,87.0,37.0,53.0,44.0,46.0,44,3926.0,square3,r,0.2293,2,N,5.0
NS5,88.0,36.0,54.0,41.0,48.0,41,3967.0,square3,r,0.3752,2,N,5.0
NS5,89.0,39.0,62.0,47.0,47.0,47,4014.0,square3,r,0.252,2,N,5.0
NS5,90.0,37.0,62.0,51.0,48.0,51,4065.0,square3,r,0.0349,2,N,5.0
NS5,91.0,40.0,64.0,48.0,53.0,48,4113.0,square3,r,0.1116,2,N,5.0
NS5,92.0,42.0,64.0,51.0,55.0,51,4164.0,square3,r,0.2605,2,N,5.0
NS5,93.0,39.0,63.0,51.0,53.0,51,4215.0,square3,r,0.5138,2,N,5.0
NS5,94.0,41.0,60.0,50.0,58.0,50,4265.0,square3,r,0.2925,2,N,5.0
NS5,95.0,36.0,55.0,53.0,52.0,53,4318.0,square3,r,0.3849,2,N,5.0
NS5,96.0,36.0,56.0,55.0,56.0,55,4373.0,square3,r,0.2294,2,N,5.0
NS5,97.0,28.0,52.0,57.0,53.0,57,4430.0,square3,r,0.3194,2,N,5.0
NS5,98.0,29.0,53.0,53.0,43.0,53,4483.0,square3,r,0.3064,2,N,5.0
NS5,99.0,25.0,55.0,53.0,46.0,53,4536.0,square3,r,0.2736,2,N,5.0
NS11,0.0,78.0,37.0,30.0,78.0,30,30.0,square3,i,1.1488,2,N,11.0
NS11,1.0,85.0,34.0,30.0,76.0,34,64.0,square2,j,0.1112,1,N,11.0
NS11,2.0,79.0,33.0,36.0,77.0,79,143.0,square1,r,1.3823,0,N,11.0
NS11,3.0,82.0,33.0,28.0,72.0,72,215.0,square4,f,0.2712,3,N,11.0
NS11,4.0,82.0,34.0,33.0,76.0,82,297.0,square1,r,0.1257,0,N,11.0
NS11,5.0,78.0,38.0,32.0,83.0,78,375.0,square1,r,0.1042,0,N,11.0
NS11,6.0,78.0,37.0,34.0,77.0,78,453.0,square1,r,0.0803,0,N,11.0
NS11,7.0,80.0,30.0,33.0,74.0,80,533.0,square1,r,0.0628,0,N,11.0
NS11,8.0,79.0,32.0,30.0,73.0,73,606.0,square4,f,0.1877,3,N,11.0
NS11,9.0,81.0,41.0,34.0,61.0,81,687.0,square1,r,0.0582,0,N,11.0
NS11,10.0,76.0,38.0,25.0,64.0,76,763.0,square1,r,0.0643,0,N,11.0
NS11,11.0,79.0,34.0,27.0,65.0,79,842.0,square1,r,0.1819,0,N,11.0
NS11,12.0,81.0,32.0,25.0,68.0,81,923.0,square1,r,0.0644,0,N,11.0
NS11,13.0,84.0,36.0,24.0,64.0,84,1007.0,square1,r,0.0305,0,N,11.0
NS11,14.0,80.0,30.0,24.0,61.0,80,1087.0,square1,r,0.1113,0,N,11.0
NS11,15.0,86.0,33.0,22.0,66.0,86,1173.0,square1,r,0.1149,0,N,11.0
NS11,16.0,85.0,32.0,20.0,64.0,85,1258.0,square1,r,0.2153,0,N,11.0
NS11,17.0,83.0,32.0,22.0,71.0,83,1341.0,square1,r,0.0495,0,N,11.0
NS11,18.0,80.0,31.0,19.0,66.0,80,1421.0,square1,r,0.2014,0,N,11.0
NS11,19.0,75.0,40.0,23.0,69.0,75,1496.0,square1,r,0.5174,0,N,11.0
NS11,20.0,73.0,37.0,14.0,67.0,73,1569.0,square1,r,0.0493,0,N,11.0
NS11,21.0,81.0,34.0,23.0,70.0,81,1650.0,square1,r,0.1739,0,N,11.0
NS11,22.0,77.0,39.0,16.0,73.0,77,1727.0,square1,r,0.1401,0,N,11.0
NS11,23.0,78.0,30.0,23.0,74.0,78,1805.0,square1,r,0.08,0,N,11.0
NS11,24.0,80.0,32.0,26.0,68.0,80,1885.0,square1,r,0.0764,0,N,11.0
NS11,25.0,81.0,29.0,29.0,73.0,81,1966.0,square1,r,0.077,0,N,11.0
NS11,26.0,77.0,31.0,26.0,69.0,77,2043.0,square1,r,0.0284,0,N,11.0
NS11,27.0,69.0,47.0,29.0,64.0,69,2112.0,square1,r,0.1266,0,N,11.0
NS11,28.0,69.0,39.0,28.0,71.0,69,2181.0,square1,r,0.146,0,N,11.0
NS11,29.0,71.0,41.0,24.0,66.0,71,2252.0,square1,r,0.1145,0,N,11.0
NS11,30.0,70.0,40.0,21.0,68.0,70,2322.0,square1,r,0.1412,0,N,11.0
NS11,31.0,72.0,44.0,21.0,68.0,68,2390.0,square4,f,0.0766,3,N,11.0
NS11,32.0,72.0,41.0,19.0,75.0,72,2462.0,square1,r,0.0997,0,N,11.0
NS11,33.0,66.0,48.0,21.0,72.0,66,2528.0,square1,r,0.2106,0,N,11.0
NS11,34.0,67.0,48.0,24.0,72.0,67,2595.0,square1,r,0.1247,0,N,11.0
NS11,35.0,58.0,52.0,14.0,73.0,58,2653.0,square1,r,0.4863,0,N,11.0
NS11,36.0,61.0,52.0,23.0,70.0,61,2714.0,square1,r,0.0003,0,N,11.0
NS11,37.0,50.0,55.0,29.0,67.0,29,2743.0,square3,i,0.2581,2,N,11.0
NS11,38.0,51.0,54.0,20.0,64.0,51,2794.0,square1,r,0.3017,0,N,11.0
NS11,39.0,54.0,49.0,26.0,63.0,49,2843.0,square2,j,0.2089,1,N,11.0
NS11,40.0,50.0,47.0,24.0,70.0,50,2893.0,square1,r,0.031,0,N,11.0
NS11,41.0,54.0,46.0,23.0,63.0,63,2956.0,square4,f,0.0375,3,N,11.0
NS11,42.0,54.0,47.0,25.0,61.0,61,3017.0,square4,f,0.1598,3,N,11.0
NS11,43.0,46.0,49.0,33.0,72.0,72,3089.0,square4,f,0.2447,3,N,11.0
NS11,44.0,54.0,50.0,38.0,72.0,54,3143.0,square1,r,0.1472,0,N,11.0
NS11,45.0,56.0,53.0,39.0,81.0,81,3224.0,square4,f,0.1021,3,N,11.0
NS11,46.0,57.0,55.0,33.0,77.0,77,3301.0,square4,f,0.1252,3,N,11.0
NS11,47.0,56.0,51.0,32.0,76.0,76,3377.0,square4,f,0.0141,3,N,11.0
NS11,48.0,58.0,49.0,29.0,85.0,85,3462.0,square4,f,0.6069,3,N,11.0
NS11,49.0,58.0,53.0,27.0,83.0,83,3545.0,square4,f,0.1735,3,N,11.0
NS11,50.0,62.0,49.0,24.0,80.0,80,3625.0,square4,f,0.4537,3,N,11.0
NS11,51.0,57.0,55.0,23.0,77.0,77,3702.0,square4,f,0.1765,3,N,11.0
NS11,52.0,56.0,55.0,20.0,77.0,56,3758.0,square1,r,0.2849,0,N,11.0
NS11,53.0,59.0,56.0,20.0,78.0,78,3836.0,square4,f,0.2023,3,N,11.0
NS11,54.0,58.0,57.0,27.0,74.0,74,3910.0,square4,f,0.1122,3,N,11.0
NS11,55.0,60.0,55.0,24.0,79.0,79,3989.0,square4,f,0.4168,3,N,11.0
NS11,56.0,60.0,52.0,22.0,77.0,77,4066.0,square4,f,0.2088,3,N,11.0
NS11,57.0,58.0,55.0,22.0,72.0,72,4138.0,square4,f,0.0506,3,N,11.0
NS11,58.0,63.0,52.0,22.0,75.0,75,4213.0,square4,f,0.1631,3,N,11.0
NS11,59.0,62.0,56.0,17.0,70.0,70,4283.0,square4,f,0.1542,3,N,11.0
NS11,60.0,61.0,55.0,22.0,70.0,70,4353.0,square4,f,0.1042,3,N,11.0
NS11,61.0,57.0,52.0,21.0,76.0,76,4429.0,square4,f,0.3897,3,N,11.0
NS11,62.0,57.0,48.0,28.0,75.0,75,4504.0,square4,f,0.3909,3,N,11.0
NS11,63.0,57.0,58.0,30.0,68.0,68,4572.0,square4,f,0.4584,3,N,11.0
NS11,64.0,61.0,61.0,27.0,74.0,74,4646.0,square4,f,0.3126,3,N,11.0
NS11,65.0,67.0,63.0,40.0,71.0,71,4717.0,square4,f,0.2431,3,N,11.0
NS11,66.0,69.0,55.0,38.0,73.0,73,4790.0,square4,f,0.182,3,N,11.0
NS11,67.0,72.0,57.0,36.0,65.0,65,4855.0,square4,f,0.0845,3,N,11.0
NS11,68.0,71.0,61.0,36.0,64.0,64,4919.0,square4,f,0.2852,3,N,11.0
NS11,69.0,74.0,66.0,37.0,58.0,66,4985.0,square2,j,0.016,1,N,11.0
NS11,70.0,69.0,60.0,40.0,66.0,40,5025.0,square3,i,0.285,2,N,11.0
NS11,71.0,71.0,58.0,40.0,64.0,58,5083.0,square2,j,0.281,1,N,11.0
NS11,72.0,72.0,58.0,46.0,67.0,72,5155.0,square1,r,0.2294,0,N,11.0
NS11,73.0,72.0,56.0,47.0,65.0,72,5227.0,square1,r,0.2154,0,N,11.0
NS11,74.0,66.0,54.0,47.0,63.0,66,5293.0,square1,r,0.1877,0,N,11.0
NS11,75.0,75.0,53.0,43.0,58.0,75,5368.0,square1,r,0.0924,0,N,11.0
NS11,76.0,75.0,48.0,40.0,59.0,75,5443.0,square1,r,0.0764,0,N,11.0
NS11,77.0,65.0,48.0,36.0,58.0,65,5508.0,square1,r,0.0625,0,N,11.0
NS11,78.0,70.0,45.0,37.0,59.0,59,5567.0,square4,f,0.2016,3,N,11.0
NS11,79.0,70.0,41.0,36.0,59.0,70,5637.0,square1,r,0.1467,0,N,11.0
NS11,80.0,73.0,43.0,39.0,59.0,43,5680.0,square2,j,0.2362,1,N,11.0
NS11,81.0,72.0,39.0,38.0,60.0,72,5752.0,square1,r,0.2105,0,N,11.0
NS11,82.0,72.0,39.0,44.0,65.0,44,5796.0,square3,i,0.1464,2,N,11.0
NS11,83.0,68.0,38.0,40.0,61.0,68,5864.0,square1,r,0.2454,0,N,11.0
NS11,84.0,69.0,36.0,36.0,64.0,69,5933.0,square1,r,0.1692,0,N,11.0
NS11,85.0,70.0,34.0,40.0,69.0,70,6003.0,square1,r,0.1596,0,N,11.0
NS11,86.0,70.0,32.0,36.0,71.0,71,6074.0,square4,f,0.0485,3,N,11.0
NS11,87.0,69.0,31.0,37.0,70.0,69,6143.0,square1,r,0.1042,0,N,11.0
NS11,88.0,69.0,34.0,41.0,67.0,67,6210.0,square4,f,0.2091,3,N,11.0
NS11,89.0,67.0,39.0,44.0,67.0,67,6277.0,square1,r,0.32,0,N,11.0
NS11,90.0,64.0,33.0,36.0,69.0,69,6346.0,square4,f,0.3058,3,N,11.0
NS11,91.0,60.0,33.0,38.0,67.0,60,6406.0,square1,r,0.2777,0,N,11.0
NS11,92.0,60.0,33.0,37.0,68.0,68,6474.0,square4,f,0.1042,3,N,11.0
NS11,93.0,54.0,36.0,38.0,73.0,73,6547.0,square4,f,0.1966,3,N,11.0
NS11,94.0,58.0,35.0,39.0,68.0,68,6615.0,square4,f,0.1815,3,N,11.0
NS11,95.0,50.0,38.0,32.0,77.0,50,6665.0,square1,r,0.035,0,N,11.0
NS11,96.0,53.0,42.0,30.0,71.0,42,6707.0,square2,j,0.1324,1,N,11.0
NS11,97.0,54.0,38.0,32.0,75.0,75,6782.0,square4,f,0.111,3,N,11.0
NS11,98.0,52.0,48.0,32.0,72.0,32,6814.0,square3,i,0.1747,2,N,11.0
NS11,99.0,55.0,45.0,33.0,73.0,73,6887.0,square4,f,0.1949,3,N,11.0
NS10,0.0,61.0,42.0,19.0,80.0,61,61.0,square1,i,0.7091,0,N,10.0
NS10,1.0,62.0,41.0,25.0,78.0,78,139.0,square4,r,0.0701,3,N,10.0
NS10,2.0,64.0,42.0,22.0,80.0,22,161.0,square3,j,0.0859,2,N,10.0
NS10,3.0,66.0,50.0,21.0,73.0,73,234.0,square4,r,0.0449,3,N,10.0
NS10,4.0,65.0,48.0,19.0,80.0,48,282.0,square2,f,0.0025,1,N,10.0
NS10,5.0,66.0,48.0,23.0,75.0,75,357.0,square4,r,0.2082,3,N,10.0
NS10,6.0,60.0,47.0,26.0,77.0,77,434.0,square4,r,0.3611,3,N,10.0
NS10,7.0,66.0,43.0,25.0,81.0,81,515.0,square4,r,0.2029,3,N,10.0
NS10,8.0,72.0,42.0,23.0,80.0,80,595.0,square4,r,0.1876,3,N,10.0
NS10,9.0,66.0,45.0,21.0,81.0,81,676.0,square4,r,0.0346,3,N,10.0
NS10,10.0,69.0,46.0,29.0,77.0,77,753.0,square4,r,0.1204,3,N,10.0
NS10,11.0,68.0,44.0,27.0,70.0,70,823.0,square4,r,0.1806,3,N,10.0
NS10,12.0,68.0,46.0,27.0,65.0,65,888.0,square4,r,0.0908,3,N,10.0
NS10,13.0,67.0,50.0,23.0,65.0,65,953.0,square4,r,0.322,3,N,10.0
NS10,14.0,67.0,49.0,31.0,61.0,67,1020.0,square1,i,0.052,0,N,10.0
NS10,15.0,71.0,51.0,28.0,69.0,71,1091.0,square1,i,0.2537,0,N,10.0
NS10,16.0,71.0,48.0,25.0,64.0,64,1155.0,square4,r,0.209,3,N,10.0
NS10,17.0,68.0,48.0,25.0,60.0,68,1223.0,square1,i,0.0696,0,N,10.0
NS10,18.0,68.0,49.0,23.0,66.0,66,1289.0,square4,r,0.0905,3,N,10.0
NS10,19.0,67.0,51.0,23.0,64.0,67,1356.0,square1,i,0.0696,0,N,10.0
NS10,20.0,65.0,54.0,29.0,58.0,29,1385.0,square3,j,0.3889,2,N,10.0
NS10,21.0,61.0,58.0,22.0,61.0,61,1446.0,square1,i,0.1526,0,N,10.0
NS10,22.0,67.0,51.0,23.0,60.0,60,1506.0,square4,r,0.2657,3,N,10.0
NS10,23.0,65.0,57.0,22.0,60.0,65,1571.0,square1,i,0.1971,0,N,10.0
NS10,24.0,67.0,58.0,26.0,56.0,67,1638.0,square1,i,0.1675,0,N,10.0
NS10,25.0,70.0,67.0,26.0,60.0,70,1708.0,square1,i,0.2223,0,N,10.0
NS10,26.0,71.0,58.0,24.0,55.0,55,1763.0,square4,r,0.2501,3,N,10.0
NS10,27.0,74.0,57.0,24.0,59.0,74,1837.0,square1,i,0.2709,0,N,10.0
NS10,28.0,76.0,62.0,24.0,56.0,76,1913.0,square1,i,0.1704,0,N,10.0
NS10,29.0,78.0,66.0,21.0,61.0,78,1991.0,square1,i,0.2154,0,N,10.0
NS10,30.0,74.0,62.0,20.0,52.0,74,2065.0,square1,i,0.4481,0,N,10.0
NS10,31.0,74.0,63.0,21.0,53.0,74,2139.0,square1,i,0.045,0,N,10.0
NS10,32.0,77.0,62.0,19.0,50.0,77,2216.0,square1,i,0.3773,0,N,10.0
NS10,33.0,74.0,63.0,21.0,50.0,74,2290.0,square1,i,0.0024,0,N,10.0
NS10,34.0,69.0,64.0,16.0,47.0,69,2359.0,square1,i,0.1806,0,N,10.0
NS10,35.0,68.0,60.0,14.0,51.0,68,2427.0,square1,i,0.2041,0,N,10.0
NS10,36.0,76.0,59.0,13.0,52.0,76,2503.0,square1,i,0.3553,0,N,10.0
NS10,37.0,71.0,60.0,16.0,50.0,71,2574.0,square1,i,0.2951,0,N,10.0
NS10,38.0,70.0,56.0,27.0,49.0,70,2644.0,square1,i,0.0975,0,N,10.0
NS10,39.0,75.0,59.0,22.0,49.0,75,2719.0,square1,i,0.1038,0,N,10.0
NS10,40.0,70.0,56.0,27.0,51.0,70,2789.0,square1,i,0.2381,0,N,10.0
NS10,41.0,73.0,57.0,24.0,54.0,57,2846.0,square2,f,0.3612,1,N,10.0
NS10,42.0,70.0,58.0,24.0,51.0,70,2916.0,square1,i,0.2948,0,N,10.0
NS10,43.0,70.0,60.0,26.0,45.0,45,2961.0,square4,r,0.2852,3,N,10.0
NS10,44.0,68.0,58.0,27.0,53.0,68,3029.0,square1,i,0.2783,0,N,10.0
NS10,45.0,70.0,61.0,31.0,49.0,70,3099.0,square1,i,0.2099,0,N,10.0
NS10,46.0,65.0,60.0,29.0,43.0,65,3164.0,square1,i,0.0998,0,N,10.0
NS10,47.0,65.0,61.0,32.0,44.0,65,3229.0,square1,i,0.507,0,N,10.0
NS10,48.0,67.0,58.0,31.0,46.0,67,3296.0,square1,i,0.132,0,N,10.0
NS10,49.0,76.0,55.0,38.0,43.0,38,3334.0,square3,j,0.2394,2,N,10.0
NS10,50.0,74.0,65.0,36.0,40.0,74,3408.0,square1,i,0.2845,0,N,10.0
NS10,51.0,74.0,58.0,34.0,40.0,74,3482.0,square1,i,0.0645,0,N,10.0
NS10,52.0,69.0,65.0,28.0,43.0,69,3551.0,square1,i,0.7375,0,N,10.0
NS10,53.0,69.0,65.0,32.0,40.0,40,3591.0,square4,r,0.3614,3,N,10.0
NS10,54.0,72.0,61.0,32.0,41.0,72,3663.0,square1,i,0.299,0,N,10.0
NS10,55.0,65.0,64.0,36.0,33.0,65,3728.0,square1,i,0.2655,0,N,10.0
NS10,56.0,75.0,64.0,37.0,37.0,75,3803.0,square1,i,0.4879,0,N,10.0
NS10,57.0,72.0,62.0,36.0,38.0,72,3875.0,square1,i,0.2707,0,N,10.0
NS10,58.0,63.0,68.0,38.0,33.0,63,3938.0,square1,i,0.0003,0,N,10.0
NS10,59.0,65.0,64.0,43.0,34.0,65,4003.0,square1,i,0.6136,0,N,10.0
NS10,60.0,62.0,64.0,51.0,40.0,62,4065.0,square1,i,0.2293,0,N,10.0
NS10,61.0,61.0,65.0,45.0,38.0,61,4126.0,square1,i,0.1816,0,N,10.0
NS10,62.0,66.0,63.0,41.0,37.0,66,4192.0,square1,i,0.2038,0,N,10.0
NS10,63.0,67.0,62.0,45.0,41.0,67,4259.0,square1,i,0.2295,0,N,10.0
NS10,64.0,72.0,60.0,44.0,36.0,72,4331.0,square1,i,0.2393,0,N,10.0
NS10,65.0,73.0,65.0,42.0,39.0,73,4404.0,square1,i,0.2709,0,N,10.0
NS10,66.0,72.0,67.0,45.0,43.0,72,4476.0,square1,i,0.2082,0,N,10.0
NS10,67.0,66.0,70.0,44.0,40.0,66,4542.0,square1,i,0.0986,0,N,10.0
NS10,68.0,61.0,69.0,45.0,44.0,61,4603.0,square1,i,0.1251,0,N,10.0
NS10,69.0,64.0,68.0,42.0,43.0,64,4667.0,square1,i,0.174,0,N,10.0
NS10,70.0,66.0,72.0,41.0,42.0,66,4733.0,square1,i,0.0904,0,N,10.0
NS10,71.0,64.0,72.0,46.0,45.0,64,4797.0,square1,i,0.1806,0,N,10.0
NS10,72.0,64.0,69.0,44.0,39.0,64,4861.0,square1,i,0.1461,0,N,10.0
NS10,73.0,60.0,74.0,48.0,45.0,45,4906.0,square4,r,0.3428,3,N,10.0
NS10,74.0,57.0,75.0,48.0,41.0,57,4963.0,square1,i,0.1608,0,N,10.0
NS10,75.0,66.0,75.0,46.0,40.0,46,5009.0,square3,j,0.2915,2,N,10.0
NS10,76.0,63.0,77.0,46.0,40.0,63,5072.0,square1,i,0.2216,0,N,10.0
NS10,77.0,62.0,74.0,43.0,34.0,74,5146.0,square2,f,0.2733,1,N,10.0
NS10,78.0,60.0,71.0,48.0,33.0,71,5217.0,square2,f,0.2569,1,N,10.0
NS10,79.0,63.0,68.0,47.0,29.0,68,5285.0,square2,f,0.2848,1,N,10.0
NS10,80.0,54.0,71.0,42.0,32.0,71,5356.0,square2,f,0.1945,1,N,10.0
NS10,81.0,52.0,72.0,44.0,30.0,72,5428.0,square2,f,0.125,1,N,10.0
NS10,82.0,51.0,77.0,41.0,31.0,77,5505.0,square2,f,0.2188,1,N,10.0
NS10,83.0,52.0,63.0,41.0,35.0,52,5557.0,square1,i,0.2848,0,N,10.0
NS10,84.0,48.0,70.0,37.0,34.0,70,5627.0,square2,f,0.1482,1,N,10.0
NS10,85.0,51.0,73.0,38.0,30.0,73,5700.0,square2,f,0.2655,1,N,10.0
NS10,86.0,55.0,79.0,45.0,27.0,79,5779.0,square2,f,0.1,1,N,10.0
NS10,87.0,54.0,83.0,47.0,21.0,83,5862.0,square2,f,0.2155,1,N,10.0
NS10,88.0,59.0,78.0,45.0,21.0,78,5940.0,square2,f,0.1321,1,N,10.0
NS10,89.0,60.0,74.0,45.0,21.0,74,6014.0,square2,f,0.1538,1,N,10.0
NS10,90.0,55.0,71.0,50.0,18.0,71,6085.0,square2,f,0.168,1,N,10.0
NS10,91.0,56.0,71.0,46.0,14.0,71,6156.0,square2,f,0.2502,1,N,10.0
NS10,92.0,59.0,70.0,46.0,20.0,70,6226.0,square2,f,0.0917,1,N,10.0
NS10,93.0,65.0,72.0,46.0,21.0,72,6298.0,square2,f,0.0555,1,N,10.0
NS10,94.0,63.0,68.0,46.0,20.0,68,6366.0,square2,f,0.1672,1,N,10.0
NS10,95.0,69.0,70.0,48.0,22.0,70,6436.0,square2,f,0.0003,1,N,10.0
NS10,96.0,68.0,69.0,45.0,27.0,69,6505.0,square2,f,0.0245,1,N,10.0
NS10,97.0,74.0,69.0,43.0,35.0,69,6574.0,square2,f,0.1324,1,N,10.0
NS10,98.0,73.0,68.0,43.0,30.0,73,6647.0,square1,i,0.2182,0,N,10.0
NS10,99.0,70.0,61.0,39.0,32.0,70,6717.0,square1,i,0.3123,0,N,10.0
