block,Trial,square1,square2,square3,square4,currPoints,totalPoints,square,choiceKey.keys,choiceKey.rt,armNum,blockType,blockNum
prac,0.0,100.0,0.0,0.0,0.0,0.0,0.0,square4,,,3,p,0.0
prac,1.0,100.0,0.0,0.0,0.0,0.0,0.0,square2,,,1,p,0.0
prac,2.0,100.0,0.0,0.0,0.0,0.0,0.0,square3,,,2,p,0.0
prac,3.0,100.0,0.0,0.0,0.0,100.0,100.0,square1,,,0,p,0.0
prac,4.0,100.0,0.0,0.0,0.0,100.0,200.0,square1,,,0,p,0.0
prac,5.0,100.0,0.0,0.0,0.0,100.0,300.0,square1,,,0,p,0.0
prac,6.0,100.0,0.0,0.0,0.0,100.0,400.0,square1,,,0,p,0.0
prac,7.0,100.0,0.0,0.0,0.0,100.0,500.0,square1,,,0,p,0.0
prac,8.0,100.0,0.0,0.0,0.0,100.0,600.0,square1,,,0,p,0.0
prac,9.0,100.0,0.0,0.0,0.0,100.0,700.0,square1,,,0,p,0.0
V5,0.0,46.0,21.0,37.0,28.0,21.0,21.0,square2,i,0.4711,1,V,5.0
V5,1.0,43.0,27.0,36.0,31.0,43.0,64.0,square1,r,0.3595,0,V,5.0
V5,2.0,50.0,18.0,43.0,32.0,32.0,96.0,square4,j,0.2967,3,V,5.0
V5,3.0,53.0,23.0,36.0,34.0,53.0,149.0,square1,r,0.2788,0,V,5.0
V5,4.0,52.0,19.0,38.0,34.0,52.0,201.0,square1,r,0.2176,0,V,5.0
V5,5.0,50.0,22.0,41.0,29.0,41.0,242.0,square3,f,0.2366,2,V,5.0
V5,6.0,52.0,19.0,40.0,33.0,19.0,261.0,square2,i,0.1894,1,V,5.0
V5,7.0,48.0,24.0,36.0,27.0,48.0,309.0,square1,r,0.2357,0,V,5.0
V5,8.0,50.0,24.0,35.0,33.0,33.0,342.0,square4,j,1.046,3,V,5.0
V5,9.0,48.0,25.0,39.0,34.0,48.0,390.0,square1,r,0.0478,0,V,5.0
V5,10.0,52.0,19.0,32.0,34.0,19.0,409.0,square2,i,0.282,1,V,5.0
V5,11.0,48.0,22.0,32.0,32.0,32.0,441.0,square3,f,0.4205,2,V,5.0
V5,12.0,47.0,17.0,43.0,29.0,47.0,488.0,square1,r,0.2652,0,V,5.0
V5,13.0,46.0,21.0,42.0,29.0,29.0,517.0,square4,j,0.3395,3,V,5.0
V5,14.0,47.0,28.0,42.0,28.0,47.0,564.0,square1,r,0.2755,0,V,5.0
V5,15.0,50.0,29.0,38.0,36.0,50.0,614.0,square1,r,0.1609,0,V,5.0
V5,16.0,49.0,24.0,36.0,34.0,49.0,663.0,square1,r,0.2074,0,V,5.0
V5,17.0,50.0,20.0,38.0,35.0,50.0,713.0,square1,r,0.1273,0,V,5.0
V5,18.0,49.0,22.0,46.0,29.0,46.0,759.0,square3,f,0.2243,2,V,5.0
V5,19.0,46.0,23.0,40.0,31.0,46.0,805.0,square1,r,0.1441,0,V,5.0
V5,20.0,51.0,22.0,41.0,28.0,22.0,827.0,square2,i,0.2883,1,V,5.0
V5,21.0,51.0,26.0,36.0,31.0,51.0,878.0,square1,r,0.2291,0,V,5.0
V5,22.0,47.0,18.0,41.0,28.0,28.0,906.0,square4,j,0.2723,3,V,5.0
V5,23.0,52.0,20.0,36.0,29.0,20.0,926.0,square2,i,0.2202,1,V,5.0
V5,24.0,51.0,21.0,41.0,34.0,51.0,977.0,square1,r,0.3545,0,V,5.0
V5,25.0,50.0,20.0,41.0,27.0,41.0,1018.0,square3,f,0.2445,2,V,5.0
V5,26.0,49.0,29.0,37.0,28.0,49.0,1067.0,square1,r,0.129,0,V,5.0
V5,27.0,10.0,13.0,42.0,32.0,10.0,1077.0,square1,r,0.2639,0,V,5.0
V5,28.0,9.0,19.0,40.0,27.0,40.0,1117.0,square3,f,0.4169,2,V,5.0
V5,29.0,17.0,17.0,38.0,29.0,29.0,1146.0,square4,j,0.1177,3,V,5.0
V5,30.0,8.0,18.0,36.0,29.0,18.0,1164.0,square2,i,0.2346,1,V,5.0
V5,31.0,16.0,24.0,34.0,29.0,34.0,1198.0,square3,f,0.1963,2,V,5.0
V5,32.0,9.0,17.0,35.0,31.0,9.0,1207.0,square1,r,0.0762,0,V,5.0
V5,33.0,11.0,19.0,36.0,28.0,36.0,1243.0,square3,f,0.4802,2,V,5.0
V5,34.0,10.0,19.0,38.0,28.0,28.0,1271.0,square4,j,0.0858,3,V,5.0
V5,35.0,5.0,23.0,40.0,34.0,23.0,1294.0,square2,i,0.1306,1,V,5.0
V5,36.0,17.0,20.0,36.0,31.0,36.0,1330.0,square3,f,0.1132,2,V,5.0
V5,37.0,12.0,13.0,36.0,30.0,30.0,1360.0,square4,j,0.0713,3,V,5.0
V5,38.0,14.0,24.0,35.0,27.0,35.0,1395.0,square3,f,0.0672,2,V,5.0
V5,39.0,13.0,20.0,39.0,32.0,13.0,1408.0,square1,r,0.0025,0,V,5.0
V5,40.0,9.0,15.0,37.0,24.0,24.0,1432.0,square4,j,0.3772,3,V,5.0
V5,41.0,9.0,14.0,38.0,31.0,38.0,1470.0,square3,f,0.1345,2,V,5.0
V5,42.0,14.0,17.0,43.0,31.0,14.0,1484.0,square1,r,0.0638,0,V,5.0
V5,43.0,10.0,18.0,39.0,23.0,18.0,1502.0,square2,i,0.2927,1,V,5.0
V5,44.0,10.0,20.0,33.0,32.0,33.0,1535.0,square3,f,0.0174,2,V,5.0
V5,45.0,16.0,17.0,37.0,29.0,29.0,1564.0,square4,j,0.0017,3,V,5.0
V5,46.0,9.0,22.0,37.0,25.0,37.0,1601.0,square3,f,0.4059,2,V,5.0
V5,47.0,10.0,22.0,35.0,26.0,35.0,1636.0,square3,f,0.2315,2,V,5.0
V5,48.0,11.0,16.0,39.0,23.0,11.0,1647.0,square1,r,0.2097,0,V,5.0
V5,49.0,13.0,16.0,33.0,27.0,33.0,1680.0,square3,f,0.1745,2,V,5.0
V5,50.0,12.0,16.0,39.0,24.0,16.0,1696.0,square2,i,0.2135,1,V,5.0
V5,51.0,10.0,21.0,43.0,28.0,43.0,1739.0,square3,f,0.1441,2,V,5.0
V5,52.0,8.0,15.0,36.0,28.0,28.0,1767.0,square4,j,0.1392,3,V,5.0
V5,53.0,38.0,20.0,31.0,54.0,31.0,1798.0,square3,f,0.1892,2,V,5.0
V5,54.0,39.0,20.0,35.0,51.0,39.0,1837.0,square1,r,0.155,0,V,5.0
V5,55.0,41.0,21.0,27.0,50.0,27.0,1864.0,square3,f,0.2057,2,V,5.0
V5,56.0,39.0,23.0,28.0,49.0,39.0,1903.0,square1,r,0.2378,0,V,5.0
V5,57.0,36.0,28.0,29.0,59.0,36.0,1939.0,square1,r,0.1302,0,V,5.0
V5,58.0,38.0,22.0,28.0,49.0,38.0,1977.0,square1,r,0.1981,0,V,5.0
V5,59.0,44.0,23.0,30.0,51.0,44.0,2021.0,square1,r,0.1159,0,V,5.0
V5,60.0,43.0,21.0,31.0,48.0,43.0,2064.0,square1,r,0.1376,0,V,5.0
V5,61.0,39.0,24.0,35.0,50.0,39.0,2103.0,square1,r,0.1814,0,V,5.0
V5,62.0,38.0,25.0,31.0,52.0,38.0,2141.0,square1,r,0.1998,0,V,5.0
V5,63.0,41.0,14.0,31.0,52.0,41.0,2182.0,square1,r,0.1686,0,V,5.0
V5,64.0,43.0,23.0,30.0,51.0,43.0,2225.0,square1,r,0.2173,0,V,5.0
V5,65.0,41.0,23.0,35.0,52.0,41.0,2266.0,square1,r,0.1536,0,V,5.0
V5,66.0,41.0,17.0,33.0,47.0,41.0,2307.0,square1,r,0.0588,0,V,5.0
V5,67.0,44.0,23.0,32.0,49.0,44.0,2351.0,square1,r,0.1877,0,V,5.0
V5,68.0,44.0,24.0,31.0,44.0,44.0,2395.0,square1,r,0.1801,0,V,5.0
V5,69.0,43.0,28.0,27.0,48.0,43.0,2438.0,square1,r,0.0994,0,V,5.0
V5,70.0,38.0,22.0,26.0,50.0,38.0,2476.0,square1,r,0.0655,0,V,5.0
V5,71.0,41.0,29.0,26.0,53.0,41.0,2517.0,square1,r,0.1007,0,V,5.0
V5,72.0,40.0,20.0,28.0,51.0,40.0,2557.0,square1,r,0.1261,0,V,5.0
V5,73.0,59.0,44.0,51.0,35.0,59.0,2616.0,square1,r,0.029,0,V,5.0
V5,74.0,60.0,38.0,55.0,43.0,60.0,2676.0,square1,r,0.21,0,V,5.0
V5,75.0,63.0,45.0,50.0,37.0,63.0,2739.0,square1,r,0.0767,0,V,5.0
V5,76.0,62.0,42.0,50.0,37.0,62.0,2801.0,square1,r,0.2279,0,V,5.0
V5,77.0,57.0,37.0,52.0,35.0,57.0,2858.0,square1,r,0.1062,0,V,5.0
V5,78.0,66.0,45.0,54.0,37.0,66.0,2924.0,square1,r,0.2408,0,V,5.0
V5,79.0,64.0,37.0,48.0,35.0,64.0,2988.0,square1,r,0.0289,0,V,5.0
V5,80.0,63.0,40.0,56.0,38.0,63.0,3051.0,square1,r,0.1025,0,V,5.0
V5,81.0,62.0,41.0,54.0,32.0,62.0,3113.0,square1,r,0.1058,0,V,5.0
V5,82.0,58.0,41.0,59.0,39.0,58.0,3171.0,square1,r,0.0734,0,V,5.0
V5,83.0,66.0,46.0,54.0,35.0,66.0,3237.0,square1,r,0.0664,0,V,5.0
V5,84.0,67.0,44.0,52.0,33.0,44.0,3281.0,square2,i,0.0707,1,V,5.0
V5,85.0,67.0,45.0,46.0,36.0,67.0,3348.0,square1,r,0.3556,0,V,5.0
V5,86.0,65.0,44.0,51.0,38.0,38.0,3386.0,square4,j,0.116,3,V,5.0
V5,87.0,64.0,49.0,48.0,35.0,48.0,3434.0,square3,f,0.0013,2,V,5.0
V5,88.0,68.0,47.0,56.0,36.0,68.0,3502.0,square1,r,0.2612,0,V,5.0
V5,89.0,60.0,42.0,57.0,32.0,60.0,3562.0,square1,r,0.4535,0,V,5.0
V5,90.0,59.0,43.0,53.0,34.0,59.0,3621.0,square1,r,0.0956,0,V,5.0
V5,91.0,64.0,43.0,51.0,34.0,64.0,3685.0,square1,r,0.1954,0,V,5.0
V5,92.0,65.0,41.0,57.0,38.0,65.0,3750.0,square1,r,0.0954,0,V,5.0
V5,93.0,59.0,48.0,54.0,40.0,59.0,3809.0,square1,r,0.0963,0,V,5.0
V5,94.0,66.0,44.0,53.0,43.0,66.0,3875.0,square1,r,0.0804,0,V,5.0
V5,95.0,63.0,43.0,50.0,40.0,63.0,3938.0,square1,r,0.1411,0,V,5.0
V5,96.0,62.0,44.0,50.0,33.0,62.0,4000.0,square1,r,0.1823,0,V,5.0
V5,97.0,64.0,49.0,55.0,37.0,64.0,4064.0,square1,r,0.1695,0,V,5.0
V5,98.0,65.0,44.0,53.0,36.0,65.0,4129.0,square1,r,0.1502,0,V,5.0
V5,99.0,65.0,42.0,55.0,35.0,65.0,4194.0,square1,r,0.1975,0,V,5.0
V9,0.0,20.0,29.0,37.0,45.0,37.0,37.0,square3,r,0.6998,2,V,9.0
V9,1.0,21.0,32.0,39.0,45.0,21.0,58.0,square1,i,0.1619,0,V,9.0
V9,2.0,16.0,27.0,41.0,48.0,48.0,106.0,square4,f,0.4105,3,V,9.0
V9,3.0,20.0,30.0,42.0,50.0,30.0,136.0,square2,j,0.1627,1,V,9.0
V9,4.0,22.0,34.0,37.0,47.0,37.0,173.0,square3,r,0.3365,2,V,9.0
V9,5.0,17.0,32.0,38.0,49.0,17.0,190.0,square1,i,0.1779,0,V,9.0
V9,6.0,17.0,25.0,39.0,47.0,25.0,215.0,square2,j,0.273,1,V,9.0
V9,7.0,22.0,28.0,33.0,48.0,33.0,248.0,square3,r,0.1153,2,V,9.0
V9,8.0,20.0,24.0,34.0,41.0,41.0,289.0,square4,f,0.2211,3,V,9.0
V9,9.0,20.0,33.0,30.0,51.0,30.0,319.0,square3,r,0.1214,2,V,9.0
V9,10.0,21.0,35.0,38.0,50.0,21.0,340.0,square1,i,0.4078,0,V,9.0
V9,11.0,19.0,29.0,44.0,45.0,45.0,385.0,square4,f,0.0384,3,V,9.0
V9,12.0,27.0,24.0,38.0,54.0,24.0,409.0,square2,j,0.5632,1,V,9.0
V9,13.0,15.0,26.0,37.0,50.0,37.0,446.0,square3,r,0.0302,2,V,9.0
V9,14.0,24.0,26.0,39.0,42.0,42.0,488.0,square4,f,0.6743,3,V,9.0
V9,15.0,26.0,27.0,43.0,49.0,26.0,514.0,square1,i,0.0425,0,V,9.0
V9,16.0,19.0,30.0,42.0,49.0,42.0,556.0,square3,r,0.0517,2,V,9.0
V9,17.0,21.0,30.0,34.0,49.0,30.0,586.0,square2,j,0.1293,1,V,9.0
V9,18.0,25.0,33.0,41.0,51.0,25.0,611.0,square1,i,0.2404,0,V,9.0
V9,19.0,17.0,31.0,41.0,45.0,45.0,656.0,square4,f,0.6517,3,V,9.0
V9,20.0,19.0,31.0,34.0,49.0,34.0,690.0,square3,r,0.0998,2,V,9.0
V9,21.0,23.0,29.0,37.0,48.0,29.0,719.0,square2,j,0.4044,1,V,9.0
V9,22.0,15.0,32.0,36.0,48.0,48.0,767.0,square4,f,0.2831,3,V,9.0
V9,23.0,25.0,33.0,39.0,47.0,47.0,814.0,square4,f,0.2398,3,V,9.0
V9,24.0,21.0,30.0,38.0,52.0,52.0,866.0,square4,f,0.2119,3,V,9.0
V9,25.0,25.0,29.0,42.0,48.0,48.0,914.0,square4,f,0.1175,3,V,9.0
V9,26.0,22.0,29.0,39.0,47.0,47.0,961.0,square4,f,0.1039,3,V,9.0
V9,27.0,17.0,31.0,45.0,41.0,41.0,1002.0,square4,f,0.0427,3,V,9.0
V9,28.0,29.0,28.0,43.0,43.0,43.0,1045.0,square4,f,0.0615,3,V,9.0
V9,29.0,20.0,31.0,43.0,49.0,49.0,1094.0,square4,f,0.0961,3,V,9.0
V9,30.0,23.0,33.0,39.0,48.0,48.0,1142.0,square4,f,0.1693,3,V,9.0
V9,31.0,20.0,27.0,38.0,53.0,53.0,1195.0,square4,f,0.0084,3,V,9.0
V9,32.0,23.0,29.0,37.0,49.0,49.0,1244.0,square4,f,0.0281,3,V,9.0
V9,33.0,24.0,33.0,37.0,49.0,49.0,1293.0,square4,f,0.0053,3,V,9.0
V9,34.0,43.0,58.0,48.0,30.0,30.0,1323.0,square4,f,0.0177,3,V,9.0
V9,35.0,48.0,59.0,45.0,34.0,45.0,1368.0,square3,r,0.2849,2,V,9.0
V9,36.0,39.0,56.0,54.0,32.0,32.0,1400.0,square4,f,0.0308,3,V,9.0
V9,37.0,40.0,57.0,50.0,35.0,50.0,1450.0,square3,r,0.0819,2,V,9.0
V9,38.0,49.0,62.0,51.0,33.0,51.0,1501.0,square3,r,0.0013,2,V,9.0
V9,39.0,45.0,61.0,48.0,34.0,48.0,1549.0,square3,r,0.18,2,V,9.0
V9,40.0,40.0,65.0,51.0,29.0,51.0,1600.0,square3,r,0.1356,2,V,9.0
V9,41.0,44.0,57.0,50.0,38.0,50.0,1650.0,square3,r,0.1458,2,V,9.0
V9,42.0,40.0,57.0,49.0,33.0,49.0,1699.0,square3,r,0.0294,2,V,9.0
V9,43.0,42.0,64.0,54.0,35.0,54.0,1753.0,square3,r,0.0625,2,V,9.0
V9,44.0,44.0,55.0,49.0,39.0,49.0,1802.0,square3,r,0.1398,2,V,9.0
V9,45.0,37.0,66.0,51.0,35.0,51.0,1853.0,square3,r,0.1719,2,V,9.0
V9,46.0,40.0,59.0,51.0,32.0,51.0,1904.0,square3,r,0.0476,2,V,9.0
V9,47.0,38.0,62.0,57.0,31.0,57.0,1961.0,square3,r,0.0737,2,V,9.0
V9,48.0,43.0,61.0,54.0,34.0,54.0,2015.0,square3,r,0.0284,2,V,9.0
V9,49.0,43.0,61.0,49.0,40.0,49.0,2064.0,square3,r,0.0463,2,V,9.0
V9,50.0,37.0,58.0,51.0,32.0,51.0,2115.0,square3,r,0.1855,2,V,9.0
V9,51.0,44.0,63.0,48.0,39.0,48.0,2163.0,square3,r,0.0734,2,V,9.0
V9,52.0,35.0,65.0,48.0,30.0,35.0,2198.0,square1,i,0.3154,0,V,9.0
V9,53.0,43.0,59.0,48.0,39.0,48.0,2246.0,square3,r,0.0426,2,V,9.0
V9,54.0,43.0,59.0,52.0,30.0,52.0,2298.0,square3,r,0.0709,2,V,9.0
V9,55.0,41.0,58.0,51.0,34.0,51.0,2349.0,square3,r,0.0642,2,V,9.0
V9,56.0,44.0,63.0,50.0,33.0,50.0,2399.0,square3,r,0.0781,2,V,9.0
V9,57.0,42.0,60.0,49.0,32.0,49.0,2448.0,square3,r,0.1487,2,V,9.0
V9,58.0,44.0,62.0,57.0,30.0,62.0,2510.0,square2,j,0.2836,1,V,9.0
V9,59.0,45.0,61.0,45.0,31.0,61.0,2571.0,square2,j,0.0855,1,V,9.0
V9,60.0,43.0,63.0,53.0,33.0,63.0,2634.0,square2,j,0.229,1,V,9.0
V9,61.0,39.0,56.0,55.0,31.0,56.0,2690.0,square2,j,0.1469,1,V,9.0
V9,62.0,39.0,61.0,50.0,34.0,61.0,2751.0,square2,j,0.1564,1,V,9.0
V9,63.0,44.0,57.0,48.0,36.0,57.0,2808.0,square2,j,0.1617,1,V,9.0
V9,64.0,40.0,60.0,58.0,35.0,60.0,2868.0,square2,j,0.0436,1,V,9.0
V9,65.0,42.0,60.0,54.0,38.0,60.0,2928.0,square2,j,0.1079,1,V,9.0
V9,66.0,41.0,60.0,54.0,37.0,60.0,2988.0,square2,j,0.0874,1,V,9.0
V9,67.0,43.0,61.0,54.0,40.0,61.0,3049.0,square2,j,0.0989,1,V,9.0
V9,68.0,45.0,40.0,26.0,18.0,40.0,3089.0,square2,j,0.0718,1,V,9.0
V9,69.0,50.0,41.0,29.0,20.0,41.0,3130.0,square2,j,0.2365,1,V,9.0
V9,70.0,43.0,36.0,27.0,15.0,15.0,3145.0,square4,f,0.063,3,V,9.0
V9,71.0,44.0,40.0,28.0,18.0,28.0,3173.0,square3,r,0.1815,2,V,9.0
V9,72.0,42.0,38.0,27.0,18.0,42.0,3215.0,square1,i,0.1866,0,V,9.0
V9,73.0,46.0,33.0,25.0,19.0,33.0,3248.0,square2,j,0.0304,1,V,9.0
V9,74.0,47.0,40.0,28.0,20.0,47.0,3295.0,square1,i,0.0012,0,V,9.0
V9,75.0,39.0,39.0,27.0,25.0,39.0,3334.0,square1,i,0.0839,0,V,9.0
V9,76.0,50.0,31.0,29.0,23.0,50.0,3384.0,square1,i,0.1468,0,V,9.0
V9,77.0,44.0,37.0,28.0,13.0,44.0,3428.0,square1,i,0.161,0,V,9.0
V9,78.0,43.0,36.0,23.0,17.0,43.0,3471.0,square1,i,0.1301,0,V,9.0
V9,79.0,42.0,36.0,28.0,24.0,42.0,3513.0,square1,i,0.1653,0,V,9.0
V9,80.0,47.0,35.0,30.0,14.0,47.0,3560.0,square1,i,0.1941,0,V,9.0
V9,81.0,46.0,33.0,29.0,18.0,46.0,3606.0,square1,i,0.2065,0,V,9.0
V9,82.0,46.0,35.0,28.0,18.0,46.0,3652.0,square1,i,0.195,0,V,9.0
V9,83.0,47.0,41.0,32.0,15.0,47.0,3699.0,square1,i,0.1668,0,V,9.0
V9,84.0,45.0,38.0,31.0,18.0,45.0,3744.0,square1,i,0.2091,0,V,9.0
V9,85.0,42.0,35.0,30.0,21.0,42.0,3786.0,square1,i,0.1628,0,V,9.0
V9,86.0,49.0,39.0,23.0,18.0,49.0,3835.0,square1,i,0.2087,0,V,9.0
V9,87.0,49.0,39.0,27.0,16.0,49.0,3884.0,square1,i,0.1626,0,V,9.0
V9,88.0,45.0,38.0,25.0,14.0,45.0,3929.0,square1,i,0.2027,0,V,9.0
V9,89.0,45.0,32.0,28.0,19.0,45.0,3974.0,square1,i,0.2278,0,V,9.0
V9,90.0,44.0,35.0,29.0,20.0,44.0,4018.0,square1,i,0.1456,0,V,9.0
V9,91.0,42.0,38.0,32.0,16.0,32.0,4050.0,square3,r,0.0014,2,V,9.0
V9,92.0,45.0,36.0,23.0,20.0,20.0,4070.0,square4,f,0.2607,3,V,9.0
V9,93.0,45.0,35.0,26.0,18.0,35.0,4105.0,square2,j,0.0525,1,V,9.0
V9,94.0,44.0,37.0,27.0,13.0,44.0,4149.0,square1,i,0.0287,0,V,9.0
V9,95.0,46.0,36.0,25.0,20.0,46.0,4195.0,square1,i,0.1288,0,V,9.0
V9,96.0,43.0,39.0,27.0,16.0,43.0,4238.0,square1,i,0.0847,0,V,9.0
V9,97.0,48.0,39.0,30.0,16.0,48.0,4286.0,square1,i,0.0727,0,V,9.0
V9,98.0,49.0,40.0,26.0,20.0,49.0,4335.0,square1,i,0.1347,0,V,9.0
V9,99.0,49.0,41.0,27.0,18.0,49.0,4384.0,square1,i,0.1455,0,V,9.0
V12,0.0,47.0,30.0,38.0,55.0,55.0,55.0,square4,r,0.4518,3,V,12.0
V12,1.0,46.0,33.0,39.0,57.0,57.0,112.0,square4,r,0.2728,3,V,12.0
V12,2.0,51.0,29.0,42.0,52.0,52.0,164.0,square4,r,0.0014,3,V,12.0
V12,3.0,52.0,30.0,38.0,62.0,62.0,226.0,square4,r,0.1057,3,V,12.0
V12,4.0,48.0,30.0,39.0,62.0,62.0,288.0,square4,r,0.0171,3,V,12.0
V12,5.0,55.0,34.0,43.0,61.0,61.0,349.0,square4,r,0.083,3,V,12.0
V12,6.0,45.0,35.0,42.0,56.0,56.0,405.0,square4,r,0.1355,3,V,12.0
V12,7.0,48.0,29.0,35.0,57.0,57.0,462.0,square4,r,0.0433,3,V,12.0
V12,8.0,46.0,33.0,38.0,59.0,59.0,521.0,square4,r,0.0341,3,V,12.0
V12,9.0,44.0,31.0,42.0,56.0,56.0,577.0,square4,r,0.008,3,V,12.0
V12,10.0,48.0,34.0,45.0,55.0,55.0,632.0,square4,r,0.163,3,V,12.0
V12,11.0,45.0,32.0,41.0,55.0,55.0,687.0,square4,r,0.1808,3,V,12.0
V12,12.0,52.0,26.0,42.0,57.0,57.0,744.0,square4,r,0.3637,3,V,12.0
V12,13.0,56.0,31.0,41.0,54.0,54.0,798.0,square4,r,0.0263,3,V,12.0
V12,14.0,44.0,34.0,40.0,64.0,64.0,862.0,square4,r,0.0081,3,V,12.0
V12,15.0,48.0,32.0,39.0,61.0,61.0,923.0,square4,r,0.0196,3,V,12.0
V12,16.0,49.0,33.0,37.0,58.0,58.0,981.0,square4,r,0.0372,3,V,12.0
V12,17.0,45.0,33.0,43.0,57.0,57.0,1038.0,square4,r,0.1235,3,V,12.0
V12,18.0,45.0,28.0,40.0,58.0,58.0,1096.0,square4,r,0.0622,3,V,12.0
V12,19.0,42.0,33.0,43.0,59.0,59.0,1155.0,square4,r,0.0346,3,V,12.0
V12,20.0,46.0,30.0,38.0,62.0,62.0,1217.0,square4,r,0.0314,3,V,12.0
V12,21.0,46.0,35.0,40.0,55.0,55.0,1272.0,square4,r,0.182,3,V,12.0
V12,22.0,46.0,34.0,36.0,63.0,63.0,1335.0,square4,r,0.1372,3,V,12.0
V12,23.0,54.0,34.0,42.0,56.0,56.0,1391.0,square4,r,0.0534,3,V,12.0
V12,24.0,44.0,30.0,41.0,59.0,59.0,1450.0,square4,r,0.0808,3,V,12.0
V12,25.0,49.0,33.0,37.0,64.0,33.0,1483.0,square2,i,0.2142,1,V,12.0
V12,26.0,52.0,34.0,39.0,57.0,39.0,1522.0,square3,j,0.0783,2,V,12.0
V12,27.0,50.0,26.0,37.0,55.0,50.0,1572.0,square1,f,0.114,0,V,12.0
V12,28.0,41.0,29.0,46.0,21.0,21.0,1593.0,square4,r,0.062,3,V,12.0
V12,29.0,41.0,28.0,51.0,20.0,41.0,1634.0,square1,f,0.0984,0,V,12.0
V12,30.0,32.0,31.0,46.0,22.0,32.0,1666.0,square1,f,0.0842,0,V,12.0
V12,31.0,38.0,28.0,45.0,22.0,45.0,1711.0,square3,j,0.1694,2,V,12.0
V12,32.0,35.0,27.0,44.0,16.0,27.0,1738.0,square2,i,0.1953,1,V,12.0
V12,33.0,39.0,29.0,49.0,21.0,49.0,1787.0,square3,j,0.0238,2,V,12.0
V12,34.0,39.0,28.0,49.0,15.0,49.0,1836.0,square3,j,0.0264,2,V,12.0
V12,35.0,36.0,29.0,50.0,17.0,50.0,1886.0,square3,j,0.0022,2,V,12.0
V12,36.0,41.0,28.0,48.0,12.0,48.0,1934.0,square3,j,0.1749,2,V,12.0
V12,37.0,34.0,29.0,46.0,25.0,46.0,1980.0,square3,j,0.0021,2,V,12.0
V12,38.0,38.0,28.0,51.0,19.0,51.0,2031.0,square3,j,0.0474,2,V,12.0
V12,39.0,39.0,31.0,45.0,13.0,45.0,2076.0,square3,j,0.0819,2,V,12.0
V12,40.0,35.0,28.0,46.0,26.0,46.0,2122.0,square3,j,0.1073,2,V,12.0
V12,41.0,38.0,27.0,46.0,20.0,46.0,2168.0,square3,j,0.1282,2,V,12.0
V12,42.0,40.0,26.0,50.0,23.0,50.0,2218.0,square3,j,0.0347,2,V,12.0
V12,43.0,33.0,30.0,45.0,18.0,45.0,2263.0,square3,j,0.0548,2,V,12.0
V12,44.0,39.0,31.0,46.0,22.0,46.0,2309.0,square3,j,0.066,2,V,12.0
V12,45.0,32.0,26.0,42.0,20.0,42.0,2351.0,square3,j,0.0573,2,V,12.0
V12,46.0,36.0,29.0,43.0,24.0,43.0,2394.0,square3,j,0.0762,2,V,12.0
V12,47.0,37.0,30.0,46.0,21.0,46.0,2440.0,square3,j,0.0123,2,V,12.0
V12,48.0,37.0,27.0,44.0,19.0,44.0,2484.0,square3,j,0.0045,2,V,12.0
V12,49.0,36.0,33.0,55.0,16.0,16.0,2500.0,square4,r,0.0875,3,V,12.0
V12,50.0,45.0,28.0,44.0,18.0,28.0,2528.0,square2,i,0.1821,1,V,12.0
V12,51.0,35.0,32.0,49.0,19.0,35.0,2563.0,square1,f,0.0013,0,V,12.0
V12,52.0,36.0,56.0,31.0,52.0,31.0,2594.0,square3,j,0.0298,2,V,12.0
V12,53.0,36.0,57.0,29.0,45.0,36.0,2630.0,square1,f,0.196,0,V,12.0
V12,54.0,38.0,61.0,28.0,51.0,38.0,2668.0,square1,f,0.1989,0,V,12.0
V12,55.0,35.0,60.0,29.0,47.0,35.0,2703.0,square1,f,0.2052,0,V,12.0
V12,56.0,34.0,62.0,29.0,46.0,34.0,2737.0,square1,f,0.1716,0,V,12.0
V12,57.0,43.0,57.0,32.0,46.0,43.0,2780.0,square1,f,0.2333,0,V,12.0
V12,58.0,40.0,59.0,32.0,50.0,40.0,2820.0,square1,f,0.0626,0,V,12.0
V12,59.0,41.0,62.0,33.0,48.0,41.0,2861.0,square1,f,0.0271,0,V,12.0
V12,60.0,36.0,61.0,32.0,49.0,36.0,2897.0,square1,f,0.0146,0,V,12.0
V12,61.0,39.0,56.0,32.0,44.0,39.0,2936.0,square1,f,0.1359,0,V,12.0
V12,62.0,39.0,57.0,30.0,46.0,39.0,2975.0,square1,f,0.0625,0,V,12.0
V12,63.0,42.0,53.0,29.0,46.0,42.0,3017.0,square1,f,0.1155,0,V,12.0
V12,64.0,35.0,57.0,32.0,50.0,35.0,3052.0,square1,f,0.0282,0,V,12.0
V12,65.0,44.0,58.0,32.0,49.0,44.0,3096.0,square1,f,0.0077,0,V,12.0
V12,66.0,44.0,56.0,29.0,52.0,44.0,3140.0,square1,f,0.0614,0,V,12.0
V12,67.0,41.0,60.0,30.0,49.0,41.0,3181.0,square1,f,0.053,0,V,12.0
V12,68.0,42.0,58.0,32.0,45.0,42.0,3223.0,square1,f,0.1162,0,V,12.0
V12,69.0,36.0,60.0,33.0,50.0,36.0,3259.0,square1,f,0.1384,0,V,12.0
V12,70.0,36.0,57.0,27.0,46.0,46.0,3305.0,square4,r,0.0986,3,V,12.0
V12,71.0,41.0,59.0,32.0,48.0,48.0,3353.0,square4,r,0.1109,3,V,12.0
V12,72.0,34.0,59.0,31.0,49.0,49.0,3402.0,square4,r,0.1103,3,V,12.0
V12,73.0,71.0,53.0,65.0,49.0,49.0,3451.0,square4,r,0.0943,3,V,12.0
V12,74.0,69.0,49.0,63.0,45.0,45.0,3496.0,square4,r,0.1058,3,V,12.0
V12,75.0,72.0,51.0,56.0,46.0,46.0,3542.0,square4,r,0.0393,3,V,12.0
V12,76.0,72.0,48.0,58.0,43.0,43.0,3585.0,square4,r,0.0867,3,V,12.0
V12,77.0,74.0,57.0,59.0,44.0,57.0,3642.0,square2,i,0.0298,1,V,12.0
V12,78.0,69.0,55.0,63.0,50.0,55.0,3697.0,square2,i,0.1387,1,V,12.0
V12,79.0,73.0,53.0,58.0,43.0,53.0,3750.0,square2,i,0.0963,1,V,12.0
V12,80.0,71.0,47.0,65.0,40.0,47.0,3797.0,square2,i,0.1659,1,V,12.0
V12,81.0,66.0,49.0,57.0,40.0,49.0,3846.0,square2,i,0.101,1,V,12.0
V12,82.0,71.0,53.0,57.0,48.0,53.0,3899.0,square2,i,0.2952,1,V,12.0
V12,83.0,70.0,50.0,56.0,49.0,50.0,3949.0,square2,i,0.2126,1,V,12.0
V12,84.0,69.0,45.0,64.0,43.0,45.0,3994.0,square2,i,0.1463,1,V,12.0
V12,85.0,64.0,48.0,54.0,42.0,54.0,4048.0,square3,j,0.112,2,V,12.0
V12,86.0,71.0,49.0,63.0,44.0,63.0,4111.0,square3,j,0.138,2,V,12.0
V12,87.0,72.0,52.0,55.0,42.0,55.0,4166.0,square3,j,0.1428,2,V,12.0
V12,88.0,64.0,48.0,59.0,44.0,59.0,4225.0,square3,j,0.1597,2,V,12.0
V12,89.0,69.0,48.0,62.0,45.0,62.0,4287.0,square3,j,0.1636,2,V,12.0
V12,90.0,68.0,56.0,60.0,42.0,60.0,4347.0,square3,j,0.1612,2,V,12.0
V12,91.0,69.0,52.0,62.0,45.0,62.0,4409.0,square3,j,0.1075,2,V,12.0
V12,92.0,65.0,50.0,64.0,47.0,64.0,4473.0,square3,j,0.1367,2,V,12.0
V12,93.0,68.0,51.0,62.0,43.0,62.0,4535.0,square3,j,0.1755,2,V,12.0
V12,94.0,68.0,52.0,60.0,38.0,60.0,4595.0,square3,j,0.1624,2,V,12.0
V12,95.0,71.0,52.0,58.0,47.0,58.0,4653.0,square3,j,0.1164,2,V,12.0
V12,96.0,66.0,49.0,59.0,44.0,59.0,4712.0,square3,j,0.0014,2,V,12.0
V12,97.0,74.0,47.0,54.0,47.0,54.0,4766.0,square3,j,0.1073,2,V,12.0
V12,98.0,68.0,43.0,64.0,41.0,68.0,4834.0,square1,f,0.0768,0,V,12.0
V12,99.0,71.0,53.0,62.0,44.0,71.0,4905.0,square1,f,0.13,0,V,12.0
NS11,0.0,78.0,37.0,30.0,78.0,30.0,30.0,square3,i,0.4335,2,N,11.0
NS11,1.0,85.0,34.0,30.0,76.0,34.0,64.0,square2,f,0.4129,1,N,11.0
NS11,2.0,79.0,33.0,36.0,77.0,77.0,141.0,square4,j,0.1656,3,N,11.0
NS11,3.0,82.0,33.0,28.0,72.0,72.0,213.0,square4,j,0.0097,3,N,11.0
NS11,4.0,82.0,34.0,33.0,76.0,76.0,289.0,square4,j,0.0617,3,N,11.0
NS11,5.0,78.0,38.0,32.0,83.0,83.0,372.0,square4,j,0.0131,3,N,11.0
NS11,6.0,78.0,37.0,34.0,77.0,77.0,449.0,square4,j,0.0607,3,N,11.0
NS11,7.0,80.0,30.0,33.0,74.0,74.0,523.0,square4,j,0.0245,3,N,11.0
NS11,8.0,79.0,32.0,30.0,73.0,73.0,596.0,square4,j,0.0375,3,N,11.0
NS11,9.0,81.0,41.0,34.0,61.0,61.0,657.0,square4,j,0.0086,3,N,11.0
NS11,10.0,76.0,38.0,25.0,64.0,76.0,733.0,square1,r,0.2633,0,N,11.0
NS11,11.0,79.0,34.0,27.0,65.0,79.0,812.0,square1,r,0.1636,0,N,11.0
NS11,12.0,81.0,32.0,25.0,68.0,81.0,893.0,square1,r,0.08,0,N,11.0
NS11,13.0,84.0,36.0,24.0,64.0,84.0,977.0,square1,r,0.0467,0,N,11.0
NS11,14.0,80.0,30.0,24.0,61.0,80.0,1057.0,square1,r,0.0612,0,N,11.0
NS11,15.0,86.0,33.0,22.0,66.0,86.0,1143.0,square1,r,0.0015,0,N,11.0
NS11,16.0,85.0,32.0,20.0,64.0,85.0,1228.0,square1,r,0.1996,0,N,11.0
NS11,17.0,83.0,32.0,22.0,71.0,83.0,1311.0,square1,r,0.0443,0,N,11.0
NS11,18.0,80.0,31.0,19.0,66.0,80.0,1391.0,square1,r,0.1837,0,N,11.0
NS11,19.0,75.0,40.0,23.0,69.0,23.0,1414.0,square3,i,0.0014,2,N,11.0
NS11,20.0,73.0,37.0,14.0,67.0,37.0,1451.0,square2,f,0.0876,1,N,11.0
NS11,21.0,81.0,34.0,23.0,70.0,70.0,1521.0,square4,j,0.3891,3,N,11.0
NS11,22.0,77.0,39.0,16.0,73.0,77.0,1598.0,square1,r,0.1287,0,N,11.0
NS11,23.0,78.0,30.0,23.0,74.0,78.0,1676.0,square1,r,0.1939,0,N,11.0
NS11,24.0,80.0,32.0,26.0,68.0,80.0,1756.0,square1,r,0.0154,0,N,11.0
NS11,25.0,81.0,29.0,29.0,73.0,81.0,1837.0,square1,r,0.0955,0,N,11.0
NS11,26.0,77.0,31.0,26.0,69.0,77.0,1914.0,square1,r,0.0383,0,N,11.0
NS11,27.0,69.0,47.0,29.0,64.0,69.0,1983.0,square1,r,0.0169,0,N,11.0
NS11,28.0,69.0,39.0,28.0,71.0,71.0,2054.0,square4,j,0.0132,3,N,11.0
NS11,29.0,71.0,41.0,24.0,66.0,66.0,2120.0,square4,j,0.1027,3,N,11.0
NS11,30.0,70.0,40.0,21.0,68.0,70.0,2190.0,square1,r,0.0773,0,N,11.0
NS11,31.0,72.0,44.0,21.0,68.0,72.0,2262.0,square1,r,0.0266,0,N,11.0
NS11,32.0,72.0,41.0,19.0,75.0,72.0,2334.0,square1,r,0.1645,0,N,11.0
NS11,33.0,66.0,48.0,21.0,72.0,66.0,2400.0,square1,r,0.0047,0,N,11.0
NS11,34.0,67.0,48.0,24.0,72.0,72.0,2472.0,square4,j,0.183,3,N,11.0
NS11,35.0,58.0,52.0,14.0,73.0,73.0,2545.0,square4,j,0.0972,3,N,11.0
NS11,36.0,61.0,52.0,23.0,70.0,70.0,2615.0,square4,j,0.1205,3,N,11.0
NS11,37.0,50.0,55.0,29.0,67.0,50.0,2665.0,square1,r,0.1289,0,N,11.0
NS11,38.0,51.0,54.0,20.0,64.0,64.0,2729.0,square4,j,0.1949,3,N,11.0
NS11,39.0,54.0,49.0,26.0,63.0,26.0,2755.0,square3,i,0.1722,2,N,11.0
NS11,40.0,50.0,47.0,24.0,70.0,47.0,2802.0,square2,f,0.1276,1,N,11.0
NS11,41.0,54.0,46.0,23.0,63.0,63.0,2865.0,square4,j,0.1917,3,N,11.0
NS11,42.0,54.0,47.0,25.0,61.0,54.0,2919.0,square1,r,0.1635,0,N,11.0
NS11,43.0,46.0,49.0,33.0,72.0,72.0,2991.0,square4,j,0.1668,3,N,11.0
NS11,44.0,54.0,50.0,38.0,72.0,72.0,3063.0,square4,j,0.2284,3,N,11.0
NS11,45.0,56.0,53.0,39.0,81.0,81.0,3144.0,square4,j,0.0408,3,N,11.0
NS11,46.0,57.0,55.0,33.0,77.0,77.0,3221.0,square4,j,0.0946,3,N,11.0
NS11,47.0,56.0,51.0,32.0,76.0,76.0,3297.0,square4,j,0.0767,3,N,11.0
NS11,48.0,58.0,49.0,29.0,85.0,85.0,3382.0,square4,j,0.1995,3,N,11.0
NS11,49.0,58.0,53.0,27.0,83.0,83.0,3465.0,square4,j,0.0281,3,N,11.0
NS11,50.0,62.0,49.0,24.0,80.0,80.0,3545.0,square4,j,0.0155,3,N,11.0
NS11,51.0,57.0,55.0,23.0,77.0,55.0,3600.0,square2,f,0.0674,1,N,11.0
NS11,52.0,56.0,55.0,20.0,77.0,77.0,3677.0,square4,j,0.1155,3,N,11.0
NS11,53.0,59.0,56.0,20.0,78.0,78.0,3755.0,square4,j,0.049,3,N,11.0
NS11,54.0,58.0,57.0,27.0,74.0,74.0,3829.0,square4,j,0.0771,3,N,11.0
NS11,55.0,60.0,55.0,24.0,79.0,79.0,3908.0,square4,j,0.0689,3,N,11.0
NS11,56.0,60.0,52.0,22.0,77.0,77.0,3985.0,square4,j,0.1307,3,N,11.0
NS11,57.0,58.0,55.0,22.0,72.0,72.0,4057.0,square4,j,0.097,3,N,11.0
NS11,58.0,63.0,52.0,22.0,75.0,75.0,4132.0,square4,j,0.1486,3,N,11.0
NS11,59.0,62.0,56.0,17.0,70.0,62.0,4194.0,square1,r,0.1374,0,N,11.0
NS11,60.0,61.0,55.0,22.0,70.0,70.0,4264.0,square4,j,0.1385,3,N,11.0
NS11,61.0,57.0,52.0,21.0,76.0,76.0,4340.0,square4,j,0.0024,3,N,11.0
NS11,62.0,57.0,48.0,28.0,75.0,75.0,4415.0,square4,j,0.0199,3,N,11.0
NS11,63.0,57.0,58.0,30.0,68.0,68.0,4483.0,square4,j,0.0633,3,N,11.0
NS11,64.0,61.0,61.0,27.0,74.0,74.0,4557.0,square4,j,0.0286,3,N,11.0
NS11,65.0,67.0,63.0,40.0,71.0,71.0,4628.0,square4,j,0.0527,3,N,11.0
NS11,66.0,69.0,55.0,38.0,73.0,73.0,4701.0,square4,j,0.0507,3,N,11.0
NS11,67.0,72.0,57.0,36.0,65.0,65.0,4766.0,square4,j,0.0357,3,N,11.0
NS11,68.0,71.0,61.0,36.0,64.0,36.0,4802.0,square3,i,0.1456,2,N,11.0
NS11,69.0,74.0,66.0,37.0,58.0,58.0,4860.0,square4,j,0.1784,3,N,11.0
NS11,70.0,69.0,60.0,40.0,66.0,66.0,4926.0,square4,j,0.1855,3,N,11.0
NS11,71.0,71.0,58.0,40.0,64.0,64.0,4990.0,square4,j,0.0061,3,N,11.0
NS11,72.0,72.0,58.0,46.0,67.0,67.0,5057.0,square4,j,0.1411,3,N,11.0
NS11,73.0,72.0,56.0,47.0,65.0,56.0,5113.0,square2,f,0.1416,1,N,11.0
NS11,74.0,66.0,54.0,47.0,63.0,63.0,5176.0,square4,j,0.0603,3,N,11.0
NS11,75.0,75.0,53.0,43.0,58.0,58.0,5234.0,square4,j,0.2153,3,N,11.0
NS11,76.0,75.0,48.0,40.0,59.0,75.0,5309.0,square1,r,0.1284,0,N,11.0
NS11,77.0,65.0,48.0,36.0,58.0,65.0,5374.0,square1,r,0.2554,0,N,11.0
NS11,78.0,70.0,45.0,37.0,59.0,70.0,5444.0,square1,r,0.1032,0,N,11.0
NS11,79.0,70.0,41.0,36.0,59.0,70.0,5514.0,square1,r,0.0476,0,N,11.0
NS11,80.0,73.0,43.0,39.0,59.0,73.0,5587.0,square1,r,0.0144,0,N,11.0
NS11,81.0,72.0,39.0,38.0,60.0,72.0,5659.0,square1,r,0.2432,0,N,11.0
NS11,82.0,72.0,39.0,44.0,65.0,72.0,5731.0,square1,r,0.0015,0,N,11.0
NS11,83.0,68.0,38.0,40.0,61.0,61.0,5792.0,square4,j,0.1512,3,N,11.0
NS11,84.0,69.0,36.0,36.0,64.0,69.0,5861.0,square1,r,0.1728,0,N,11.0
NS11,85.0,70.0,34.0,40.0,69.0,70.0,5931.0,square1,r,0.1331,0,N,11.0
NS11,86.0,70.0,32.0,36.0,71.0,70.0,6001.0,square1,r,0.0901,0,N,11.0
NS11,87.0,69.0,31.0,37.0,70.0,69.0,6070.0,square1,r,0.0409,0,N,11.0
NS11,88.0,69.0,34.0,41.0,67.0,67.0,6137.0,square4,j,0.0945,3,N,11.0
NS11,89.0,67.0,39.0,44.0,67.0,67.0,6204.0,square1,r,0.0508,0,N,11.0
NS11,90.0,64.0,33.0,36.0,69.0,69.0,6273.0,square4,j,0.2441,3,N,11.0
NS11,91.0,60.0,33.0,38.0,67.0,67.0,6340.0,square4,j,0.0167,3,N,11.0
NS11,92.0,60.0,33.0,37.0,68.0,33.0,6373.0,square2,f,0.1291,1,N,11.0
NS11,93.0,54.0,36.0,38.0,73.0,54.0,6427.0,square1,r,0.0629,0,N,11.0
NS11,94.0,58.0,35.0,39.0,68.0,39.0,6466.0,square3,i,0.1722,2,N,11.0
NS11,95.0,50.0,38.0,32.0,77.0,77.0,6543.0,square4,j,0.0609,3,N,11.0
NS11,96.0,53.0,42.0,30.0,71.0,71.0,6614.0,square4,j,0.1001,3,N,11.0
NS11,97.0,54.0,38.0,32.0,75.0,75.0,6689.0,square4,j,0.0675,3,N,11.0
NS11,98.0,52.0,48.0,32.0,72.0,72.0,6761.0,square4,j,0.0777,3,N,11.0
NS11,99.0,55.0,45.0,33.0,73.0,73.0,6834.0,square4,j,0.0317,3,N,11.0
NS9,0.0,40.0,33.0,41.0,64.0,64.0,64.0,square4,i,1.2424,3,N,9.0
NS9,1.0,40.0,19.0,39.0,64.0,64.0,128.0,square4,i,0.1285,3,N,9.0
NS9,2.0,41.0,16.0,44.0,59.0,41.0,169.0,square1,j,0.1201,0,N,9.0
NS9,3.0,41.0,19.0,48.0,58.0,19.0,188.0,square2,r,1.2192,1,N,9.0
NS9,4.0,46.0,18.0,45.0,54.0,45.0,233.0,square3,f,0.1335,2,N,9.0
NS9,5.0,40.0,17.0,53.0,54.0,54.0,287.0,square4,i,0.1181,3,N,9.0
NS9,6.0,40.0,19.0,47.0,46.0,46.0,333.0,square4,i,0.0373,3,N,9.0
NS9,7.0,44.0,21.0,51.0,49.0,49.0,382.0,square4,i,0.0756,3,N,9.0
NS9,8.0,41.0,26.0,44.0,55.0,55.0,437.0,square4,i,0.1949,3,N,9.0
NS9,9.0,36.0,15.0,44.0,54.0,44.0,481.0,square3,f,0.0612,2,N,9.0
NS9,10.0,32.0,19.0,48.0,49.0,32.0,513.0,square1,j,0.0615,0,N,9.0
NS9,11.0,32.0,18.0,50.0,57.0,18.0,531.0,square2,r,0.0958,1,N,9.0
NS9,12.0,32.0,18.0,57.0,52.0,52.0,583.0,square4,i,0.2659,3,N,9.0
NS9,13.0,32.0,8.0,58.0,56.0,56.0,639.0,square4,i,0.0437,3,N,9.0
NS9,14.0,28.0,9.0,61.0,55.0,55.0,694.0,square4,i,0.0341,3,N,9.0
NS9,15.0,31.0,11.0,64.0,48.0,48.0,742.0,square4,i,0.236,3,N,9.0
NS9,16.0,34.0,13.0,68.0,47.0,47.0,789.0,square4,i,1.1651,3,N,9.0
NS9,17.0,37.0,11.0,71.0,54.0,54.0,843.0,square4,i,0.1145,3,N,9.0
NS9,18.0,35.0,10.0,71.0,50.0,50.0,893.0,square4,i,0.1119,3,N,9.0
NS9,19.0,32.0,21.0,77.0,49.0,49.0,942.0,square4,i,0.0957,3,N,9.0
NS9,20.0,41.0,22.0,74.0,48.0,48.0,990.0,square4,i,0.1201,3,N,9.0
NS9,21.0,40.0,21.0,75.0,50.0,50.0,1040.0,square4,i,0.1756,3,N,9.0
NS9,22.0,42.0,23.0,72.0,54.0,54.0,1094.0,square4,i,0.1181,3,N,9.0
NS9,23.0,43.0,22.0,75.0,45.0,45.0,1139.0,square4,i,0.1771,3,N,9.0
NS9,24.0,41.0,18.0,70.0,49.0,49.0,1188.0,square4,i,0.0395,3,N,9.0
NS9,25.0,38.0,21.0,75.0,53.0,38.0,1226.0,square1,j,0.0829,0,N,9.0
NS9,26.0,40.0,20.0,73.0,54.0,73.0,1299.0,square3,f,0.1186,2,N,9.0
NS9,27.0,46.0,21.0,74.0,56.0,74.0,1373.0,square3,f,0.0619,2,N,9.0
NS9,28.0,51.0,25.0,72.0,58.0,72.0,1445.0,square3,f,0.031,2,N,9.0
NS9,29.0,43.0,29.0,71.0,56.0,71.0,1516.0,square3,f,0.1663,2,N,9.0
NS9,30.0,38.0,26.0,71.0,52.0,71.0,1587.0,square3,f,0.0271,2,N,9.0
NS9,31.0,43.0,23.0,73.0,53.0,73.0,1660.0,square3,f,0.097,2,N,9.0
NS9,32.0,43.0,24.0,76.0,52.0,76.0,1736.0,square3,f,0.1365,2,N,9.0
NS9,33.0,41.0,18.0,72.0,49.0,72.0,1808.0,square3,f,0.0017,2,N,9.0
NS9,34.0,36.0,26.0,68.0,55.0,68.0,1876.0,square3,f,0.0397,2,N,9.0
NS9,35.0,34.0,34.0,68.0,52.0,52.0,1928.0,square4,i,0.0766,3,N,9.0
NS9,36.0,34.0,43.0,70.0,49.0,43.0,1971.0,square2,r,0.1032,1,N,9.0
NS9,37.0,32.0,41.0,61.0,47.0,32.0,2003.0,square1,j,0.8551,0,N,9.0
NS9,38.0,28.0,41.0,65.0,47.0,65.0,2068.0,square3,f,0.1151,2,N,9.0
NS9,39.0,28.0,43.0,61.0,48.0,61.0,2129.0,square3,f,0.1045,2,N,9.0
NS9,40.0,26.0,46.0,65.0,39.0,65.0,2194.0,square3,f,0.1305,2,N,9.0
NS9,41.0,21.0,38.0,62.0,41.0,62.0,2256.0,square3,f,0.0967,2,N,9.0
NS9,42.0,18.0,37.0,59.0,42.0,59.0,2315.0,square3,f,0.0673,2,N,9.0
NS9,43.0,18.0,44.0,57.0,39.0,57.0,2372.0,square3,f,0.0771,2,N,9.0
NS9,44.0,19.0,43.0,58.0,36.0,58.0,2430.0,square3,f,0.0397,2,N,9.0
NS9,45.0,23.0,42.0,53.0,39.0,53.0,2483.0,square3,f,0.1283,2,N,9.0
NS9,46.0,22.0,48.0,58.0,43.0,43.0,2526.0,square4,i,0.1656,3,N,9.0
NS9,47.0,20.0,47.0,51.0,44.0,20.0,2546.0,square1,j,0.1361,0,N,9.0
NS9,48.0,21.0,43.0,57.0,40.0,43.0,2589.0,square2,r,0.1313,1,N,9.0
NS9,49.0,25.0,38.0,59.0,46.0,59.0,2648.0,square3,f,0.0517,2,N,9.0
NS9,50.0,27.0,41.0,49.0,52.0,49.0,2697.0,square3,f,0.0399,2,N,9.0
NS9,51.0,20.0,42.0,52.0,54.0,54.0,2751.0,square4,i,0.2031,3,N,9.0
NS9,52.0,18.0,41.0,51.0,48.0,48.0,2799.0,square4,i,0.1397,3,N,9.0
NS9,53.0,17.0,43.0,52.0,50.0,17.0,2816.0,square1,j,0.0198,0,N,9.0
NS9,54.0,27.0,37.0,55.0,56.0,37.0,2853.0,square2,r,0.0455,1,N,9.0
NS9,55.0,30.0,38.0,59.0,50.0,50.0,2903.0,square4,i,0.0017,3,N,9.0
NS9,56.0,32.0,49.0,54.0,59.0,54.0,2957.0,square3,f,0.0374,2,N,9.0
NS9,57.0,34.0,50.0,50.0,58.0,58.0,3015.0,square4,i,0.2294,3,N,9.0
NS9,58.0,28.0,49.0,54.0,51.0,54.0,3069.0,square3,f,0.1815,2,N,9.0
NS9,59.0,26.0,47.0,46.0,49.0,49.0,3118.0,square4,i,0.0399,3,N,9.0
NS9,60.0,30.0,47.0,50.0,51.0,50.0,3168.0,square3,f,0.0479,2,N,9.0
NS9,61.0,29.0,43.0,51.0,50.0,50.0,3218.0,square4,i,0.1002,3,N,9.0
NS9,62.0,32.0,42.0,52.0,54.0,54.0,3272.0,square4,i,0.1651,3,N,9.0
NS9,63.0,35.0,45.0,57.0,46.0,46.0,3318.0,square4,i,0.2195,3,N,9.0
NS9,64.0,37.0,41.0,53.0,44.0,53.0,3371.0,square3,f,0.1658,2,N,9.0
NS9,65.0,34.0,41.0,50.0,49.0,50.0,3421.0,square3,f,0.0213,2,N,9.0
NS9,66.0,38.0,43.0,46.0,53.0,53.0,3474.0,square4,i,0.1406,3,N,9.0
NS9,67.0,36.0,35.0,51.0,54.0,51.0,3525.0,square3,f,0.0819,2,N,9.0
NS9,68.0,43.0,38.0,48.0,57.0,57.0,3582.0,square4,i,0.0305,3,N,9.0
NS9,69.0,42.0,42.0,48.0,49.0,48.0,3630.0,square3,f,0.0052,2,N,9.0
NS9,70.0,45.0,40.0,50.0,51.0,50.0,3680.0,square3,f,0.0038,2,N,9.0
NS9,71.0,49.0,42.0,48.0,52.0,48.0,3728.0,square3,f,0.1149,2,N,9.0
NS9,72.0,39.0,44.0,47.0,58.0,58.0,3786.0,square4,i,0.0954,3,N,9.0
NS9,73.0,40.0,45.0,45.0,62.0,45.0,3831.0,square2,r,0.1063,1,N,9.0
NS9,74.0,46.0,48.0,47.0,56.0,46.0,3877.0,square1,j,0.1495,0,N,9.0
NS9,75.0,35.0,39.0,53.0,65.0,65.0,3942.0,square4,i,0.1686,3,N,9.0
NS9,76.0,40.0,45.0,56.0,67.0,56.0,3998.0,square3,f,0.1044,2,N,9.0
NS9,77.0,38.0,46.0,54.0,69.0,69.0,4067.0,square4,i,0.1761,3,N,9.0
NS9,78.0,37.0,42.0,53.0,69.0,37.0,4104.0,square1,j,0.1033,0,N,9.0
NS9,79.0,40.0,44.0,53.0,70.0,53.0,4157.0,square3,f,0.0253,2,N,9.0
NS9,80.0,37.0,50.0,55.0,70.0,70.0,4227.0,square4,i,0.0663,3,N,9.0
NS9,81.0,33.0,54.0,54.0,63.0,54.0,4281.0,square3,f,0.1626,2,N,9.0
NS9,82.0,35.0,55.0,52.0,74.0,74.0,4355.0,square4,i,0.1045,3,N,9.0
NS9,83.0,34.0,48.0,56.0,75.0,75.0,4430.0,square4,i,0.0015,3,N,9.0
NS9,84.0,39.0,51.0,62.0,78.0,78.0,4508.0,square4,i,0.0163,3,N,9.0
NS9,85.0,38.0,57.0,55.0,77.0,77.0,4585.0,square4,i,0.0669,3,N,9.0
NS9,86.0,34.0,53.0,57.0,68.0,68.0,4653.0,square4,i,0.0162,3,N,9.0
NS9,87.0,35.0,48.0,55.0,69.0,69.0,4722.0,square4,i,0.04,3,N,9.0
NS9,88.0,41.0,48.0,50.0,69.0,69.0,4791.0,square4,i,0.0627,3,N,9.0
NS9,89.0,38.0,54.0,55.0,70.0,70.0,4861.0,square4,i,0.0683,3,N,9.0
NS9,90.0,43.0,55.0,49.0,71.0,71.0,4932.0,square4,i,0.2139,3,N,9.0
NS9,91.0,41.0,46.0,54.0,78.0,78.0,5010.0,square4,i,0.2725,3,N,9.0
NS9,92.0,40.0,42.0,41.0,72.0,72.0,5082.0,square4,i,0.0012,3,N,9.0
NS9,93.0,39.0,43.0,47.0,70.0,70.0,5152.0,square4,i,0.0821,3,N,9.0
NS9,94.0,36.0,47.0,43.0,80.0,80.0,5232.0,square4,i,0.114,3,N,9.0
NS9,95.0,37.0,46.0,43.0,75.0,75.0,5307.0,square4,i,0.2069,3,N,9.0
NS9,96.0,39.0,47.0,47.0,75.0,75.0,5382.0,square4,i,0.0508,3,N,9.0
NS9,97.0,35.0,41.0,49.0,80.0,80.0,5462.0,square4,i,0.1904,3,N,9.0
NS9,98.0,33.0,45.0,56.0,74.0,74.0,5536.0,square4,i,0.096,3,N,9.0
NS9,99.0,34.0,42.0,58.0,74.0,74.0,5610.0,square4,i,0.1787,3,N,9.0
NS12,0.0,80.0,24.0,40.0,79.0,80.0,80.0,square1,i,0.921,0,N,12.0
NS12,1.0,78.0,28.0,44.0,78.0,78.0,158.0,square1,i,0.095,0,N,12.0
NS12,2.0,77.0,28.0,37.0,82.0,77.0,235.0,square1,i,0.1389,0,N,12.0
NS12,3.0,76.0,33.0,39.0,82.0,76.0,311.0,square1,i,0.1023,0,N,12.0
NS12,4.0,79.0,37.0,34.0,78.0,79.0,390.0,square1,i,0.1378,0,N,12.0
NS12,5.0,83.0,33.0,28.0,81.0,83.0,473.0,square1,i,0.1498,0,N,12.0
NS12,6.0,77.0,39.0,33.0,80.0,77.0,550.0,square1,i,0.1738,0,N,12.0
NS12,7.0,77.0,40.0,25.0,85.0,77.0,627.0,square1,i,0.1102,0,N,12.0
NS12,8.0,77.0,40.0,29.0,87.0,77.0,704.0,square1,i,0.1016,0,N,12.0
NS12,9.0,70.0,42.0,29.0,88.0,70.0,774.0,square1,i,0.1318,0,N,12.0
NS12,10.0,65.0,47.0,31.0,86.0,86.0,860.0,square4,r,1.5724,3,N,12.0
NS12,11.0,67.0,46.0,26.0,84.0,84.0,944.0,square4,r,0.1124,3,N,12.0
NS12,12.0,67.0,36.0,26.0,84.0,84.0,1028.0,square4,r,0.1298,3,N,12.0
NS12,13.0,69.0,33.0,23.0,82.0,82.0,1110.0,square4,r,0.0626,3,N,12.0
NS12,14.0,66.0,35.0,20.0,81.0,35.0,1145.0,square2,f,0.0312,1,N,12.0
NS12,15.0,66.0,30.0,23.0,78.0,78.0,1223.0,square4,r,0.0302,3,N,12.0
NS12,16.0,69.0,28.0,17.0,74.0,74.0,1297.0,square4,r,0.0323,3,N,12.0
NS12,17.0,66.0,32.0,20.0,78.0,66.0,1363.0,square1,i,0.0435,0,N,12.0
NS12,18.0,60.0,33.0,26.0,76.0,76.0,1439.0,square4,r,0.1518,3,N,12.0
NS12,19.0,63.0,37.0,23.0,76.0,23.0,1462.0,square3,j,0.0481,2,N,12.0
NS12,20.0,59.0,36.0,24.0,78.0,78.0,1540.0,square4,r,0.0144,3,N,12.0
NS12,21.0,59.0,35.0,25.0,79.0,79.0,1619.0,square4,r,0.0632,3,N,12.0
NS12,22.0,61.0,37.0,26.0,88.0,88.0,1707.0,square4,r,0.0019,3,N,12.0
NS12,23.0,61.0,37.0,25.0,83.0,83.0,1790.0,square4,r,0.075,3,N,12.0
NS12,24.0,61.0,39.0,26.0,85.0,85.0,1875.0,square4,r,0.2386,3,N,12.0
NS12,25.0,63.0,30.0,29.0,77.0,77.0,1952.0,square4,r,0.0702,3,N,12.0
NS12,26.0,58.0,39.0,29.0,83.0,83.0,2035.0,square4,r,0.0942,3,N,12.0
NS12,27.0,60.0,34.0,32.0,85.0,85.0,2120.0,square4,r,0.1391,3,N,12.0
NS12,28.0,63.0,32.0,35.0,77.0,77.0,2197.0,square4,r,0.0109,3,N,12.0
NS12,29.0,61.0,35.0,23.0,79.0,79.0,2276.0,square4,r,0.003,3,N,12.0
NS12,30.0,57.0,27.0,30.0,69.0,69.0,2345.0,square4,r,0.0488,3,N,12.0
NS12,31.0,64.0,29.0,26.0,69.0,69.0,2414.0,square4,r,0.0613,3,N,12.0
NS12,32.0,65.0,29.0,33.0,69.0,69.0,2483.0,square4,r,0.0795,3,N,12.0
NS12,33.0,68.0,29.0,33.0,73.0,68.0,2551.0,square1,i,0.0016,0,N,12.0
NS12,34.0,69.0,29.0,29.0,67.0,67.0,2618.0,square4,r,0.0095,3,N,12.0
NS12,35.0,66.0,32.0,30.0,61.0,66.0,2684.0,square1,i,0.065,0,N,12.0
NS12,36.0,64.0,27.0,26.0,58.0,58.0,2742.0,square4,r,0.0372,3,N,12.0
NS12,37.0,65.0,32.0,27.0,67.0,65.0,2807.0,square1,i,0.0021,0,N,12.0
NS12,38.0,63.0,32.0,30.0,64.0,63.0,2870.0,square1,i,0.1364,0,N,12.0
NS12,39.0,65.0,30.0,30.0,70.0,65.0,2935.0,square1,i,0.1754,0,N,12.0
NS12,40.0,71.0,37.0,32.0,69.0,69.0,3004.0,square4,r,0.1301,3,N,12.0
NS12,41.0,66.0,45.0,37.0,69.0,45.0,3049.0,square2,f,0.0389,1,N,12.0
NS12,42.0,75.0,42.0,35.0,65.0,35.0,3084.0,square3,j,0.1636,2,N,12.0
NS12,43.0,82.0,39.0,35.0,57.0,57.0,3141.0,square4,r,0.1622,3,N,12.0
NS12,44.0,81.0,34.0,34.0,61.0,81.0,3222.0,square1,i,0.0026,0,N,12.0
NS12,45.0,74.0,33.0,36.0,59.0,74.0,3296.0,square1,i,0.04,0,N,12.0
NS12,46.0,77.0,32.0,40.0,57.0,77.0,3373.0,square1,i,0.1863,0,N,12.0
NS12,47.0,79.0,32.0,39.0,60.0,79.0,3452.0,square1,i,0.0621,0,N,12.0
NS12,48.0,80.0,28.0,34.0,62.0,80.0,3532.0,square1,i,0.0296,0,N,12.0
NS12,49.0,76.0,23.0,37.0,64.0,76.0,3608.0,square1,i,0.0054,0,N,12.0
NS12,50.0,75.0,25.0,37.0,65.0,75.0,3683.0,square1,i,0.0145,0,N,12.0
NS12,51.0,74.0,25.0,39.0,70.0,70.0,3753.0,square4,r,0.0511,3,N,12.0
NS12,52.0,79.0,26.0,40.0,73.0,79.0,3832.0,square1,i,0.0013,0,N,12.0
NS12,53.0,75.0,25.0,33.0,69.0,75.0,3907.0,square1,i,0.0274,0,N,12.0
NS12,54.0,79.0,25.0,38.0,68.0,68.0,3975.0,square4,r,0.0044,3,N,12.0
NS12,55.0,81.0,22.0,34.0,68.0,81.0,4056.0,square1,i,0.0614,0,N,12.0
NS12,56.0,72.0,29.0,39.0,69.0,72.0,4128.0,square1,i,0.1548,0,N,12.0
NS12,57.0,72.0,28.0,38.0,73.0,73.0,4201.0,square4,r,0.112,3,N,12.0
NS12,58.0,69.0,25.0,32.0,71.0,69.0,4270.0,square1,i,0.0402,0,N,12.0
NS12,59.0,75.0,30.0,33.0,69.0,69.0,4339.0,square4,r,0.0123,3,N,12.0
NS12,60.0,68.0,28.0,39.0,68.0,68.0,4407.0,square1,i,0.0113,0,N,12.0
NS12,61.0,69.0,32.0,37.0,60.0,60.0,4467.0,square4,r,0.0149,3,N,12.0
NS12,62.0,63.0,37.0,39.0,55.0,63.0,4530.0,square1,i,0.1478,0,N,12.0
NS12,63.0,63.0,38.0,43.0,54.0,63.0,4593.0,square1,i,0.1823,0,N,12.0
NS12,64.0,60.0,30.0,35.0,55.0,55.0,4648.0,square4,r,0.1282,3,N,12.0
NS12,65.0,60.0,37.0,34.0,55.0,60.0,4708.0,square1,i,0.1897,0,N,12.0
NS12,66.0,61.0,40.0,35.0,51.0,40.0,4748.0,square2,f,0.0137,1,N,12.0
NS12,67.0,65.0,37.0,35.0,53.0,35.0,4783.0,square3,j,0.1951,2,N,12.0
NS12,68.0,62.0,33.0,38.0,50.0,62.0,4845.0,square1,i,0.1127,0,N,12.0
NS12,69.0,56.0,41.0,29.0,54.0,54.0,4899.0,square4,r,0.0014,3,N,12.0
NS12,70.0,56.0,39.0,30.0,57.0,56.0,4955.0,square1,i,0.0759,0,N,12.0
NS12,71.0,61.0,40.0,33.0,64.0,64.0,5019.0,square4,r,0.2392,3,N,12.0
NS12,72.0,51.0,42.0,35.0,67.0,67.0,5086.0,square4,r,0.1137,3,N,12.0
NS12,73.0,56.0,39.0,39.0,67.0,67.0,5153.0,square4,r,0.0968,3,N,12.0
NS12,74.0,50.0,38.0,40.0,63.0,63.0,5216.0,square4,r,0.0859,3,N,12.0
NS12,75.0,52.0,37.0,41.0,67.0,52.0,5268.0,square1,i,0.0117,0,N,12.0
NS12,76.0,47.0,40.0,46.0,67.0,67.0,5335.0,square4,r,0.0284,3,N,12.0
NS12,77.0,45.0,35.0,47.0,67.0,67.0,5402.0,square4,r,0.0768,3,N,12.0
NS12,78.0,44.0,38.0,52.0,66.0,66.0,5468.0,square4,r,0.128,3,N,12.0
NS12,79.0,41.0,38.0,52.0,64.0,38.0,5506.0,square2,f,0.2356,1,N,12.0
NS12,80.0,36.0,41.0,57.0,58.0,58.0,5564.0,square4,r,0.0804,3,N,12.0
NS12,81.0,36.0,42.0,66.0,63.0,63.0,5627.0,square4,r,0.165,3,N,12.0
NS12,82.0,35.0,44.0,65.0,62.0,62.0,5689.0,square4,r,0.0634,3,N,12.0
NS12,83.0,37.0,42.0,70.0,65.0,65.0,5754.0,square4,r,0.1103,3,N,12.0
NS12,84.0,35.0,39.0,72.0,58.0,58.0,5812.0,square4,r,0.1602,3,N,12.0
NS12,85.0,30.0,40.0,62.0,55.0,30.0,5842.0,square1,i,0.173,0,N,12.0
NS12,86.0,36.0,40.0,65.0,59.0,59.0,5901.0,square4,r,0.0355,3,N,12.0
NS12,87.0,31.0,41.0,67.0,57.0,41.0,5942.0,square2,f,0.1386,1,N,12.0
NS12,88.0,30.0,50.0,67.0,52.0,67.0,6009.0,square3,j,0.1645,2,N,12.0
NS12,89.0,28.0,41.0,69.0,54.0,54.0,6063.0,square4,r,0.169,3,N,12.0
NS12,90.0,29.0,41.0,61.0,57.0,61.0,6124.0,square3,j,0.0885,2,N,12.0
NS12,91.0,30.0,36.0,59.0,54.0,59.0,6183.0,square3,j,0.0346,2,N,12.0
NS12,92.0,28.0,29.0,60.0,54.0,60.0,6243.0,square3,j,0.0317,2,N,12.0
NS12,93.0,30.0,35.0,62.0,52.0,52.0,6295.0,square4,r,0.0015,3,N,12.0
NS12,94.0,30.0,36.0,60.0,56.0,60.0,6355.0,square3,j,0.0013,2,N,12.0
NS12,95.0,29.0,33.0,63.0,60.0,63.0,6418.0,square3,j,0.0021,2,N,12.0
NS12,96.0,29.0,30.0,59.0,59.0,59.0,6477.0,square3,j,0.0357,2,N,12.0
NS12,97.0,31.0,35.0,61.0,61.0,61.0,6538.0,square4,r,0.0754,3,N,12.0
NS12,98.0,31.0,40.0,67.0,58.0,67.0,6605.0,square3,j,0.1733,2,N,12.0
NS12,99.0,33.0,37.0,65.0,67.0,65.0,6670.0,square3,j,0.0607,2,N,12.0
