block,Trial,square1,square2,square3,square4,currPoints,totalPoints,square,choiceKey.keys,choiceKey.rt,armNum,blockType,blockNum
prac,0.0,100.0,0.0,0.0,0.0,99999,0.0,invalid,,,-1,p,0.0
prac,1.0,100.0,0.0,0.0,0.0,99999,0.0,invalid,,,-1,p,0.0
prac,2.0,100.0,0.0,0.0,0.0,99999,0.0,invalid,,,-1,p,0.0
prac,3.0,100.0,0.0,0.0,0.0,99999,0.0,invalid,,,-1,p,0.0
prac,4.0,100.0,0.0,0.0,0.0,99999,0.0,invalid,,,-1,p,0.0
prac,5.0,100.0,0.0,0.0,0.0,99999,0.0,invalid,,,-1,p,0.0
prac,6.0,100.0,0.0,0.0,0.0,99999,0.0,invalid,,,-1,p,0.0
prac,7.0,100.0,0.0,0.0,0.0,99999,0.0,invalid,,,-1,p,0.0
prac,8.0,100.0,0.0,0.0,0.0,99999,0.0,invalid,,,-1,p,0.0
prac,9.0,100.0,0.0,0.0,0.0,99999,0.0,invalid,,,-1,p,0.0
NS7,0.0,26.0,62.0,36.0,41.0,41,41.0,square4,r,1.0198,3,N,7.0
NS7,1.0,31.0,61.0,40.0,42.0,61,102.0,square2,i,0.3567,1,N,7.0
NS7,2.0,30.0,60.0,46.0,41.0,60,162.0,square2,i,0.7992,1,N,7.0
NS7,3.0,27.0,57.0,46.0,39.0,57,219.0,square2,i,0.2539,1,N,7.0
NS7,4.0,20.0,58.0,45.0,39.0,20,239.0,square1,f,0.0976,0,N,7.0
NS7,5.0,29.0,57.0,46.0,42.0,46,285.0,square3,j,1.8193,2,N,7.0
NS7,6.0,28.0,61.0,44.0,40.0,40,325.0,square4,r,0.8748,3,N,7.0
NS7,7.0,24.0,56.0,46.0,40.0,56,381.0,square2,i,0.1512,1,N,7.0
NS7,8.0,25.0,66.0,45.0,36.0,66,447.0,square2,i,0.2013,1,N,7.0
NS7,9.0,27.0,65.0,46.0,40.0,65,512.0,square2,i,0.1173,1,N,7.0
NS7,10.0,27.0,65.0,41.0,46.0,65,577.0,square2,i,0.066,1,N,7.0
NS7,11.0,26.0,58.0,40.0,51.0,58,635.0,square2,i,0.0841,1,N,7.0
NS7,12.0,19.0,64.0,43.0,57.0,64,699.0,square2,i,0.186,1,N,7.0
NS7,13.0,21.0,64.0,43.0,54.0,64,763.0,square2,i,0.2045,1,N,7.0
NS7,14.0,26.0,67.0,44.0,55.0,67,830.0,square2,i,0.1685,1,N,7.0
NS7,15.0,20.0,64.0,40.0,61.0,64,894.0,square2,i,0.1988,1,N,7.0
NS7,16.0,20.0,61.0,38.0,66.0,61,955.0,square2,i,0.0084,1,N,7.0
NS7,17.0,20.0,56.0,39.0,64.0,56,1011.0,square2,i,0.2852,1,N,7.0
NS7,18.0,21.0,56.0,33.0,65.0,56,1067.0,square2,i,0.0685,1,N,7.0
NS7,19.0,21.0,56.0,36.0,68.0,56,1123.0,square2,i,0.0027,1,N,7.0
NS7,20.0,26.0,58.0,37.0,64.0,58,1181.0,square2,i,0.0839,1,N,7.0
NS7,21.0,29.0,62.0,36.0,61.0,62,1243.0,square2,i,0.0494,1,N,7.0
NS7,22.0,24.0,63.0,37.0,55.0,63,1306.0,square2,i,0.0133,1,N,7.0
NS7,23.0,26.0,64.0,38.0,54.0,64,1370.0,square2,i,0.0639,1,N,7.0
NS7,24.0,18.0,65.0,39.0,53.0,65,1435.0,square2,i,0.181,1,N,7.0
NS7,25.0,20.0,62.0,36.0,53.0,62,1497.0,square2,i,0.2134,1,N,7.0
NS7,26.0,24.0,56.0,39.0,52.0,56,1553.0,square2,i,0.3798,1,N,7.0
NS7,27.0,31.0,58.0,36.0,51.0,36,1589.0,square3,j,0.1794,2,N,7.0
NS7,28.0,28.0,59.0,42.0,53.0,59,1648.0,square2,i,0.1289,1,N,7.0
NS7,29.0,30.0,57.0,36.0,51.0,51,1699.0,square4,r,0.0964,3,N,7.0
NS7,30.0,29.0,57.0,35.0,53.0,53,1752.0,square4,r,0.1969,3,N,7.0
NS7,31.0,27.0,59.0,37.0,48.0,48,1800.0,square4,r,0.0981,3,N,7.0
NS7,32.0,29.0,59.0,38.0,45.0,59,1859.0,square2,i,0.0641,1,N,7.0
NS7,33.0,35.0,58.0,37.0,52.0,58,1917.0,square2,i,0.1146,1,N,7.0
NS7,34.0,33.0,59.0,43.0,52.0,59,1976.0,square2,i,0.0652,1,N,7.0
NS7,35.0,37.0,61.0,43.0,49.0,61,2037.0,square2,i,0.0793,1,N,7.0
NS7,36.0,36.0,62.0,48.0,54.0,62,2099.0,square2,i,0.2295,1,N,7.0
NS7,37.0,35.0,62.0,46.0,57.0,62,2161.0,square2,i,0.247,1,N,7.0
NS7,38.0,37.0,59.0,52.0,53.0,59,2220.0,square2,i,0.7833,1,N,7.0
NS7,39.0,32.0,57.0,50.0,59.0,57,2277.0,square2,i,0.218,1,N,7.0
NS7,40.0,30.0,56.0,54.0,59.0,56,2333.0,square2,i,0.0814,1,N,7.0
NS7,41.0,36.0,54.0,52.0,56.0,54,2387.0,square2,i,0.0993,1,N,7.0
NS7,42.0,30.0,55.0,57.0,55.0,55,2442.0,square2,i,0.1989,1,N,7.0
NS7,43.0,35.0,52.0,54.0,58.0,52,2494.0,square2,i,0.3144,1,N,7.0
NS7,44.0,30.0,56.0,55.0,57.0,56,2550.0,square2,i,0.2317,1,N,7.0
NS7,45.0,28.0,63.0,57.0,58.0,63,2613.0,square2,i,0.0654,1,N,7.0
NS7,46.0,29.0,60.0,58.0,57.0,60,2673.0,square2,i,0.2133,1,N,7.0
NS7,47.0,31.0,58.0,54.0,53.0,58,2731.0,square2,i,0.2494,1,N,7.0
NS7,48.0,27.0,58.0,59.0,48.0,58,2789.0,square2,i,0.214,1,N,7.0
NS7,49.0,28.0,48.0,60.0,54.0,48,2837.0,square2,i,0.1676,1,N,7.0
NS7,50.0,27.0,49.0,62.0,53.0,49,2886.0,square2,i,0.1981,1,N,7.0
NS7,51.0,41.0,49.0,63.0,56.0,49,2935.0,square2,i,0.3194,1,N,7.0
NS7,52.0,36.0,43.0,66.0,56.0,43,2978.0,square2,i,1.4966,1,N,7.0
NS7,53.0,41.0,51.0,69.0,54.0,51,3029.0,square2,i,0.0992,1,N,7.0
NS7,54.0,37.0,52.0,63.0,53.0,52,3081.0,square2,i,1.4963,1,N,7.0
NS7,55.0,40.0,51.0,60.0,54.0,51,3132.0,square2,i,0.165,1,N,7.0
NS7,56.0,45.0,57.0,63.0,59.0,57,3189.0,square2,i,0.182,1,N,7.0
NS7,57.0,42.0,49.0,64.0,53.0,49,3238.0,square2,i,0.5511,1,N,7.0
NS7,58.0,39.0,49.0,62.0,52.0,49,3287.0,square2,i,0.5822,1,N,7.0
NS7,59.0,47.0,49.0,67.0,54.0,49,3336.0,square2,i,0.0024,1,N,7.0
NS7,60.0,43.0,53.0,70.0,55.0,53,3389.0,square2,i,0.1881,1,N,7.0
NS7,61.0,41.0,48.0,69.0,52.0,48,3437.0,square2,i,0.0356,1,N,7.0
NS7,62.0,39.0,48.0,65.0,54.0,48,3485.0,square2,i,0.0201,1,N,7.0
NS7,63.0,38.0,48.0,64.0,56.0,48,3533.0,square2,i,0.1729,1,N,7.0
NS7,64.0,34.0,46.0,65.0,51.0,51,3584.0,square4,r,0.0024,3,N,7.0
NS7,65.0,43.0,51.0,63.0,53.0,53,3637.0,square4,r,0.0063,3,N,7.0
NS7,66.0,41.0,51.0,64.0,50.0,50,3687.0,square4,r,0.1853,3,N,7.0
NS7,67.0,44.0,51.0,63.0,54.0,51,3738.0,square2,i,0.2516,1,N,7.0
NS7,68.0,42.0,49.0,62.0,48.0,48,3786.0,square4,r,0.0394,3,N,7.0
NS7,69.0,41.0,50.0,63.0,52.0,63,3849.0,square3,j,0.4311,2,N,7.0
NS7,70.0,45.0,45.0,59.0,53.0,59,3908.0,square3,j,0.2794,2,N,7.0
NS7,71.0,44.0,40.0,52.0,52.0,52,3960.0,square3,j,0.1002,2,N,7.0
NS7,72.0,51.0,38.0,55.0,47.0,55,4015.0,square3,j,0.0977,2,N,7.0
NS7,73.0,42.0,36.0,49.0,47.0,49,4064.0,square3,j,0.0821,2,N,7.0
NS7,74.0,44.0,40.0,46.0,48.0,44,4108.0,square1,f,0.0814,0,N,7.0
NS7,75.0,46.0,38.0,45.0,53.0,45,4153.0,square3,j,0.002,2,N,7.0
NS7,76.0,48.0,44.0,40.0,53.0,40,4193.0,square3,j,0.0827,2,N,7.0
NS7,77.0,45.0,42.0,40.0,55.0,42,4235.0,square2,i,0.0678,1,N,7.0
NS7,78.0,41.0,39.0,40.0,56.0,39,4274.0,square2,i,0.1372,1,N,7.0
NS7,79.0,44.0,38.0,41.0,55.0,41,4315.0,square3,j,0.4165,2,N,7.0
NS7,80.0,48.0,49.0,48.0,62.0,62,4377.0,square4,r,0.0843,3,N,7.0
NS7,81.0,44.0,47.0,43.0,61.0,61,4438.0,square4,r,0.1351,3,N,7.0
NS7,82.0,45.0,46.0,38.0,54.0,54,4492.0,square4,r,0.2661,3,N,7.0
NS7,83.0,44.0,40.0,41.0,57.0,57,4549.0,square4,r,0.173,3,N,7.0
NS7,84.0,47.0,46.0,41.0,53.0,53,4602.0,square4,r,0.1997,3,N,7.0
NS7,85.0,50.0,45.0,45.0,54.0,54,4656.0,square4,r,0.0023,3,N,7.0
NS7,86.0,45.0,43.0,44.0,54.0,54,4710.0,square4,r,0.2335,3,N,7.0
NS7,87.0,43.0,47.0,49.0,55.0,55,4765.0,square4,r,0.0352,3,N,7.0
NS7,88.0,40.0,48.0,44.0,58.0,58,4823.0,square4,r,0.0025,3,N,7.0
NS7,89.0,40.0,44.0,47.0,54.0,54,4877.0,square4,r,0.8821,3,N,7.0
NS7,90.0,38.0,43.0,48.0,55.0,99999,4877.0,invalid,,,-1,N,7.0
NS7,91.0,36.0,45.0,43.0,55.0,36,4913.0,square1,f,1.122,0,N,7.0
NS7,92.0,29.0,44.0,45.0,53.0,29,4942.0,square1,f,0.0705,0,N,7.0
NS7,93.0,33.0,46.0,44.0,57.0,44,4986.0,square3,j,1.5185,2,N,7.0
NS7,94.0,32.0,43.0,52.0,47.0,43,5029.0,square2,i,0.0234,1,N,7.0
NS7,95.0,41.0,46.0,50.0,51.0,51,5080.0,square4,r,0.0022,3,N,7.0
NS7,96.0,38.0,41.0,46.0,52.0,52,5132.0,square4,r,0.1352,3,N,7.0
NS7,97.0,41.0,44.0,40.0,52.0,52,5184.0,square4,r,0.077,3,N,7.0
NS7,98.0,45.0,41.0,41.0,55.0,55,5239.0,square4,r,0.3355,3,N,7.0
NS7,99.0,39.0,41.0,39.0,53.0,53,5292.0,square4,r,0.2176,3,N,7.0
NS8,0.0,61.0,62.0,34.0,32.0,34,34.0,square3,r,1.1065,2,N,8.0
NS8,1.0,57.0,56.0,38.0,27.0,27,61.0,square4,i,0.1639,3,N,8.0
NS8,2.0,66.0,55.0,42.0,28.0,66,127.0,square1,j,0.0511,0,N,8.0
NS8,3.0,67.0,51.0,37.0,28.0,67,194.0,square1,j,0.0363,0,N,8.0
NS8,4.0,65.0,53.0,38.0,32.0,65,259.0,square1,j,0.0512,0,N,8.0
NS8,5.0,67.0,52.0,43.0,33.0,67,326.0,square1,j,0.2351,0,N,8.0
NS8,6.0,56.0,47.0,41.0,36.0,56,382.0,square1,j,0.1849,0,N,8.0
NS8,7.0,58.0,46.0,37.0,31.0,46,428.0,square2,f,0.0397,1,N,8.0
NS8,8.0,60.0,58.0,36.0,35.0,60,488.0,square1,j,0.0685,0,N,8.0
NS8,9.0,60.0,66.0,41.0,39.0,60,548.0,square1,j,0.2224,0,N,8.0
NS8,10.0,60.0,60.0,36.0,33.0,60,608.0,square1,j,0.0831,0,N,8.0
NS8,11.0,53.0,63.0,32.0,35.0,53,661.0,square1,j,0.0681,0,N,8.0
NS8,12.0,51.0,60.0,32.0,29.0,51,712.0,square1,j,0.0849,0,N,8.0
NS8,13.0,53.0,65.0,30.0,32.0,53,765.0,square1,j,0.0887,0,N,8.0
NS8,14.0,56.0,69.0,25.0,33.0,56,821.0,square1,j,0.0018,0,N,8.0
NS8,15.0,57.0,71.0,29.0,35.0,57,878.0,square1,j,0.1046,0,N,8.0
NS8,16.0,55.0,64.0,31.0,33.0,55,933.0,square1,j,0.0022,0,N,8.0
NS8,17.0,48.0,65.0,29.0,32.0,48,981.0,square1,j,0.2388,0,N,8.0
NS8,18.0,44.0,64.0,28.0,34.0,44,1025.0,square1,j,0.073,0,N,8.0
NS8,19.0,46.0,60.0,26.0,33.0,46,1071.0,square1,j,0.0427,0,N,8.0
NS8,20.0,41.0,58.0,29.0,35.0,41,1112.0,square1,j,0.1664,0,N,8.0
NS8,21.0,45.0,57.0,29.0,35.0,45,1157.0,square1,j,0.0519,0,N,8.0
NS8,22.0,47.0,53.0,32.0,32.0,47,1204.0,square1,j,0.1354,0,N,8.0
NS8,23.0,49.0,52.0,33.0,35.0,35,1239.0,square4,i,0.2169,3,N,8.0
NS8,24.0,56.0,53.0,30.0,37.0,37,1276.0,square4,i,0.0352,3,N,8.0
NS8,25.0,57.0,48.0,28.0,42.0,28,1304.0,square3,r,0.0727,2,N,8.0
NS8,26.0,52.0,48.0,33.0,43.0,52,1356.0,square1,j,0.0241,0,N,8.0
NS8,27.0,53.0,45.0,28.0,47.0,45,1401.0,square2,f,0.041,1,N,8.0
NS8,28.0,50.0,43.0,27.0,41.0,43,1444.0,square2,f,0.215,1,N,8.0
NS8,29.0,53.0,52.0,29.0,43.0,53,1497.0,square1,j,0.2346,0,N,8.0
NS8,30.0,54.0,51.0,30.0,41.0,54,1551.0,square1,j,0.1753,0,N,8.0
NS8,31.0,50.0,50.0,31.0,42.0,50,1601.0,square1,j,0.299,0,N,8.0
NS8,32.0,50.0,50.0,35.0,43.0,50,1651.0,square1,j,0.0977,0,N,8.0
NS8,33.0,46.0,48.0,39.0,41.0,46,1697.0,square1,j,0.0641,0,N,8.0
NS8,34.0,47.0,46.0,41.0,40.0,47,1744.0,square1,j,0.4027,0,N,8.0
NS8,35.0,57.0,45.0,36.0,37.0,57,1801.0,square1,j,0.3686,0,N,8.0
NS8,36.0,53.0,49.0,41.0,38.0,53,1854.0,square1,j,0.4018,0,N,8.0
NS8,37.0,57.0,50.0,41.0,39.0,57,1911.0,square1,j,0.002,0,N,8.0
NS8,38.0,61.0,51.0,39.0,43.0,61,1972.0,square1,j,0.5213,0,N,8.0
NS8,39.0,59.0,54.0,41.0,36.0,59,2031.0,square1,j,0.4071,0,N,8.0
NS8,40.0,53.0,55.0,47.0,40.0,53,2084.0,square1,j,0.0018,0,N,8.0
NS8,41.0,53.0,55.0,43.0,39.0,53,2137.0,square1,j,0.1979,0,N,8.0
NS8,42.0,59.0,55.0,45.0,40.0,59,2196.0,square1,j,0.1995,0,N,8.0
NS8,43.0,54.0,46.0,51.0,37.0,54,2250.0,square1,j,0.1804,0,N,8.0
NS8,44.0,56.0,44.0,50.0,35.0,56,2306.0,square1,j,0.3648,0,N,8.0
NS8,45.0,51.0,46.0,41.0,37.0,51,2357.0,square1,j,0.1645,0,N,8.0
NS8,46.0,52.0,43.0,44.0,34.0,52,2409.0,square1,j,0.0673,0,N,8.0
NS8,47.0,46.0,41.0,36.0,37.0,46,2455.0,square1,j,0.1792,0,N,8.0
NS8,48.0,47.0,46.0,39.0,37.0,47,2502.0,square1,j,0.1311,0,N,8.0
NS8,49.0,48.0,36.0,38.0,40.0,48,2550.0,square1,j,0.2462,0,N,8.0
NS8,50.0,51.0,37.0,36.0,46.0,51,2601.0,square1,j,0.2306,0,N,8.0
NS8,51.0,53.0,38.0,40.0,43.0,53,2654.0,square1,j,0.017,0,N,8.0
NS8,52.0,47.0,32.0,37.0,44.0,47,2701.0,square1,j,0.1304,0,N,8.0
NS8,53.0,52.0,31.0,38.0,46.0,52,2753.0,square1,j,0.3988,0,N,8.0
NS8,54.0,44.0,34.0,40.0,45.0,44,2797.0,square1,j,0.1636,0,N,8.0
NS8,55.0,46.0,26.0,37.0,41.0,46,2843.0,square1,j,0.0972,0,N,8.0
NS8,56.0,42.0,29.0,36.0,40.0,42,2885.0,square1,j,0.1615,0,N,8.0
NS8,57.0,39.0,21.0,39.0,40.0,39,2924.0,square1,j,0.0987,0,N,8.0
NS8,58.0,42.0,18.0,39.0,40.0,42,2966.0,square1,j,0.0665,0,N,8.0
NS8,59.0,46.0,16.0,41.0,39.0,46,3012.0,square1,j,0.315,0,N,8.0
NS8,60.0,45.0,20.0,40.0,39.0,45,3057.0,square1,j,0.2302,0,N,8.0
NS8,61.0,45.0,26.0,42.0,39.0,45,3102.0,square1,j,0.0977,0,N,8.0
NS8,62.0,46.0,21.0,45.0,37.0,46,3148.0,square1,j,0.0493,0,N,8.0
NS8,63.0,50.0,23.0,40.0,38.0,50,3198.0,square1,j,0.0327,0,N,8.0
NS8,64.0,46.0,24.0,41.0,33.0,46,3244.0,square1,j,0.085,0,N,8.0
NS8,65.0,48.0,28.0,42.0,32.0,48,3292.0,square1,j,0.048,0,N,8.0
NS8,66.0,47.0,20.0,40.0,35.0,47,3339.0,square1,j,0.446,0,N,8.0
NS8,67.0,49.0,25.0,46.0,34.0,49,3388.0,square1,j,0.1136,0,N,8.0
NS8,68.0,47.0,24.0,45.0,33.0,47,3435.0,square1,j,0.0495,0,N,8.0
NS8,69.0,45.0,21.0,47.0,35.0,45,3480.0,square1,j,0.0023,0,N,8.0
NS8,70.0,44.0,21.0,47.0,37.0,44,3524.0,square1,j,0.7958,0,N,8.0
NS8,71.0,44.0,15.0,41.0,38.0,44,3568.0,square1,j,0.4333,0,N,8.0
NS8,72.0,47.0,19.0,49.0,40.0,47,3615.0,square1,j,0.2811,0,N,8.0
NS8,73.0,39.0,21.0,53.0,38.0,39,3654.0,square1,j,0.2297,0,N,8.0
NS8,74.0,42.0,19.0,53.0,35.0,42,3696.0,square1,j,0.0299,0,N,8.0
NS8,75.0,37.0,18.0,43.0,35.0,37,3733.0,square1,j,0.1628,0,N,8.0
NS8,76.0,35.0,14.0,42.0,38.0,35,3768.0,square1,j,0.2177,0,N,8.0
NS8,77.0,38.0,19.0,47.0,44.0,44,3812.0,square4,i,0.1801,3,N,8.0
NS8,78.0,38.0,18.0,50.0,46.0,46,3858.0,square4,i,0.0017,3,N,8.0
NS8,79.0,33.0,22.0,54.0,44.0,44,3902.0,square4,i,0.0016,3,N,8.0
NS8,80.0,38.0,21.0,56.0,52.0,52,3954.0,square4,i,0.0642,3,N,8.0
NS8,81.0,37.0,22.0,56.0,43.0,56,4010.0,square3,r,0.0485,2,N,8.0
NS8,82.0,30.0,26.0,60.0,42.0,60,4070.0,square3,r,0.1815,2,N,8.0
NS8,83.0,38.0,22.0,54.0,46.0,54,4124.0,square3,r,0.234,2,N,8.0
NS8,84.0,33.0,18.0,52.0,46.0,52,4176.0,square3,r,0.0494,2,N,8.0
NS8,85.0,42.0,12.0,57.0,48.0,57,4233.0,square3,r,0.2137,2,N,8.0
NS8,86.0,45.0,19.0,58.0,42.0,58,4291.0,square3,r,0.0308,2,N,8.0
NS8,87.0,46.0,10.0,65.0,44.0,65,4356.0,square3,r,0.1131,2,N,8.0
NS8,88.0,45.0,11.0,59.0,45.0,59,4415.0,square3,r,0.2636,2,N,8.0
NS8,89.0,42.0,11.0,60.0,47.0,60,4475.0,square3,r,0.2822,2,N,8.0
NS8,90.0,40.0,7.0,64.0,49.0,64,4539.0,square3,r,0.1653,2,N,8.0
NS8,91.0,42.0,11.0,64.0,48.0,64,4603.0,square3,r,0.1295,2,N,8.0
NS8,92.0,43.0,13.0,60.0,43.0,60,4663.0,square3,r,0.014,2,N,8.0
NS8,93.0,44.0,12.0,64.0,45.0,64,4727.0,square3,r,0.2311,2,N,8.0
NS8,94.0,45.0,16.0,65.0,49.0,65,4792.0,square3,r,0.2156,2,N,8.0
NS8,95.0,45.0,24.0,66.0,42.0,66,4858.0,square3,r,1.1189,2,N,8.0
NS8,96.0,53.0,27.0,67.0,44.0,67,4925.0,square3,r,0.3145,2,N,8.0
NS8,97.0,50.0,29.0,68.0,43.0,68,4993.0,square3,r,0.0136,2,N,8.0
NS8,98.0,52.0,29.0,66.0,37.0,66,5059.0,square3,r,0.6144,2,N,8.0
NS8,99.0,53.0,32.0,65.0,37.0,65,5124.0,square3,r,0.0497,2,N,8.0
NS6,0.0,68.0,18.0,30.0,58.0,30,30.0,square3,i,0.3675,2,N,6.0
NS6,1.0,62.0,23.0,38.0,67.0,62,92.0,square1,r,0.0643,0,N,6.0
NS6,2.0,59.0,30.0,33.0,67.0,59,151.0,square1,r,0.0518,0,N,6.0
NS6,3.0,62.0,27.0,39.0,65.0,62,213.0,square1,r,0.1492,0,N,6.0
NS6,4.0,65.0,22.0,32.0,67.0,65,278.0,square1,r,0.2995,0,N,6.0
NS6,5.0,61.0,28.0,39.0,67.0,61,339.0,square1,r,0.2637,0,N,6.0
NS6,6.0,59.0,28.0,39.0,66.0,59,398.0,square1,r,0.282,0,N,6.0
NS6,7.0,56.0,30.0,43.0,63.0,56,454.0,square1,r,0.2804,0,N,6.0
NS6,8.0,57.0,26.0,36.0,60.0,57,511.0,square1,r,0.201,0,N,6.0
NS6,9.0,51.0,30.0,38.0,65.0,51,562.0,square1,r,0.0157,0,N,6.0
NS6,10.0,46.0,26.0,41.0,61.0,46,608.0,square1,r,0.3157,0,N,6.0
NS6,11.0,46.0,30.0,40.0,58.0,46,654.0,square1,r,0.324,0,N,6.0
NS6,12.0,44.0,27.0,41.0,56.0,44,698.0,square1,r,0.0514,0,N,6.0
NS6,13.0,41.0,32.0,44.0,54.0,41,739.0,square1,r,0.1758,0,N,6.0
NS6,14.0,45.0,36.0,41.0,51.0,45,784.0,square1,r,0.021,0,N,6.0
NS6,15.0,37.0,34.0,39.0,54.0,37,821.0,square1,r,0.0164,0,N,6.0
NS6,16.0,36.0,37.0,39.0,48.0,36,857.0,square1,r,0.058,0,N,6.0
NS6,17.0,41.0,39.0,36.0,45.0,41,898.0,square1,r,0.0496,0,N,6.0
NS6,18.0,39.0,38.0,29.0,48.0,39,937.0,square1,r,0.1844,0,N,6.0
NS6,19.0,35.0,40.0,32.0,46.0,35,972.0,square1,r,0.7343,0,N,6.0
NS6,20.0,41.0,40.0,28.0,55.0,41,1013.0,square1,r,0.1022,0,N,6.0
NS6,21.0,45.0,44.0,27.0,54.0,45,1058.0,square1,r,0.1647,0,N,6.0
NS6,22.0,44.0,51.0,31.0,53.0,44,1102.0,square1,r,0.2474,0,N,6.0
NS6,23.0,44.0,50.0,29.0,53.0,44,1146.0,square1,r,0.0994,0,N,6.0
NS6,24.0,49.0,49.0,35.0,55.0,49,1195.0,square1,r,0.2981,0,N,6.0
NS6,25.0,44.0,51.0,36.0,56.0,44,1239.0,square1,r,0.0812,0,N,6.0
NS6,26.0,43.0,46.0,38.0,58.0,43,1282.0,square1,r,0.399,0,N,6.0
NS6,27.0,41.0,44.0,41.0,59.0,41,1323.0,square1,r,0.0643,0,N,6.0
NS6,28.0,38.0,47.0,39.0,58.0,47,1370.0,square2,j,0.1633,1,N,6.0
NS6,29.0,39.0,46.0,37.0,54.0,46,1416.0,square2,j,0.0977,1,N,6.0
NS6,30.0,36.0,49.0,40.0,53.0,49,1465.0,square2,j,0.08,1,N,6.0
NS6,31.0,37.0,45.0,36.0,55.0,36,1501.0,square3,i,0.1972,2,N,6.0
NS6,32.0,42.0,42.0,40.0,56.0,56,1557.0,square4,f,0.565,3,N,6.0
NS6,33.0,33.0,44.0,32.0,53.0,53,1610.0,square4,f,0.0311,3,N,6.0
NS6,34.0,32.0,42.0,36.0,49.0,49,1659.0,square4,f,0.0974,3,N,6.0
NS6,35.0,35.0,28.0,38.0,51.0,51,1710.0,square4,f,0.0326,3,N,6.0
NS6,36.0,38.0,28.0,35.0,52.0,52,1762.0,square4,f,0.1473,3,N,6.0
NS6,37.0,44.0,31.0,37.0,55.0,55,1817.0,square4,f,0.3301,3,N,6.0
NS6,38.0,36.0,31.0,36.0,54.0,54,1871.0,square4,f,0.2198,3,N,6.0
NS6,39.0,40.0,29.0,41.0,60.0,60,1931.0,square4,f,0.2475,3,N,6.0
NS6,40.0,46.0,33.0,36.0,62.0,62,1993.0,square4,f,0.098,3,N,6.0
NS6,41.0,44.0,38.0,34.0,63.0,63,2056.0,square4,f,0.1129,3,N,6.0
NS6,42.0,43.0,32.0,29.0,59.0,59,2115.0,square4,f,0.2644,3,N,6.0
NS6,43.0,47.0,29.0,38.0,61.0,61,2176.0,square4,f,0.2296,3,N,6.0
NS6,44.0,49.0,33.0,36.0,56.0,56,2232.0,square4,f,0.4479,3,N,6.0
NS6,45.0,51.0,29.0,32.0,60.0,60,2292.0,square4,f,0.0018,3,N,6.0
NS6,46.0,52.0,36.0,41.0,64.0,64,2356.0,square4,f,0.0797,3,N,6.0
NS6,47.0,55.0,35.0,46.0,60.0,60,2416.0,square4,f,0.1302,3,N,6.0
NS6,48.0,57.0,34.0,40.0,64.0,64,2480.0,square4,f,0.5141,3,N,6.0
NS6,49.0,54.0,37.0,42.0,59.0,59,2539.0,square4,f,0.066,3,N,6.0
NS6,50.0,58.0,40.0,35.0,51.0,51,2590.0,square4,f,0.181,3,N,6.0
NS6,51.0,64.0,35.0,36.0,53.0,53,2643.0,square4,f,0.0159,3,N,6.0
NS6,52.0,60.0,37.0,30.0,52.0,52,2695.0,square4,f,0.1143,3,N,6.0
NS6,53.0,63.0,40.0,30.0,54.0,54,2749.0,square4,f,0.0018,3,N,6.0
NS6,54.0,60.0,37.0,30.0,53.0,53,2802.0,square4,f,0.0999,3,N,6.0
NS6,55.0,57.0,40.0,29.0,50.0,50,2852.0,square4,f,0.0832,3,N,6.0
NS6,56.0,58.0,30.0,30.0,46.0,99999,2852.0,invalid,,,-1,N,6.0
NS6,57.0,64.0,34.0,31.0,45.0,99999,2852.0,invalid,,,-1,N,6.0
NS6,58.0,66.0,31.0,34.0,48.0,99999,2852.0,invalid,,,-1,N,6.0
NS6,59.0,68.0,31.0,35.0,44.0,99999,2852.0,invalid,,,-1,N,6.0
NS6,60.0,65.0,28.0,27.0,49.0,99999,2852.0,invalid,,,-1,N,6.0
NS6,61.0,67.0,29.0,25.0,47.0,99999,2852.0,invalid,,,-1,N,6.0
NS6,62.0,67.0,31.0,27.0,41.0,99999,2852.0,invalid,,,-1,N,6.0
NS6,63.0,69.0,32.0,24.0,45.0,99999,2852.0,invalid,,,-1,N,6.0
NS6,64.0,72.0,41.0,30.0,50.0,99999,2852.0,invalid,,,-1,N,6.0
NS6,65.0,75.0,35.0,33.0,50.0,99999,2852.0,invalid,,,-1,N,6.0
NS6,66.0,71.0,37.0,26.0,49.0,99999,2852.0,invalid,,,-1,N,6.0
NS6,67.0,74.0,34.0,21.0,49.0,99999,2852.0,invalid,,,-1,N,6.0
NS6,68.0,81.0,37.0,27.0,50.0,99999,2852.0,invalid,,,-1,N,6.0
NS6,69.0,80.0,31.0,25.0,49.0,99999,2852.0,invalid,,,-1,N,6.0
NS6,70.0,83.0,33.0,31.0,46.0,99999,2852.0,invalid,,,-1,N,6.0
NS6,71.0,75.0,33.0,34.0,53.0,99999,2852.0,invalid,,,-1,N,6.0
NS6,72.0,73.0,39.0,32.0,55.0,99999,2852.0,invalid,,,-1,N,6.0
NS6,73.0,74.0,40.0,33.0,53.0,33,2885.0,square3,i,0.8199,2,N,6.0
NS6,74.0,73.0,46.0,32.0,50.0,32,2917.0,square3,i,0.1799,2,N,6.0
NS6,75.0,71.0,40.0,32.0,49.0,40,2957.0,square2,j,0.046,1,N,6.0
NS6,76.0,65.0,43.0,31.0,56.0,56,3013.0,square4,f,0.1295,3,N,6.0
NS6,77.0,66.0,41.0,33.0,56.0,56,3069.0,square4,f,0.2307,3,N,6.0
NS6,78.0,71.0,40.0,38.0,64.0,64,3133.0,square4,f,0.0624,3,N,6.0
NS6,79.0,69.0,36.0,35.0,62.0,62,3195.0,square4,f,0.1288,3,N,6.0
NS6,80.0,69.0,34.0,37.0,69.0,69,3264.0,square4,f,0.1627,3,N,6.0
NS6,81.0,70.0,37.0,37.0,71.0,71,3335.0,square4,f,0.0297,3,N,6.0
NS6,82.0,68.0,38.0,39.0,66.0,66,3401.0,square4,f,0.1161,3,N,6.0
NS6,83.0,69.0,42.0,41.0,73.0,73,3474.0,square4,f,0.2796,3,N,6.0
NS6,84.0,62.0,42.0,42.0,70.0,70,3544.0,square4,f,0.2313,3,N,6.0
NS6,85.0,57.0,45.0,42.0,77.0,77,3621.0,square4,f,0.2301,3,N,6.0
NS6,86.0,58.0,47.0,44.0,70.0,70,3691.0,square4,f,0.0316,3,N,6.0
NS6,87.0,62.0,44.0,52.0,73.0,73,3764.0,square4,f,0.1797,3,N,6.0
NS6,88.0,62.0,45.0,47.0,72.0,72,3836.0,square4,f,0.1466,3,N,6.0
NS6,89.0,59.0,50.0,47.0,73.0,73,3909.0,square4,f,0.0309,3,N,6.0
NS6,90.0,55.0,45.0,44.0,68.0,68,3977.0,square4,f,0.3629,3,N,6.0
NS6,91.0,55.0,51.0,47.0,67.0,67,4044.0,square4,f,0.3492,3,N,6.0
NS6,92.0,62.0,52.0,35.0,69.0,69,4113.0,square4,f,0.2304,3,N,6.0
NS6,93.0,59.0,47.0,32.0,68.0,68,4181.0,square4,f,0.1014,3,N,6.0
NS6,94.0,67.0,53.0,44.0,66.0,66,4247.0,square4,f,0.0821,3,N,6.0
NS6,95.0,71.0,44.0,47.0,66.0,66,4313.0,square4,f,0.1307,3,N,6.0
NS6,96.0,68.0,53.0,47.0,66.0,66,4379.0,square4,f,0.0154,3,N,6.0
NS6,97.0,65.0,49.0,44.0,64.0,64,4443.0,square4,f,0.2474,3,N,6.0
NS6,98.0,66.0,54.0,55.0,57.0,57,4500.0,square4,f,0.0021,3,N,6.0
NS6,99.0,69.0,57.0,51.0,56.0,56,4556.0,square4,f,0.1825,3,N,6.0
V10,0.0,28.0,21.0,37.0,46.0,99999,0.0,invalid,,,-1,V,10.0
V10,1.0,26.0,19.0,41.0,49.0,49,49.0,square4,r,0.4317,3,V,10.0
V10,2.0,29.0,20.0,43.0,48.0,48,97.0,square4,r,0.3676,3,V,10.0
V10,3.0,27.0,27.0,37.0,44.0,44,141.0,square4,r,0.1845,3,V,10.0
V10,4.0,28.0,16.0,36.0,47.0,47,188.0,square4,r,0.1308,3,V,10.0
V10,5.0,33.0,25.0,42.0,54.0,33,221.0,square1,i,0.2964,0,V,10.0
V10,6.0,28.0,19.0,35.0,45.0,35,256.0,square3,j,0.1318,2,V,10.0
V10,7.0,30.0,24.0,35.0,49.0,24,280.0,square2,f,0.516,1,V,10.0
V10,8.0,37.0,29.0,41.0,47.0,47,327.0,square4,r,0.8302,3,V,10.0
V10,9.0,28.0,21.0,41.0,48.0,48,375.0,square4,r,0.0959,3,V,10.0
V10,10.0,27.0,22.0,39.0,42.0,42,417.0,square4,r,0.0462,3,V,10.0
V10,11.0,32.0,16.0,41.0,48.0,48,465.0,square4,r,0.0824,3,V,10.0
V10,12.0,34.0,15.0,33.0,49.0,34,499.0,square1,i,0.133,0,V,10.0
V10,13.0,36.0,19.0,41.0,45.0,45,544.0,square4,r,0.1849,3,V,10.0
V10,14.0,28.0,23.0,35.0,53.0,53,597.0,square4,r,0.0832,3,V,10.0
V10,15.0,26.0,28.0,40.0,50.0,50,647.0,square4,r,0.1998,3,V,10.0
V10,16.0,30.0,25.0,42.0,47.0,47,694.0,square4,r,0.0813,3,V,10.0
V10,17.0,31.0,19.0,38.0,50.0,50,744.0,square4,r,0.1164,3,V,10.0
V10,18.0,34.0,21.0,35.0,48.0,48,792.0,square4,r,0.1397,3,V,10.0
V10,19.0,31.0,24.0,39.0,46.0,46,838.0,square4,r,0.2682,3,V,10.0
V10,20.0,28.0,22.0,42.0,47.0,47,885.0,square4,r,0.0089,3,V,10.0
V10,21.0,24.0,20.0,41.0,47.0,47,932.0,square4,r,0.0165,3,V,10.0
V10,22.0,32.0,22.0,34.0,44.0,44,976.0,square4,r,0.1653,3,V,10.0
V10,23.0,29.0,23.0,37.0,47.0,47,1023.0,square4,r,0.0357,3,V,10.0
V10,24.0,25.0,25.0,38.0,46.0,46,1069.0,square4,r,0.0935,3,V,10.0
V10,25.0,30.0,24.0,41.0,45.0,45,1114.0,square4,r,0.1516,3,V,10.0
V10,26.0,32.0,17.0,38.0,49.0,49,1163.0,square4,r,0.1185,3,V,10.0
V10,27.0,34.0,21.0,38.0,47.0,47,1210.0,square4,r,0.0843,3,V,10.0
V10,28.0,29.0,21.0,37.0,45.0,45,1255.0,square4,r,0.253,3,V,10.0
V10,29.0,30.0,20.0,31.0,47.0,47,1302.0,square4,r,0.1474,3,V,10.0
V10,30.0,28.0,21.0,35.0,44.0,44,1346.0,square4,r,0.0021,3,V,10.0
V10,31.0,36.0,25.0,14.0,8.0,8,1354.0,square4,r,0.2178,3,V,10.0
V10,32.0,38.0,27.0,19.0,11.0,11,1365.0,square4,r,0.2859,3,V,10.0
V10,33.0,39.0,21.0,20.0,13.0,13,1378.0,square4,r,0.3159,3,V,10.0
V10,34.0,34.0,24.0,20.0,10.0,10,1388.0,square4,r,0.2684,3,V,10.0
V10,35.0,44.0,29.0,17.0,11.0,44,1432.0,square1,i,0.7517,0,V,10.0
V10,36.0,33.0,30.0,17.0,9.0,33,1465.0,square1,i,0.2348,0,V,10.0
V10,37.0,31.0,27.0,12.0,6.0,12,1477.0,square3,j,0.0522,2,V,10.0
V10,38.0,34.0,29.0,15.0,10.0,29,1506.0,square2,f,0.2501,1,V,10.0
V10,39.0,35.0,21.0,19.0,5.0,21,1527.0,square2,f,0.0024,1,V,10.0
V10,40.0,32.0,26.0,18.0,6.0,6,1533.0,square4,r,0.152,3,V,10.0
V10,41.0,34.0,32.0,13.0,9.0,34,1567.0,square1,i,0.1027,0,V,10.0
V10,42.0,35.0,30.0,16.0,8.0,35,1602.0,square1,i,0.1672,0,V,10.0
V10,43.0,38.0,32.0,16.0,8.0,38,1640.0,square1,i,0.1345,0,V,10.0
V10,44.0,34.0,20.0,18.0,3.0,34,1674.0,square1,i,0.3907,0,V,10.0
V10,45.0,38.0,22.0,23.0,9.0,38,1712.0,square1,i,0.1493,0,V,10.0
V10,46.0,36.0,28.0,16.0,10.0,16,1728.0,square3,j,0.1517,2,V,10.0
V10,47.0,36.0,27.0,13.0,8.0,8,1736.0,square4,r,0.6401,3,V,10.0
V10,48.0,35.0,27.0,14.0,12.0,27,1763.0,square2,f,0.0025,1,V,10.0
V10,49.0,33.0,28.0,16.0,10.0,28,1791.0,square2,f,0.2522,1,V,10.0
V10,50.0,31.0,29.0,19.0,8.0,31,1822.0,square1,i,0.0691,0,V,10.0
V10,51.0,32.0,21.0,20.0,12.0,32,1854.0,square1,i,0.1183,0,V,10.0
V10,52.0,29.0,25.0,21.0,10.0,29,1883.0,square1,i,0.002,0,V,10.0
V10,53.0,39.0,29.0,23.0,2.0,23,1906.0,square3,j,0.2005,2,V,10.0
V10,54.0,33.0,28.0,19.0,7.0,19,1925.0,square3,j,0.1419,2,V,10.0
V10,55.0,34.0,24.0,15.0,8.0,15,1940.0,square3,j,1.5511,2,V,10.0
V10,56.0,35.0,20.0,21.0,9.0,20,1960.0,square2,f,0.0023,1,V,10.0
V10,57.0,33.0,27.0,19.0,7.0,33,1993.0,square1,i,0.0772,0,V,10.0
V10,58.0,38.0,24.0,16.0,7.0,38,2031.0,square1,i,0.1136,0,V,10.0
V10,59.0,34.0,29.0,15.0,5.0,34,2065.0,square1,i,0.118,0,V,10.0
V10,60.0,34.0,22.0,19.0,9.0,34,2099.0,square1,i,0.2016,0,V,10.0
V10,61.0,39.0,31.0,20.0,10.0,39,2138.0,square1,i,0.0016,0,V,10.0
V10,62.0,35.0,24.0,18.0,6.0,35,2173.0,square1,i,0.1486,0,V,10.0
V10,63.0,35.0,26.0,18.0,9.0,35,2208.0,square1,i,0.1171,0,V,10.0
V10,64.0,31.0,55.0,23.0,23.0,31,2239.0,square1,i,0.1493,0,V,10.0
V10,65.0,35.0,50.0,22.0,27.0,35,2274.0,square1,i,0.201,0,V,10.0
V10,66.0,35.0,53.0,25.0,29.0,35,2309.0,square1,i,0.1011,0,V,10.0
V10,67.0,38.0,44.0,17.0,29.0,38,2347.0,square1,i,0.1302,0,V,10.0
V10,68.0,36.0,48.0,22.0,27.0,36,2383.0,square1,i,0.1031,0,V,10.0
V10,69.0,41.0,53.0,17.0,28.0,41,2424.0,square1,i,0.1021,0,V,10.0
V10,70.0,40.0,48.0,23.0,28.0,40,2464.0,square1,i,0.2492,0,V,10.0
V10,71.0,39.0,43.0,24.0,20.0,39,2503.0,square1,i,0.0323,0,V,10.0
V10,72.0,36.0,49.0,19.0,25.0,36,2539.0,square1,i,0.0164,0,V,10.0
V10,73.0,39.0,49.0,23.0,32.0,39,2578.0,square1,i,0.0669,0,V,10.0
V10,74.0,36.0,44.0,17.0,29.0,36,2614.0,square1,i,0.1849,0,V,10.0
V10,75.0,37.0,46.0,20.0,30.0,37,2651.0,square1,i,0.1146,0,V,10.0
V10,76.0,38.0,47.0,23.0,30.0,38,2689.0,square1,i,0.1144,0,V,10.0
V10,77.0,36.0,49.0,22.0,32.0,36,2725.0,square1,i,0.0016,0,V,10.0
V10,78.0,41.0,44.0,19.0,27.0,41,2766.0,square1,i,0.3462,0,V,10.0
V10,79.0,41.0,48.0,22.0,27.0,41,2807.0,square1,i,0.2306,0,V,10.0
V10,80.0,34.0,44.0,26.0,29.0,34,2841.0,square1,i,0.1298,0,V,10.0
V10,81.0,38.0,47.0,18.0,29.0,38,2879.0,square1,i,0.1492,0,V,10.0
V10,82.0,43.0,43.0,23.0,28.0,43,2922.0,square1,i,0.1644,0,V,10.0
V10,83.0,34.0,51.0,23.0,26.0,34,2956.0,square1,i,0.0836,0,V,10.0
V10,84.0,36.0,46.0,18.0,25.0,36,2992.0,square1,i,0.1822,0,V,10.0
V10,85.0,39.0,46.0,25.0,26.0,39,3031.0,square1,i,0.2048,0,V,10.0
V10,86.0,39.0,50.0,27.0,27.0,39,3070.0,square1,i,0.2322,0,V,10.0
V10,87.0,38.0,46.0,20.0,30.0,38,3108.0,square1,i,0.0015,0,V,10.0
V10,88.0,37.0,49.0,22.0,28.0,37,3145.0,square1,i,0.3856,0,V,10.0
V10,89.0,34.0,51.0,25.0,26.0,34,3179.0,square1,i,0.0613,0,V,10.0
V10,90.0,41.0,49.0,22.0,29.0,41,3220.0,square1,i,0.0607,0,V,10.0
V10,91.0,37.0,45.0,26.0,32.0,37,3257.0,square1,i,0.0516,0,V,10.0
V10,92.0,42.0,42.0,27.0,28.0,42,3299.0,square1,i,0.0702,0,V,10.0
V10,93.0,41.0,48.0,19.0,36.0,41,3340.0,square1,i,0.2803,0,V,10.0
V10,94.0,43.0,49.0,23.0,31.0,43,3383.0,square1,i,0.0313,0,V,10.0
V10,95.0,39.0,46.0,18.0,27.0,39,3422.0,square1,i,0.1705,0,V,10.0
V10,96.0,37.0,48.0,24.0,27.0,37,3459.0,square1,i,0.0308,0,V,10.0
V10,97.0,42.0,50.0,23.0,31.0,42,3501.0,square1,i,0.1625,0,V,10.0
V10,98.0,33.0,47.0,25.0,32.0,33,3534.0,square1,i,0.0295,0,V,10.0
V10,99.0,39.0,48.0,23.0,32.0,39,3573.0,square1,i,0.002,0,V,10.0
V6,0.0,43.0,59.0,68.0,49.0,59,59.0,square2,i,0.8412,1,V,6.0
V6,1.0,43.0,62.0,71.0,50.0,62,121.0,square2,i,0.0017,1,V,6.0
V6,2.0,48.0,61.0,72.0,51.0,61,182.0,square2,i,0.0766,1,V,6.0
V6,3.0,46.0,55.0,71.0,51.0,55,237.0,square2,i,0.0507,1,V,6.0
V6,4.0,44.0,61.0,74.0,48.0,61,298.0,square2,i,0.136,1,V,6.0
V6,5.0,45.0,62.0,70.0,51.0,62,360.0,square2,i,0.3074,1,V,6.0
V6,6.0,42.0,67.0,73.0,46.0,67,427.0,square2,i,0.4336,1,V,6.0
V6,7.0,44.0,63.0,71.0,53.0,63,490.0,square2,i,0.0506,1,V,6.0
V6,8.0,41.0,62.0,73.0,52.0,62,552.0,square2,i,0.1693,1,V,6.0
V6,9.0,46.0,59.0,72.0,54.0,59,611.0,square2,i,0.1991,1,V,6.0
V6,10.0,45.0,59.0,70.0,53.0,59,670.0,square2,i,0.1514,1,V,6.0
V6,11.0,45.0,60.0,70.0,49.0,60,730.0,square2,i,0.1491,1,V,6.0
V6,12.0,45.0,66.0,64.0,48.0,66,796.0,square2,i,0.0208,1,V,6.0
V6,13.0,45.0,61.0,69.0,47.0,61,857.0,square2,i,0.2687,1,V,6.0
V6,14.0,47.0,60.0,71.0,56.0,60,917.0,square2,i,0.0024,1,V,6.0
V6,15.0,46.0,64.0,67.0,52.0,64,981.0,square2,i,0.3145,1,V,6.0
V6,16.0,50.0,60.0,69.0,54.0,60,1041.0,square2,i,0.0026,1,V,6.0
V6,17.0,43.0,60.0,70.0,53.0,60,1101.0,square2,i,0.1188,1,V,6.0
V6,18.0,46.0,63.0,72.0,55.0,63,1164.0,square2,i,0.0204,1,V,6.0
V6,19.0,46.0,65.0,73.0,51.0,65,1229.0,square2,i,0.0848,1,V,6.0
V6,20.0,44.0,63.0,66.0,51.0,63,1292.0,square2,i,0.0021,1,V,6.0
V6,21.0,43.0,63.0,70.0,49.0,63,1355.0,square2,i,0.4878,1,V,6.0
V6,22.0,45.0,63.0,71.0,50.0,63,1418.0,square2,i,0.1424,1,V,6.0
V6,23.0,45.0,38.0,28.0,60.0,38,1456.0,square2,i,0.2191,1,V,6.0
V6,24.0,46.0,33.0,33.0,53.0,33,1489.0,square2,i,0.032,1,V,6.0
V6,25.0,45.0,36.0,32.0,63.0,36,1525.0,square2,i,0.0021,1,V,6.0
V6,26.0,52.0,37.0,28.0,57.0,37,1562.0,square2,i,0.1299,1,V,6.0
V6,27.0,45.0,33.0,30.0,62.0,62,1624.0,square4,j,0.3793,3,V,6.0
V6,28.0,43.0,37.0,24.0,51.0,51,1675.0,square4,j,0.0487,3,V,6.0
V6,29.0,48.0,39.0,34.0,61.0,61,1736.0,square4,j,0.0962,3,V,6.0
V6,30.0,48.0,44.0,35.0,59.0,59,1795.0,square4,j,0.0091,3,V,6.0
V6,31.0,50.0,39.0,34.0,53.0,53,1848.0,square4,j,0.5062,3,V,6.0
V6,32.0,44.0,33.0,33.0,54.0,54,1902.0,square4,j,0.0673,3,V,6.0
V6,33.0,48.0,37.0,30.0,56.0,56,1958.0,square4,j,0.0869,3,V,6.0
V6,34.0,52.0,37.0,27.0,59.0,59,2017.0,square4,j,0.2512,3,V,6.0
V6,35.0,47.0,32.0,29.0,59.0,59,2076.0,square4,j,0.1325,3,V,6.0
V6,36.0,45.0,37.0,27.0,56.0,56,2132.0,square4,j,0.1183,3,V,6.0
V6,37.0,39.0,37.0,31.0,57.0,57,2189.0,square4,j,0.0508,3,V,6.0
V6,38.0,50.0,38.0,29.0,56.0,56,2245.0,square4,j,0.3002,3,V,6.0
V6,39.0,48.0,37.0,27.0,57.0,57,2302.0,square4,j,0.6837,3,V,6.0
V6,40.0,53.0,37.0,29.0,57.0,57,2359.0,square4,j,0.1487,3,V,6.0
V6,41.0,41.0,34.0,33.0,58.0,58,2417.0,square4,j,0.1685,3,V,6.0
V6,42.0,50.0,37.0,31.0,57.0,57,2474.0,square4,j,0.0024,3,V,6.0
V6,43.0,48.0,34.0,30.0,58.0,58,2532.0,square4,j,0.2402,3,V,6.0
V6,44.0,44.0,37.0,33.0,60.0,60,2592.0,square4,j,0.0647,3,V,6.0
V6,45.0,44.0,32.0,33.0,55.0,55,2647.0,square4,j,0.0984,3,V,6.0
V6,46.0,44.0,36.0,33.0,59.0,59,2706.0,square4,j,0.2628,3,V,6.0
V6,47.0,42.0,34.0,29.0,52.0,52,2758.0,square4,j,0.1629,3,V,6.0
V6,48.0,46.0,41.0,28.0,60.0,60,2818.0,square4,j,0.1816,3,V,6.0
V6,49.0,46.0,40.0,27.0,55.0,55,2873.0,square4,j,0.2134,3,V,6.0
V6,50.0,46.0,41.0,32.0,55.0,55,2928.0,square4,j,0.3307,3,V,6.0
V6,51.0,41.0,39.0,30.0,55.0,55,2983.0,square4,j,0.0474,3,V,6.0
V6,52.0,47.0,37.0,31.0,55.0,55,3038.0,square4,j,0.1473,3,V,6.0
V6,53.0,57.0,36.0,30.0,58.0,58,3096.0,square4,j,0.0473,3,V,6.0
V6,54.0,42.0,38.0,28.0,50.0,50,3146.0,square4,j,0.4299,3,V,6.0
V6,55.0,56.0,42.0,67.0,46.0,46,3192.0,square4,j,0.0122,3,V,6.0
V6,56.0,54.0,37.0,68.0,46.0,46,3238.0,square4,j,1.231,3,V,6.0
V6,57.0,57.0,40.0,64.0,52.0,52,3290.0,square4,j,0.7842,3,V,6.0
V6,58.0,53.0,45.0,68.0,45.0,45,3335.0,square4,j,0.2466,3,V,6.0
V6,59.0,59.0,41.0,69.0,49.0,49,3384.0,square4,j,0.1249,3,V,6.0
V6,60.0,62.0,41.0,71.0,51.0,41,3425.0,square2,i,0.0489,1,V,6.0
V6,61.0,58.0,50.0,72.0,51.0,50,3475.0,square2,i,0.2134,1,V,6.0
V6,62.0,61.0,43.0,65.0,47.0,43,3518.0,square2,i,0.0024,1,V,6.0
V6,63.0,55.0,40.0,67.0,51.0,40,3558.0,square2,i,0.165,1,V,6.0
V6,64.0,56.0,43.0,67.0,47.0,43,3601.0,square2,i,0.3306,1,V,6.0
V6,65.0,62.0,46.0,67.0,48.0,46,3647.0,square2,i,0.3855,1,V,6.0
V6,66.0,55.0,44.0,67.0,48.0,44,3691.0,square2,i,0.0151,1,V,6.0
V6,67.0,61.0,46.0,70.0,49.0,46,3737.0,square2,i,0.0654,1,V,6.0
V6,68.0,63.0,41.0,72.0,46.0,41,3778.0,square2,i,0.2319,1,V,6.0
V6,69.0,59.0,41.0,68.0,48.0,41,3819.0,square2,i,0.6814,1,V,6.0
V6,70.0,59.0,37.0,70.0,45.0,37,3856.0,square2,i,0.2476,1,V,6.0
V6,71.0,83.0,64.0,56.0,70.0,64,3920.0,square2,i,0.1666,1,V,6.0
V6,72.0,82.0,59.0,53.0,75.0,59,3979.0,square2,i,0.2832,1,V,6.0
V6,73.0,85.0,67.0,58.0,73.0,67,4046.0,square2,i,0.1153,1,V,6.0
V6,74.0,79.0,67.0,61.0,73.0,67,4113.0,square2,i,0.1317,1,V,6.0
V6,75.0,84.0,62.0,53.0,69.0,62,4175.0,square2,i,0.1331,1,V,6.0
V6,76.0,81.0,60.0,55.0,76.0,60,4235.0,square2,i,0.1974,1,V,6.0
V6,77.0,84.0,61.0,60.0,72.0,61,4296.0,square2,i,0.2154,1,V,6.0
V6,78.0,90.0,61.0,54.0,74.0,61,4357.0,square2,i,0.0025,1,V,6.0
V6,79.0,80.0,64.0,51.0,75.0,64,4421.0,square2,i,0.1832,1,V,6.0
V6,80.0,85.0,62.0,56.0,78.0,62,4483.0,square2,i,0.4029,1,V,6.0
V6,81.0,86.0,65.0,58.0,69.0,65,4548.0,square2,i,0.2491,1,V,6.0
V6,82.0,83.0,62.0,58.0,77.0,62,4610.0,square2,i,0.9304,1,V,6.0
V6,83.0,87.0,61.0,59.0,70.0,61,4671.0,square2,i,0.2986,1,V,6.0
V6,84.0,89.0,65.0,54.0,78.0,65,4736.0,square2,i,0.1315,1,V,6.0
V6,85.0,78.0,63.0,55.0,75.0,63,4799.0,square2,i,0.2017,1,V,6.0
V6,86.0,87.0,67.0,52.0,75.0,67,4866.0,square2,i,0.2184,1,V,6.0
V6,87.0,86.0,62.0,60.0,75.0,62,4928.0,square2,i,0.1676,1,V,6.0
V6,88.0,79.0,67.0,56.0,76.0,67,4995.0,square2,i,0.0993,1,V,6.0
V6,89.0,83.0,61.0,57.0,75.0,61,5056.0,square2,i,0.234,1,V,6.0
V6,90.0,83.0,67.0,51.0,76.0,67,5123.0,square2,i,0.5314,1,V,6.0
V6,91.0,83.0,63.0,55.0,69.0,63,5186.0,square2,i,0.2644,1,V,6.0
V6,92.0,89.0,56.0,53.0,68.0,56,5242.0,square2,i,0.1479,1,V,6.0
V6,93.0,84.0,61.0,59.0,74.0,61,5303.0,square2,i,0.1311,1,V,6.0
V6,94.0,77.0,58.0,58.0,76.0,58,5361.0,square2,i,0.1313,1,V,6.0
V6,95.0,82.0,60.0,53.0,74.0,60,5421.0,square2,i,0.9499,1,V,6.0
V6,96.0,87.0,61.0,56.0,71.0,61,5482.0,square2,i,0.4318,1,V,6.0
V6,97.0,83.0,66.0,55.0,75.0,66,5548.0,square2,i,0.1641,1,V,6.0
V6,98.0,81.0,63.0,55.0,76.0,99999,5548.0,invalid,,,-1,V,6.0
V6,99.0,92.0,63.0,61.0,78.0,63,5611.0,square2,i,0.3099,1,V,6.0
V5,0.0,46.0,21.0,37.0,28.0,46,46.0,square1,i,0.6234,0,V,5.0
V5,1.0,43.0,27.0,36.0,31.0,43,89.0,square1,i,0.1501,0,V,5.0
V5,2.0,50.0,18.0,43.0,32.0,50,139.0,square1,i,0.0583,0,V,5.0
V5,3.0,53.0,23.0,36.0,34.0,53,192.0,square1,i,0.0852,0,V,5.0
V5,4.0,52.0,19.0,38.0,34.0,52,244.0,square1,i,0.002,0,V,5.0
V5,5.0,50.0,22.0,41.0,29.0,50,294.0,square1,i,0.1184,0,V,5.0
V5,6.0,52.0,19.0,40.0,33.0,52,346.0,square1,i,0.1017,0,V,5.0
V5,7.0,48.0,24.0,36.0,27.0,36,382.0,square3,j,0.0638,2,V,5.0
V5,8.0,50.0,24.0,35.0,33.0,50,432.0,square1,i,0.0498,0,V,5.0
V5,9.0,48.0,25.0,39.0,34.0,48,480.0,square1,i,0.032,0,V,5.0
V5,10.0,52.0,19.0,32.0,34.0,32,512.0,square3,j,0.0554,2,V,5.0
V5,11.0,48.0,22.0,32.0,32.0,48,560.0,square1,i,0.0689,0,V,5.0
V5,12.0,47.0,17.0,43.0,29.0,47,607.0,square1,i,0.0089,0,V,5.0
V5,13.0,46.0,21.0,42.0,29.0,46,653.0,square1,i,0.1344,0,V,5.0
V5,14.0,47.0,28.0,42.0,28.0,47,700.0,square1,i,0.1182,0,V,5.0
V5,15.0,50.0,29.0,38.0,36.0,38,738.0,square3,j,0.0178,2,V,5.0
V5,16.0,49.0,24.0,36.0,34.0,36,774.0,square3,j,0.0987,2,V,5.0
V5,17.0,50.0,20.0,38.0,35.0,38,812.0,square3,j,0.0013,2,V,5.0
V5,18.0,49.0,22.0,46.0,29.0,49,861.0,square1,i,0.0337,0,V,5.0
V5,19.0,46.0,23.0,40.0,31.0,46,907.0,square1,i,0.1199,0,V,5.0
V5,20.0,51.0,22.0,41.0,28.0,51,958.0,square1,i,0.047,0,V,5.0
V5,21.0,51.0,26.0,36.0,31.0,36,994.0,square3,j,0.1005,2,V,5.0
V5,22.0,47.0,18.0,41.0,28.0,41,1035.0,square3,j,0.1671,2,V,5.0
V5,23.0,52.0,20.0,36.0,29.0,36,1071.0,square3,j,0.1484,2,V,5.0
V5,24.0,51.0,21.0,41.0,34.0,41,1112.0,square3,j,0.1485,2,V,5.0
V5,25.0,50.0,20.0,41.0,27.0,50,1162.0,square1,i,0.1649,0,V,5.0
V5,26.0,49.0,29.0,37.0,28.0,49,1211.0,square1,i,0.032,0,V,5.0
V5,27.0,10.0,13.0,42.0,32.0,10,1221.0,square1,i,0.0477,0,V,5.0
V5,28.0,9.0,19.0,40.0,27.0,9,1230.0,square1,i,0.015,0,V,5.0
V5,29.0,17.0,17.0,38.0,29.0,17,1247.0,square1,i,0.1627,0,V,5.0
V5,30.0,8.0,18.0,36.0,29.0,8,1255.0,square1,i,0.0816,0,V,5.0
V5,31.0,16.0,24.0,34.0,29.0,16,1271.0,square1,i,0.0022,0,V,5.0
V5,32.0,9.0,17.0,35.0,31.0,9,1280.0,square1,i,0.1126,0,V,5.0
V5,33.0,11.0,19.0,36.0,28.0,36,1316.0,square3,j,0.0019,2,V,5.0
V5,34.0,10.0,19.0,38.0,28.0,38,1354.0,square3,j,0.1106,2,V,5.0
V5,35.0,5.0,23.0,40.0,34.0,5,1359.0,square1,i,0.1137,0,V,5.0
V5,36.0,17.0,20.0,36.0,31.0,20,1379.0,square2,f,1.7328,1,V,5.0
V5,37.0,12.0,13.0,36.0,30.0,30,1409.0,square4,r,0.1982,3,V,5.0
V5,38.0,14.0,24.0,35.0,27.0,27,1436.0,square4,r,0.0967,3,V,5.0
V5,39.0,13.0,20.0,39.0,32.0,32,1468.0,square4,r,0.131,3,V,5.0
V5,40.0,9.0,15.0,37.0,24.0,9,1477.0,square1,i,0.1301,0,V,5.0
V5,41.0,9.0,14.0,38.0,31.0,38,1515.0,square3,j,0.0324,2,V,5.0
V5,42.0,14.0,17.0,43.0,31.0,43,1558.0,square3,j,0.1056,2,V,5.0
V5,43.0,10.0,18.0,39.0,23.0,39,1597.0,square3,j,0.1498,2,V,5.0
V5,44.0,10.0,20.0,33.0,32.0,33,1630.0,square3,j,0.1475,2,V,5.0
V5,45.0,16.0,17.0,37.0,29.0,37,1667.0,square3,j,0.0935,2,V,5.0
V5,46.0,9.0,22.0,37.0,25.0,37,1704.0,square3,j,0.2338,2,V,5.0
V5,47.0,10.0,22.0,35.0,26.0,35,1739.0,square3,j,0.1361,2,V,5.0
V5,48.0,11.0,16.0,39.0,23.0,39,1778.0,square3,j,0.2167,2,V,5.0
V5,49.0,13.0,16.0,33.0,27.0,33,1811.0,square3,j,0.2005,2,V,5.0
V5,50.0,12.0,16.0,39.0,24.0,39,1850.0,square3,j,0.2845,2,V,5.0
V5,51.0,10.0,21.0,43.0,28.0,43,1893.0,square3,j,0.2519,2,V,5.0
V5,52.0,8.0,15.0,36.0,28.0,36,1929.0,square3,j,0.0025,2,V,5.0
V5,53.0,38.0,20.0,31.0,54.0,31,1960.0,square3,j,0.3684,2,V,5.0
V5,54.0,39.0,20.0,35.0,51.0,35,1995.0,square3,j,0.1662,2,V,5.0
V5,55.0,41.0,21.0,27.0,50.0,27,2022.0,square3,j,0.1185,2,V,5.0
V5,56.0,39.0,23.0,28.0,49.0,28,2050.0,square3,j,0.3367,2,V,5.0
V5,57.0,36.0,28.0,29.0,59.0,29,2079.0,square3,j,0.2972,2,V,5.0
V5,58.0,38.0,22.0,28.0,49.0,28,2107.0,square3,j,0.1644,2,V,5.0
V5,59.0,44.0,23.0,30.0,51.0,30,2137.0,square3,j,0.032,2,V,5.0
V5,60.0,43.0,21.0,31.0,48.0,31,2168.0,square3,j,0.1644,2,V,5.0
V5,61.0,39.0,24.0,35.0,50.0,35,2203.0,square3,j,0.3147,2,V,5.0
V5,62.0,38.0,25.0,31.0,52.0,31,2234.0,square3,j,0.4347,2,V,5.0
V5,63.0,41.0,14.0,31.0,52.0,31,2265.0,square3,j,0.2589,2,V,5.0
V5,64.0,43.0,23.0,30.0,51.0,30,2295.0,square3,j,0.3415,2,V,5.0
V5,65.0,41.0,23.0,35.0,52.0,99999,2295.0,invalid,,,-1,V,5.0
V5,66.0,41.0,17.0,33.0,47.0,33,2328.0,square3,j,0.7831,2,V,5.0
V5,67.0,44.0,23.0,32.0,49.0,32,2360.0,square3,j,0.5468,2,V,5.0
V5,68.0,44.0,24.0,31.0,44.0,31,2391.0,square3,j,0.4796,2,V,5.0
V5,69.0,43.0,28.0,27.0,48.0,27,2418.0,square3,j,0.3819,2,V,5.0
V5,70.0,38.0,22.0,26.0,50.0,26,2444.0,square3,j,0.0511,2,V,5.0
V5,71.0,41.0,29.0,26.0,53.0,99999,2444.0,invalid,,,-1,V,5.0
V5,72.0,40.0,20.0,28.0,51.0,28,2472.0,square3,j,1.0203,2,V,5.0
V5,73.0,59.0,44.0,51.0,35.0,51,2523.0,square3,j,0.3311,2,V,5.0
V5,74.0,60.0,38.0,55.0,43.0,55,2578.0,square3,j,0.1958,2,V,5.0
V5,75.0,63.0,45.0,50.0,37.0,50,2628.0,square3,j,0.1808,2,V,5.0
V5,76.0,62.0,42.0,50.0,37.0,99999,2628.0,invalid,,,-1,V,5.0
V5,77.0,57.0,37.0,52.0,35.0,52,2680.0,square3,j,0.0025,2,V,5.0
V5,78.0,66.0,45.0,54.0,37.0,54,2734.0,square3,j,0.0507,2,V,5.0
V5,79.0,64.0,37.0,48.0,35.0,48,2782.0,square3,j,0.241,2,V,5.0
V5,80.0,63.0,40.0,56.0,38.0,56,2838.0,square3,j,0.0473,2,V,5.0
V5,81.0,62.0,41.0,54.0,32.0,54,2892.0,square3,j,0.0666,2,V,5.0
V5,82.0,58.0,41.0,59.0,39.0,59,2951.0,square3,j,0.15,2,V,5.0
V5,83.0,66.0,46.0,54.0,35.0,54,3005.0,square3,j,0.1269,2,V,5.0
V5,84.0,67.0,44.0,52.0,33.0,52,3057.0,square3,j,0.0027,2,V,5.0
V5,85.0,67.0,45.0,46.0,36.0,46,3103.0,square3,j,0.0517,2,V,5.0
V5,86.0,65.0,44.0,51.0,38.0,51,3154.0,square3,j,0.0165,2,V,5.0
V5,87.0,64.0,49.0,48.0,35.0,48,3202.0,square3,j,0.0334,2,V,5.0
V5,88.0,68.0,47.0,56.0,36.0,56,3258.0,square3,j,0.1991,2,V,5.0
V5,89.0,60.0,42.0,57.0,32.0,57,3315.0,square3,j,0.1834,2,V,5.0
V5,90.0,59.0,43.0,53.0,34.0,53,3368.0,square3,j,0.2682,2,V,5.0
V5,91.0,64.0,43.0,51.0,34.0,51,3419.0,square3,j,0.1805,2,V,5.0
V5,92.0,65.0,41.0,57.0,38.0,57,3476.0,square3,j,0.2458,2,V,5.0
V5,93.0,59.0,48.0,54.0,40.0,54,3530.0,square3,j,0.1804,2,V,5.0
V5,94.0,66.0,44.0,53.0,43.0,53,3583.0,square3,j,0.2953,2,V,5.0
V5,95.0,63.0,43.0,50.0,40.0,50,3633.0,square3,j,0.0858,2,V,5.0
V5,96.0,62.0,44.0,50.0,33.0,50,3683.0,square3,j,0.1627,2,V,5.0
V5,97.0,64.0,49.0,55.0,37.0,55,3738.0,square3,j,0.1153,2,V,5.0
V5,98.0,65.0,44.0,53.0,36.0,53,3791.0,square3,j,0.1646,2,V,5.0
V5,99.0,65.0,42.0,55.0,35.0,55,3846.0,square3,j,0.1662,2,V,5.0
