block,Trial,square1,square2,square3,square4,currPoints,totalPoints,square,choiceKey.keys,choiceKey.rt,armNum,blockType,blockNum
prac,0.0,100.0,0.0,0.0,0.0,100,100.0,square1,,,0,p,0.0
prac,1.0,100.0,0.0,0.0,0.0,100,200.0,square1,,,0,p,0.0
prac,2.0,100.0,0.0,0.0,0.0,99999,200.0,invalid,,,-1,p,0.0
prac,3.0,100.0,0.0,0.0,0.0,100,300.0,square1,,,0,p,0.0
prac,4.0,100.0,0.0,0.0,0.0,100,400.0,square1,,,0,p,0.0
prac,5.0,100.0,0.0,0.0,0.0,100,500.0,square1,,,0,p,0.0
prac,6.0,100.0,0.0,0.0,0.0,100,600.0,square1,,,0,p,0.0
prac,7.0,100.0,0.0,0.0,0.0,100,700.0,square1,,,0,p,0.0
prac,8.0,100.0,0.0,0.0,0.0,100,800.0,square1,,,0,p,0.0
prac,9.0,100.0,0.0,0.0,0.0,100,900.0,square1,,,0,p,0.0
V9,0.0,20.0,29.0,37.0,45.0,45,45.0,square4,j,1.3694,3,V,9.0
V9,1.0,21.0,32.0,39.0,45.0,32,77.0,square2,i,1.3567,1,V,9.0
V9,2.0,16.0,27.0,41.0,48.0,16,93.0,square1,f,0.8721,0,V,9.0
V9,3.0,20.0,30.0,42.0,50.0,42,135.0,square3,r,0.4589,2,V,9.0
V9,4.0,22.0,34.0,37.0,47.0,37,172.0,square3,r,0.3884,2,V,9.0
V9,5.0,17.0,32.0,38.0,49.0,49,221.0,square4,j,0.3317,3,V,9.0
V9,6.0,17.0,25.0,39.0,47.0,47,268.0,square4,j,0.549,3,V,9.0
V9,7.0,22.0,28.0,33.0,48.0,28,296.0,square2,i,0.7217,1,V,9.0
V9,8.0,20.0,24.0,34.0,41.0,41,337.0,square4,j,0.4808,3,V,9.0
V9,9.0,20.0,33.0,30.0,51.0,20,357.0,square1,f,0.505,0,V,9.0
V9,10.0,21.0,35.0,38.0,50.0,38,395.0,square3,r,0.2955,2,V,9.0
V9,11.0,19.0,29.0,44.0,45.0,45,440.0,square4,j,0.1453,3,V,9.0
V9,12.0,27.0,24.0,38.0,54.0,54,494.0,square4,j,0.2895,3,V,9.0
V9,13.0,15.0,26.0,37.0,50.0,50,544.0,square4,j,0.4724,3,V,9.0
V9,14.0,24.0,26.0,39.0,42.0,42,586.0,square4,j,0.3712,3,V,9.0
V9,15.0,26.0,27.0,43.0,49.0,43,629.0,square3,r,0.2373,2,V,9.0
V9,16.0,19.0,30.0,42.0,49.0,42,671.0,square3,r,0.4588,2,V,9.0
V9,17.0,21.0,30.0,34.0,49.0,49,720.0,square4,j,0.2108,3,V,9.0
V9,18.0,25.0,33.0,41.0,51.0,51,771.0,square4,j,0.3224,3,V,9.0
V9,19.0,17.0,31.0,41.0,45.0,45,816.0,square4,j,0.5619,3,V,9.0
V9,20.0,19.0,31.0,34.0,49.0,49,865.0,square4,j,0.3369,3,V,9.0
V9,21.0,23.0,29.0,37.0,48.0,48,913.0,square4,j,0.4958,3,V,9.0
V9,22.0,15.0,32.0,36.0,48.0,48,961.0,square4,j,0.2932,3,V,9.0
V9,23.0,25.0,33.0,39.0,47.0,47,1008.0,square4,j,0.2963,3,V,9.0
V9,24.0,21.0,30.0,38.0,52.0,52,1060.0,square4,j,0.5322,3,V,9.0
V9,25.0,25.0,29.0,42.0,48.0,42,1102.0,square3,r,0.3121,2,V,9.0
V9,26.0,22.0,29.0,39.0,47.0,47,1149.0,square4,j,0.257,3,V,9.0
V9,27.0,17.0,31.0,45.0,41.0,31,1180.0,square2,i,0.4554,1,V,9.0
V9,28.0,29.0,28.0,43.0,43.0,29,1209.0,square1,f,0.3895,0,V,9.0
V9,29.0,20.0,31.0,43.0,49.0,49,1258.0,square4,j,0.2234,3,V,9.0
V9,30.0,23.0,33.0,39.0,48.0,48,1306.0,square4,j,0.3758,3,V,9.0
V9,31.0,20.0,27.0,38.0,53.0,53,1359.0,square4,j,0.2765,3,V,9.0
V9,32.0,23.0,29.0,37.0,49.0,49,1408.0,square4,j,0.3493,3,V,9.0
V9,33.0,24.0,33.0,37.0,49.0,49,1457.0,square4,j,0.3886,3,V,9.0
V9,34.0,43.0,58.0,48.0,30.0,30,1487.0,square4,j,0.3094,3,V,9.0
V9,35.0,48.0,59.0,45.0,34.0,45,1532.0,square3,r,1.6039,2,V,9.0
V9,36.0,39.0,56.0,54.0,32.0,54,1586.0,square3,r,0.2461,2,V,9.0
V9,37.0,40.0,57.0,50.0,35.0,50,1636.0,square3,r,0.3055,2,V,9.0
V9,38.0,49.0,62.0,51.0,33.0,51,1687.0,square3,r,0.4553,2,V,9.0
V9,39.0,45.0,61.0,48.0,34.0,48,1735.0,square3,r,0.3952,2,V,9.0
V9,40.0,40.0,65.0,51.0,29.0,51,1786.0,square3,r,0.2741,2,V,9.0
V9,41.0,44.0,57.0,50.0,38.0,50,1836.0,square3,r,0.2111,2,V,9.0
V9,42.0,40.0,57.0,49.0,33.0,49,1885.0,square3,r,0.2892,2,V,9.0
V9,43.0,42.0,64.0,54.0,35.0,54,1939.0,square3,r,0.244,2,V,9.0
V9,44.0,44.0,55.0,49.0,39.0,49,1988.0,square3,r,0.3436,2,V,9.0
V9,45.0,37.0,66.0,51.0,35.0,51,2039.0,square3,r,0.5441,2,V,9.0
V9,46.0,40.0,59.0,51.0,32.0,51,2090.0,square3,r,0.2709,2,V,9.0
V9,47.0,38.0,62.0,57.0,31.0,57,2147.0,square3,r,0.3229,2,V,9.0
V9,48.0,43.0,61.0,54.0,34.0,54,2201.0,square3,r,0.2643,2,V,9.0
V9,49.0,43.0,61.0,49.0,40.0,49,2250.0,square3,r,0.1395,2,V,9.0
V9,50.0,37.0,58.0,51.0,32.0,51,2301.0,square3,r,0.3069,2,V,9.0
V9,51.0,44.0,63.0,48.0,39.0,48,2349.0,square3,r,0.1479,2,V,9.0
V9,52.0,35.0,65.0,48.0,30.0,48,2397.0,square3,r,0.3223,2,V,9.0
V9,53.0,43.0,59.0,48.0,39.0,48,2445.0,square3,r,0.623,2,V,9.0
V9,54.0,43.0,59.0,52.0,30.0,59,2504.0,square2,i,0.1055,1,V,9.0
V9,55.0,41.0,58.0,51.0,34.0,58,2562.0,square2,i,0.3432,1,V,9.0
V9,56.0,44.0,63.0,50.0,33.0,63,2625.0,square2,i,0.3601,1,V,9.0
V9,57.0,42.0,60.0,49.0,32.0,42,2667.0,square1,f,0.3651,0,V,9.0
V9,58.0,44.0,62.0,57.0,30.0,62,2729.0,square2,i,0.2955,1,V,9.0
V9,59.0,45.0,61.0,45.0,31.0,61,2790.0,square2,i,0.3421,1,V,9.0
V9,60.0,43.0,63.0,53.0,33.0,63,2853.0,square2,i,0.276,1,V,9.0
V9,61.0,39.0,56.0,55.0,31.0,31,2884.0,square4,j,0.4096,3,V,9.0
V9,62.0,39.0,61.0,50.0,34.0,50,2934.0,square3,r,0.3612,2,V,9.0
V9,63.0,44.0,57.0,48.0,36.0,57,2991.0,square2,i,0.026,1,V,9.0
V9,64.0,40.0,60.0,58.0,35.0,60,3051.0,square2,i,0.3241,1,V,9.0
V9,65.0,42.0,60.0,54.0,38.0,60,3111.0,square2,i,0.3548,1,V,9.0
V9,66.0,41.0,60.0,54.0,37.0,60,3171.0,square2,i,0.162,1,V,9.0
V9,67.0,43.0,61.0,54.0,40.0,61,3232.0,square2,i,0.3107,1,V,9.0
V9,68.0,45.0,40.0,26.0,18.0,26,3258.0,square3,r,0.3812,2,V,9.0
V9,69.0,50.0,41.0,29.0,20.0,41,3299.0,square2,i,0.2723,1,V,9.0
V9,70.0,43.0,36.0,27.0,15.0,36,3335.0,square2,i,0.4453,1,V,9.0
V9,71.0,44.0,40.0,28.0,18.0,40,3375.0,square2,i,0.0284,1,V,9.0
V9,72.0,42.0,38.0,27.0,18.0,18,3393.0,square4,j,0.3069,3,V,9.0
V9,73.0,46.0,33.0,25.0,19.0,46,3439.0,square1,f,0.1062,0,V,9.0
V9,74.0,47.0,40.0,28.0,20.0,47,3486.0,square1,f,0.0783,0,V,9.0
V9,75.0,39.0,39.0,27.0,25.0,39,3525.0,square2,i,0.2662,1,V,9.0
V9,76.0,50.0,31.0,29.0,23.0,50,3575.0,square1,f,0.3095,0,V,9.0
V9,77.0,44.0,37.0,28.0,13.0,44,3619.0,square1,f,0.305,0,V,9.0
V9,78.0,43.0,36.0,23.0,17.0,43,3662.0,square1,f,0.1393,0,V,9.0
V9,79.0,42.0,36.0,28.0,24.0,24,3686.0,square4,j,0.3439,3,V,9.0
V9,80.0,47.0,35.0,30.0,14.0,30,3716.0,square3,r,0.3268,2,V,9.0
V9,81.0,46.0,33.0,29.0,18.0,33,3749.0,square2,i,0.4966,1,V,9.0
V9,82.0,46.0,35.0,28.0,18.0,46,3795.0,square1,f,0.1731,0,V,9.0
V9,83.0,47.0,41.0,32.0,15.0,47,3842.0,square1,f,0.3391,0,V,9.0
V9,84.0,45.0,38.0,31.0,18.0,45,3887.0,square1,f,0.3634,0,V,9.0
V9,85.0,42.0,35.0,30.0,21.0,42,3929.0,square1,f,0.3773,0,V,9.0
V9,86.0,49.0,39.0,23.0,18.0,49,3978.0,square1,f,0.6356,0,V,9.0
V9,87.0,49.0,39.0,27.0,16.0,49,4027.0,square1,f,0.24,0,V,9.0
V9,88.0,45.0,38.0,25.0,14.0,25,4052.0,square3,r,0.1597,2,V,9.0
V9,89.0,45.0,32.0,28.0,19.0,19,4071.0,square4,j,0.3056,3,V,9.0
V9,90.0,44.0,35.0,29.0,20.0,35,4106.0,square2,i,0.2963,1,V,9.0
V9,91.0,42.0,38.0,32.0,16.0,42,4148.0,square1,f,0.3616,0,V,9.0
V9,92.0,45.0,36.0,23.0,20.0,45,4193.0,square1,f,0.3262,0,V,9.0
V9,93.0,45.0,35.0,26.0,18.0,45,4238.0,square1,f,0.1599,0,V,9.0
V9,94.0,44.0,37.0,27.0,13.0,44,4282.0,square1,f,0.2563,0,V,9.0
V9,95.0,46.0,36.0,25.0,20.0,46,4328.0,square1,f,0.3412,0,V,9.0
V9,96.0,43.0,39.0,27.0,16.0,43,4371.0,square1,f,0.0724,0,V,9.0
V9,97.0,48.0,39.0,30.0,16.0,48,4419.0,square1,f,0.1397,0,V,9.0
V9,98.0,49.0,40.0,26.0,20.0,49,4468.0,square1,f,0.4317,0,V,9.0
V9,99.0,49.0,41.0,27.0,18.0,49,4517.0,square1,f,0.5388,0,V,9.0
V12,0.0,47.0,30.0,38.0,55.0,47,47.0,square1,r,1.5976,0,V,12.0
V12,1.0,46.0,33.0,39.0,57.0,57,104.0,square4,i,0.363,3,V,12.0
V12,2.0,51.0,29.0,42.0,52.0,42,146.0,square3,j,1.5143,2,V,12.0
V12,3.0,52.0,30.0,38.0,62.0,30,176.0,square2,f,0.6543,1,V,12.0
V12,4.0,48.0,30.0,39.0,62.0,48,224.0,square1,r,0.2731,0,V,12.0
V12,5.0,55.0,34.0,43.0,61.0,61,285.0,square4,i,0.4896,3,V,12.0
V12,6.0,45.0,35.0,42.0,56.0,42,327.0,square3,j,0.3619,2,V,12.0
V12,7.0,48.0,29.0,35.0,57.0,57,384.0,square4,i,0.4882,3,V,12.0
V12,8.0,46.0,33.0,38.0,59.0,59,443.0,square4,i,0.461,3,V,12.0
V12,9.0,44.0,31.0,42.0,56.0,56,499.0,square4,i,0.3893,3,V,12.0
V12,10.0,48.0,34.0,45.0,55.0,48,547.0,square1,r,0.3153,0,V,12.0
V12,11.0,45.0,32.0,41.0,55.0,32,579.0,square2,f,0.7555,1,V,12.0
V12,12.0,52.0,26.0,42.0,57.0,57,636.0,square4,i,0.0742,3,V,12.0
V12,13.0,56.0,31.0,41.0,54.0,41,677.0,square3,j,0.1564,2,V,12.0
V12,14.0,44.0,34.0,40.0,64.0,64,741.0,square4,i,0.2217,3,V,12.0
V12,15.0,48.0,32.0,39.0,61.0,61,802.0,square4,i,0.3628,3,V,12.0
V12,16.0,49.0,33.0,37.0,58.0,37,839.0,square3,j,0.173,2,V,12.0
V12,17.0,45.0,33.0,43.0,57.0,57,896.0,square4,i,0.2733,3,V,12.0
V12,18.0,45.0,28.0,40.0,58.0,58,954.0,square4,i,0.4986,3,V,12.0
V12,19.0,42.0,33.0,43.0,59.0,59,1013.0,square4,i,0.499,3,V,12.0
V12,20.0,46.0,30.0,38.0,62.0,62,1075.0,square4,i,0.6099,3,V,12.0
V12,21.0,46.0,35.0,40.0,55.0,55,1130.0,square4,i,0.3561,3,V,12.0
V12,22.0,46.0,34.0,36.0,63.0,63,1193.0,square4,i,0.5245,3,V,12.0
V12,23.0,54.0,34.0,42.0,56.0,54,1247.0,square1,r,0.1886,0,V,12.0
V12,24.0,44.0,30.0,41.0,59.0,30,1277.0,square2,f,0.1882,1,V,12.0
V12,25.0,49.0,33.0,37.0,64.0,37,1314.0,square3,j,0.1264,2,V,12.0
V12,26.0,52.0,34.0,39.0,57.0,52,1366.0,square1,r,0.0102,0,V,12.0
V12,27.0,50.0,26.0,37.0,55.0,55,1421.0,square4,i,0.1767,3,V,12.0
V12,28.0,41.0,29.0,46.0,21.0,41,1462.0,square1,r,0.5101,0,V,12.0
V12,29.0,41.0,28.0,51.0,20.0,20,1482.0,square4,i,0.0106,3,V,12.0
V12,30.0,32.0,31.0,46.0,22.0,46,1528.0,square3,j,0.3268,2,V,12.0
V12,31.0,38.0,28.0,45.0,22.0,28,1556.0,square2,f,0.3567,1,V,12.0
V12,32.0,35.0,27.0,44.0,16.0,44,1600.0,square3,j,0.0006,2,V,12.0
V12,33.0,39.0,29.0,49.0,21.0,49,1649.0,square3,j,0.1062,2,V,12.0
V12,34.0,39.0,28.0,49.0,15.0,49,1698.0,square3,j,0.1668,2,V,12.0
V12,35.0,36.0,29.0,50.0,17.0,50,1748.0,square3,j,0.0616,2,V,12.0
V12,36.0,41.0,28.0,48.0,12.0,48,1796.0,square3,j,0.8754,2,V,12.0
V12,37.0,34.0,29.0,46.0,25.0,46,1842.0,square3,j,0.0126,2,V,12.0
V12,38.0,38.0,28.0,51.0,19.0,51,1893.0,square3,j,0.1916,2,V,12.0
V12,39.0,39.0,31.0,45.0,13.0,39,1932.0,square1,r,0.4231,0,V,12.0
V12,40.0,35.0,28.0,46.0,26.0,26,1958.0,square4,i,0.2566,3,V,12.0
V12,41.0,38.0,27.0,46.0,20.0,46,2004.0,square3,j,0.0735,2,V,12.0
V12,42.0,40.0,26.0,50.0,23.0,50,2054.0,square3,j,0.0048,2,V,12.0
V12,43.0,33.0,30.0,45.0,18.0,45,2099.0,square3,j,0.123,2,V,12.0
V12,44.0,39.0,31.0,46.0,22.0,39,2138.0,square1,r,0.1461,0,V,12.0
V12,45.0,32.0,26.0,42.0,20.0,42,2180.0,square3,j,0.073,2,V,12.0
V12,46.0,36.0,29.0,43.0,24.0,36,2216.0,square1,r,0.2132,0,V,12.0
V12,47.0,37.0,30.0,46.0,21.0,30,2246.0,square2,f,0.2337,1,V,12.0
V12,48.0,37.0,27.0,44.0,19.0,19,2265.0,square4,i,0.0948,3,V,12.0
V12,49.0,36.0,33.0,55.0,16.0,55,2320.0,square3,j,0.1452,2,V,12.0
V12,50.0,45.0,28.0,44.0,18.0,44,2364.0,square3,j,0.2559,2,V,12.0
V12,51.0,35.0,32.0,49.0,19.0,49,2413.0,square3,j,0.1272,2,V,12.0
V12,52.0,36.0,56.0,31.0,52.0,31,2444.0,square3,j,0.2384,2,V,12.0
V12,53.0,36.0,57.0,29.0,45.0,36,2480.0,square1,r,0.0818,0,V,12.0
V12,54.0,38.0,61.0,28.0,51.0,51,2531.0,square4,i,0.0989,3,V,12.0
V12,55.0,35.0,60.0,29.0,47.0,47,2578.0,square4,i,0.0553,3,V,12.0
V12,56.0,34.0,62.0,29.0,46.0,46,2624.0,square4,i,0.1472,3,V,12.0
V12,57.0,43.0,57.0,32.0,46.0,46,2670.0,square4,i,0.0429,3,V,12.0
V12,58.0,40.0,59.0,32.0,50.0,50,2720.0,square4,i,0.1592,3,V,12.0
V12,59.0,41.0,62.0,33.0,48.0,48,2768.0,square4,i,0.1725,3,V,12.0
V12,60.0,36.0,61.0,32.0,49.0,49,2817.0,square4,i,0.1563,3,V,12.0
V12,61.0,39.0,56.0,32.0,44.0,44,2861.0,square4,i,0.7987,3,V,12.0
V12,62.0,39.0,57.0,30.0,46.0,57,2918.0,square2,f,0.0104,1,V,12.0
V12,63.0,42.0,53.0,29.0,46.0,53,2971.0,square2,f,0.1388,1,V,12.0
V12,64.0,35.0,57.0,32.0,50.0,35,3006.0,square1,r,0.3322,0,V,12.0
V12,65.0,44.0,58.0,32.0,49.0,32,3038.0,square3,j,0.1119,2,V,12.0
V12,66.0,44.0,56.0,29.0,52.0,56,3094.0,square2,f,0.2768,1,V,12.0
V12,67.0,41.0,60.0,30.0,49.0,60,3154.0,square2,f,0.0561,1,V,12.0
V12,68.0,42.0,58.0,32.0,45.0,58,3212.0,square2,f,0.2572,1,V,12.0
V12,69.0,36.0,60.0,33.0,50.0,60,3272.0,square2,f,0.1564,1,V,12.0
V12,70.0,36.0,57.0,27.0,46.0,57,3329.0,square2,f,0.1805,1,V,12.0
V12,71.0,41.0,59.0,32.0,48.0,59,3388.0,square2,f,0.0007,1,V,12.0
V12,72.0,34.0,59.0,31.0,49.0,59,3447.0,square2,f,0.0554,1,V,12.0
V12,73.0,71.0,53.0,65.0,49.0,53,3500.0,square2,f,0.0008,1,V,12.0
V12,74.0,69.0,49.0,63.0,45.0,49,3549.0,square2,f,0.1938,1,V,12.0
V12,75.0,72.0,51.0,56.0,46.0,51,3600.0,square2,f,0.2173,1,V,12.0
V12,76.0,72.0,48.0,58.0,43.0,48,3648.0,square2,f,0.0906,1,V,12.0
V12,77.0,74.0,57.0,59.0,44.0,57,3705.0,square2,f,0.09,1,V,12.0
V12,78.0,69.0,55.0,63.0,50.0,55,3760.0,square2,f,0.0552,1,V,12.0
V12,79.0,73.0,53.0,58.0,43.0,53,3813.0,square2,f,0.2392,1,V,12.0
V12,80.0,71.0,47.0,65.0,40.0,47,3860.0,square2,f,0.2966,1,V,12.0
V12,81.0,66.0,49.0,57.0,40.0,49,3909.0,square2,f,0.0406,1,V,12.0
V12,82.0,71.0,53.0,57.0,48.0,53,3962.0,square2,f,0.0034,1,V,12.0
V12,83.0,70.0,50.0,56.0,49.0,50,4012.0,square2,f,0.1101,1,V,12.0
V12,84.0,69.0,45.0,64.0,43.0,45,4057.0,square2,f,0.2216,1,V,12.0
V12,85.0,64.0,48.0,54.0,42.0,48,4105.0,square2,f,0.1481,1,V,12.0
V12,86.0,71.0,49.0,63.0,44.0,44,4149.0,square4,i,0.3953,3,V,12.0
V12,87.0,72.0,52.0,55.0,42.0,72,4221.0,square1,r,0.0048,0,V,12.0
V12,88.0,64.0,48.0,59.0,44.0,64,4285.0,square1,r,0.1063,0,V,12.0
V12,89.0,69.0,48.0,62.0,45.0,69,4354.0,square1,r,0.1765,0,V,12.0
V12,90.0,68.0,56.0,60.0,42.0,68,4422.0,square1,r,0.106,0,V,12.0
V12,91.0,69.0,52.0,62.0,45.0,69,4491.0,square1,r,0.0465,0,V,12.0
V12,92.0,65.0,50.0,64.0,47.0,65,4556.0,square1,r,0.1272,0,V,12.0
V12,93.0,68.0,51.0,62.0,43.0,68,4624.0,square1,r,0.1219,0,V,12.0
V12,94.0,68.0,52.0,60.0,38.0,60,4684.0,square3,j,0.143,2,V,12.0
V12,95.0,71.0,52.0,58.0,47.0,58,4742.0,square3,j,0.2773,2,V,12.0
V12,96.0,66.0,49.0,59.0,44.0,66,4808.0,square1,r,0.24,0,V,12.0
V12,97.0,74.0,47.0,54.0,47.0,74,4882.0,square1,r,0.0892,0,V,12.0
V12,98.0,68.0,43.0,64.0,41.0,68,4950.0,square1,r,0.0724,0,V,12.0
V12,99.0,71.0,53.0,62.0,44.0,71,5021.0,square1,r,0.2221,0,V,12.0
V10,0.0,28.0,21.0,37.0,46.0,99999,0.0,invalid,,,-1,V,10.0
V10,1.0,26.0,19.0,41.0,49.0,49,49.0,square4,f,1.4106,3,V,10.0
V10,2.0,29.0,20.0,43.0,48.0,43,92.0,square3,r,0.2673,2,V,10.0
V10,3.0,27.0,27.0,37.0,44.0,27,119.0,square1,i,0.4229,0,V,10.0
V10,4.0,28.0,16.0,36.0,47.0,16,135.0,square2,j,0.0828,1,V,10.0
V10,5.0,33.0,25.0,42.0,54.0,54,189.0,square4,f,0.1609,3,V,10.0
V10,6.0,28.0,19.0,35.0,45.0,35,224.0,square3,r,0.3219,2,V,10.0
V10,7.0,30.0,24.0,35.0,49.0,49,273.0,square4,f,0.0006,3,V,10.0
V10,8.0,37.0,29.0,41.0,47.0,47,320.0,square4,f,0.1443,3,V,10.0
V10,9.0,28.0,21.0,41.0,48.0,48,368.0,square4,f,0.2223,3,V,10.0
V10,10.0,27.0,22.0,39.0,42.0,42,410.0,square4,f,0.1108,3,V,10.0
V10,11.0,32.0,16.0,41.0,48.0,48,458.0,square4,f,0.3765,3,V,10.0
V10,12.0,34.0,15.0,33.0,49.0,49,507.0,square4,f,0.14,3,V,10.0
V10,13.0,36.0,19.0,41.0,45.0,45,552.0,square4,f,0.0388,3,V,10.0
V10,14.0,28.0,23.0,35.0,53.0,53,605.0,square4,f,0.1231,3,V,10.0
V10,15.0,26.0,28.0,40.0,50.0,50,655.0,square4,f,0.1593,3,V,10.0
V10,16.0,30.0,25.0,42.0,47.0,25,680.0,square2,j,0.0383,1,V,10.0
V10,17.0,31.0,19.0,38.0,50.0,38,718.0,square3,r,0.0173,2,V,10.0
V10,18.0,34.0,21.0,35.0,48.0,34,752.0,square1,i,0.023,0,V,10.0
V10,19.0,31.0,24.0,39.0,46.0,46,798.0,square4,f,0.0032,3,V,10.0
V10,20.0,28.0,22.0,42.0,47.0,47,845.0,square4,f,0.0005,3,V,10.0
V10,21.0,24.0,20.0,41.0,47.0,47,892.0,square4,f,0.2387,3,V,10.0
V10,22.0,32.0,22.0,34.0,44.0,44,936.0,square4,f,0.2951,3,V,10.0
V10,23.0,29.0,23.0,37.0,47.0,47,983.0,square4,f,0.131,3,V,10.0
V10,24.0,25.0,25.0,38.0,46.0,38,1021.0,square3,r,0.1284,2,V,10.0
V10,25.0,30.0,24.0,41.0,45.0,30,1051.0,square1,i,0.2323,0,V,10.0
V10,26.0,32.0,17.0,38.0,49.0,17,1068.0,square2,j,0.0158,1,V,10.0
V10,27.0,34.0,21.0,38.0,47.0,38,1106.0,square3,r,0.3605,2,V,10.0
V10,28.0,29.0,21.0,37.0,45.0,45,1151.0,square4,f,0.173,3,V,10.0
V10,29.0,30.0,20.0,31.0,47.0,47,1198.0,square4,f,0.01,3,V,10.0
V10,30.0,28.0,21.0,35.0,44.0,44,1242.0,square4,f,0.0112,3,V,10.0
V10,31.0,36.0,25.0,14.0,8.0,8,1250.0,square4,f,0.2061,3,V,10.0
V10,32.0,38.0,27.0,19.0,11.0,19,1269.0,square3,r,0.0274,2,V,10.0
V10,33.0,39.0,21.0,20.0,13.0,21,1290.0,square2,j,0.1914,1,V,10.0
V10,34.0,34.0,24.0,20.0,10.0,34,1324.0,square1,i,0.1767,0,V,10.0
V10,35.0,44.0,29.0,17.0,11.0,44,1368.0,square1,i,0.0553,0,V,10.0
V10,36.0,33.0,30.0,17.0,9.0,33,1401.0,square1,i,0.0483,0,V,10.0
V10,37.0,31.0,27.0,12.0,6.0,31,1432.0,square1,i,0.0783,0,V,10.0
V10,38.0,34.0,29.0,15.0,10.0,15,1447.0,square3,r,0.0941,2,V,10.0
V10,39.0,35.0,21.0,19.0,5.0,35,1482.0,square1,i,0.0261,0,V,10.0
V10,40.0,32.0,26.0,18.0,6.0,32,1514.0,square1,i,0.0886,0,V,10.0
V10,41.0,34.0,32.0,13.0,9.0,34,1548.0,square1,i,0.0391,0,V,10.0
V10,42.0,35.0,30.0,16.0,8.0,30,1578.0,square2,j,0.1309,1,V,10.0
V10,43.0,38.0,32.0,16.0,8.0,8,1586.0,square4,f,0.077,3,V,10.0
V10,44.0,34.0,20.0,18.0,3.0,34,1620.0,square1,i,0.1444,0,V,10.0
V10,45.0,38.0,22.0,23.0,9.0,38,1658.0,square1,i,0.1479,0,V,10.0
V10,46.0,36.0,28.0,16.0,10.0,28,1686.0,square2,j,0.1058,1,V,10.0
V10,47.0,36.0,27.0,13.0,8.0,36,1722.0,square1,i,0.1254,0,V,10.0
V10,48.0,35.0,27.0,14.0,12.0,35,1757.0,square1,i,0.0888,0,V,10.0
V10,49.0,33.0,28.0,16.0,10.0,33,1790.0,square1,i,0.0395,0,V,10.0
V10,50.0,31.0,29.0,19.0,8.0,31,1821.0,square1,i,0.1613,0,V,10.0
V10,51.0,32.0,21.0,20.0,12.0,32,1853.0,square1,i,0.0971,0,V,10.0
V10,52.0,29.0,25.0,21.0,10.0,29,1882.0,square1,i,0.1729,0,V,10.0
V10,53.0,39.0,29.0,23.0,2.0,29,1911.0,square2,j,0.2934,1,V,10.0
V10,54.0,33.0,28.0,19.0,7.0,19,1930.0,square3,r,0.0281,2,V,10.0
V10,55.0,34.0,24.0,15.0,8.0,24,1954.0,square2,j,0.339,1,V,10.0
V10,56.0,35.0,20.0,21.0,9.0,9,1963.0,square4,f,0.0217,3,V,10.0
V10,57.0,33.0,27.0,19.0,7.0,27,1990.0,square2,j,0.1598,1,V,10.0
V10,58.0,38.0,24.0,16.0,7.0,38,2028.0,square1,i,0.1149,0,V,10.0
V10,59.0,34.0,29.0,15.0,5.0,34,2062.0,square1,i,0.0728,0,V,10.0
V10,60.0,34.0,22.0,19.0,9.0,34,2096.0,square1,i,0.1056,0,V,10.0
V10,61.0,39.0,31.0,20.0,10.0,39,2135.0,square1,i,0.1551,0,V,10.0
V10,62.0,35.0,24.0,18.0,6.0,35,2170.0,square1,i,0.0006,0,V,10.0
V10,63.0,35.0,26.0,18.0,9.0,35,2205.0,square1,i,0.1923,0,V,10.0
V10,64.0,31.0,55.0,23.0,23.0,31,2236.0,square1,i,0.083,0,V,10.0
V10,65.0,35.0,50.0,22.0,27.0,35,2271.0,square1,i,0.1232,0,V,10.0
V10,66.0,35.0,53.0,25.0,29.0,35,2306.0,square1,i,0.144,0,V,10.0
V10,67.0,38.0,44.0,17.0,29.0,44,2350.0,square2,j,0.0263,1,V,10.0
V10,68.0,36.0,48.0,22.0,27.0,36,2386.0,square1,i,0.1216,0,V,10.0
V10,69.0,41.0,53.0,17.0,28.0,53,2439.0,square2,j,0.3107,1,V,10.0
V10,70.0,40.0,48.0,23.0,28.0,48,2487.0,square2,j,0.1731,1,V,10.0
V10,71.0,39.0,43.0,24.0,20.0,43,2530.0,square2,j,0.0048,1,V,10.0
V10,72.0,36.0,49.0,19.0,25.0,49,2579.0,square2,j,0.0725,1,V,10.0
V10,73.0,39.0,49.0,23.0,32.0,49,2628.0,square2,j,0.0726,1,V,10.0
V10,74.0,36.0,44.0,17.0,29.0,44,2672.0,square2,j,0.0386,1,V,10.0
V10,75.0,37.0,46.0,20.0,30.0,46,2718.0,square2,j,0.1782,1,V,10.0
V10,76.0,38.0,47.0,23.0,30.0,47,2765.0,square2,j,0.0107,1,V,10.0
V10,77.0,36.0,49.0,22.0,32.0,49,2814.0,square2,j,0.1389,1,V,10.0
V10,78.0,41.0,44.0,19.0,27.0,44,2858.0,square2,j,0.0885,1,V,10.0
V10,79.0,41.0,48.0,22.0,27.0,22,2880.0,square3,r,0.0428,2,V,10.0
V10,80.0,34.0,44.0,26.0,29.0,29,2909.0,square4,f,0.1621,3,V,10.0
V10,81.0,38.0,47.0,18.0,29.0,38,2947.0,square1,i,0.3276,0,V,10.0
V10,82.0,43.0,43.0,23.0,28.0,43,2990.0,square2,j,0.0433,1,V,10.0
V10,83.0,34.0,51.0,23.0,26.0,51,3041.0,square2,j,0.1556,1,V,10.0
V10,84.0,36.0,46.0,18.0,25.0,46,3087.0,square2,j,0.0602,1,V,10.0
V10,85.0,39.0,46.0,25.0,26.0,46,3133.0,square2,j,0.1937,1,V,10.0
V10,86.0,39.0,50.0,27.0,27.0,50,3183.0,square2,j,0.1661,1,V,10.0
V10,87.0,38.0,46.0,20.0,30.0,46,3229.0,square2,j,0.1267,1,V,10.0
V10,88.0,37.0,49.0,22.0,28.0,49,3278.0,square2,j,0.0212,1,V,10.0
V10,89.0,34.0,51.0,25.0,26.0,51,3329.0,square2,j,0.0005,1,V,10.0
V10,90.0,41.0,49.0,22.0,29.0,49,3378.0,square2,j,0.0007,1,V,10.0
V10,91.0,37.0,45.0,26.0,32.0,37,3415.0,square1,i,0.16,0,V,10.0
V10,92.0,42.0,42.0,27.0,28.0,28,3443.0,square4,f,0.6396,3,V,10.0
V10,93.0,41.0,48.0,19.0,36.0,19,3462.0,square3,r,0.2433,2,V,10.0
V10,94.0,43.0,49.0,23.0,31.0,49,3511.0,square2,j,0.1463,1,V,10.0
V10,95.0,39.0,46.0,18.0,27.0,46,3557.0,square2,j,0.0467,1,V,10.0
V10,96.0,37.0,48.0,24.0,27.0,48,3605.0,square2,j,0.0741,1,V,10.0
V10,97.0,42.0,50.0,23.0,31.0,50,3655.0,square2,j,0.1434,1,V,10.0
V10,98.0,33.0,47.0,25.0,32.0,47,3702.0,square2,j,0.16,1,V,10.0
V10,99.0,39.0,48.0,23.0,32.0,48,3750.0,square2,j,0.0634,1,V,10.0
NS11,0.0,78.0,37.0,30.0,78.0,30,30.0,square3,f,1.8662,2,N,11.0
NS11,1.0,85.0,34.0,30.0,76.0,34,64.0,square2,r,0.1226,1,N,11.0
NS11,2.0,79.0,33.0,36.0,77.0,99999,64.0,invalid,,,-1,N,11.0
NS11,3.0,82.0,33.0,28.0,72.0,72,136.0,square4,i,0.0488,3,N,11.0
NS11,4.0,82.0,34.0,33.0,76.0,82,218.0,square1,j,0.0026,0,N,11.0
NS11,5.0,78.0,38.0,32.0,83.0,78,296.0,square1,j,0.174,0,N,11.0
NS11,6.0,78.0,37.0,34.0,77.0,78,374.0,square1,j,0.0633,0,N,11.0
NS11,7.0,80.0,30.0,33.0,74.0,74,448.0,square4,i,0.0123,3,N,11.0
NS11,8.0,79.0,32.0,30.0,73.0,32,480.0,square2,r,0.0395,1,N,11.0
NS11,9.0,81.0,41.0,34.0,61.0,34,514.0,square3,f,0.2806,2,N,11.0
NS11,10.0,76.0,38.0,25.0,64.0,76,590.0,square1,j,0.1163,0,N,11.0
NS11,11.0,79.0,34.0,27.0,65.0,79,669.0,square1,j,0.1121,0,N,11.0
NS11,12.0,81.0,32.0,25.0,68.0,81,750.0,square1,j,0.0823,0,N,11.0
NS11,13.0,84.0,36.0,24.0,64.0,84,834.0,square1,j,0.1259,0,N,11.0
NS11,14.0,80.0,30.0,24.0,61.0,80,914.0,square1,j,0.1571,0,N,11.0
NS11,15.0,86.0,33.0,22.0,66.0,86,1000.0,square1,j,0.0379,0,N,11.0
NS11,16.0,85.0,32.0,20.0,64.0,85,1085.0,square1,j,0.1052,0,N,11.0
NS11,17.0,83.0,32.0,22.0,71.0,83,1168.0,square1,j,0.0602,0,N,11.0
NS11,18.0,80.0,31.0,19.0,66.0,80,1248.0,square1,j,0.0948,0,N,11.0
NS11,19.0,75.0,40.0,23.0,69.0,75,1323.0,square1,j,0.1597,0,N,11.0
NS11,20.0,73.0,37.0,14.0,67.0,73,1396.0,square1,j,0.189,0,N,11.0
NS11,21.0,81.0,34.0,23.0,70.0,81,1477.0,square1,j,0.0947,0,N,11.0
NS11,22.0,77.0,39.0,16.0,73.0,73,1550.0,square4,i,0.1939,3,N,11.0
NS11,23.0,78.0,30.0,23.0,74.0,30,1580.0,square2,r,0.9929,1,N,11.0
NS11,24.0,80.0,32.0,26.0,68.0,80,1660.0,square1,j,0.0746,0,N,11.0
NS11,25.0,81.0,29.0,29.0,73.0,73,1733.0,square4,i,0.0214,3,N,11.0
NS11,26.0,77.0,31.0,26.0,69.0,69,1802.0,square4,i,0.1491,3,N,11.0
NS11,27.0,69.0,47.0,29.0,64.0,69,1871.0,square1,j,0.0568,0,N,11.0
NS11,28.0,69.0,39.0,28.0,71.0,69,1940.0,square1,j,0.1258,0,N,11.0
NS11,29.0,71.0,41.0,24.0,66.0,71,2011.0,square1,j,0.0385,0,N,11.0
NS11,30.0,70.0,40.0,21.0,68.0,68,2079.0,square4,i,0.0213,3,N,11.0
NS11,31.0,72.0,44.0,21.0,68.0,68,2147.0,square4,i,0.1877,3,N,11.0
NS11,32.0,72.0,41.0,19.0,75.0,72,2219.0,square1,j,0.122,0,N,11.0
NS11,33.0,66.0,48.0,21.0,72.0,66,2285.0,square1,j,0.1105,0,N,11.0
NS11,34.0,67.0,48.0,24.0,72.0,67,2352.0,square1,j,0.0771,0,N,11.0
NS11,35.0,58.0,52.0,14.0,73.0,58,2410.0,square1,j,0.0565,0,N,11.0
NS11,36.0,61.0,52.0,23.0,70.0,70,2480.0,square4,i,0.0387,3,N,11.0
NS11,37.0,50.0,55.0,29.0,67.0,67,2547.0,square4,i,0.1477,3,N,11.0
NS11,38.0,51.0,54.0,20.0,64.0,64,2611.0,square4,i,0.1134,3,N,11.0
NS11,39.0,54.0,49.0,26.0,63.0,49,2660.0,square2,r,0.1543,1,N,11.0
NS11,40.0,50.0,47.0,24.0,70.0,24,2684.0,square3,f,0.1896,2,N,11.0
NS11,41.0,54.0,46.0,23.0,63.0,63,2747.0,square4,i,0.1547,3,N,11.0
NS11,42.0,54.0,47.0,25.0,61.0,61,2808.0,square4,i,0.055,3,N,11.0
NS11,43.0,46.0,49.0,33.0,72.0,72,2880.0,square4,i,0.0007,3,N,11.0
NS11,44.0,54.0,50.0,38.0,72.0,72,2952.0,square4,i,0.0324,3,N,11.0
NS11,45.0,56.0,53.0,39.0,81.0,81,3033.0,square4,i,0.0589,3,N,11.0
NS11,46.0,57.0,55.0,33.0,77.0,77,3110.0,square4,i,0.0005,3,N,11.0
NS11,47.0,56.0,51.0,32.0,76.0,76,3186.0,square4,i,0.2137,3,N,11.0
NS11,48.0,58.0,49.0,29.0,85.0,85,3271.0,square4,i,0.0885,3,N,11.0
NS11,49.0,58.0,53.0,27.0,83.0,83,3354.0,square4,i,0.1133,3,N,11.0
NS11,50.0,62.0,49.0,24.0,80.0,80,3434.0,square4,i,0.0226,3,N,11.0
NS11,51.0,57.0,55.0,23.0,77.0,77,3511.0,square4,i,0.106,3,N,11.0
NS11,52.0,56.0,55.0,20.0,77.0,77,3588.0,square4,i,0.0383,3,N,11.0
NS11,53.0,59.0,56.0,20.0,78.0,78,3666.0,square4,i,0.0589,3,N,11.0
NS11,54.0,58.0,57.0,27.0,74.0,58,3724.0,square1,j,0.1268,0,N,11.0
NS11,55.0,60.0,55.0,24.0,79.0,55,3779.0,square2,r,1.1735,1,N,11.0
NS11,56.0,60.0,52.0,22.0,77.0,22,3801.0,square3,f,0.0008,2,N,11.0
NS11,57.0,58.0,55.0,22.0,72.0,72,3873.0,square4,i,0.1433,3,N,11.0
NS11,58.0,63.0,52.0,22.0,75.0,75,3948.0,square4,i,0.0933,3,N,11.0
NS11,59.0,62.0,56.0,17.0,70.0,70,4018.0,square4,i,0.03,3,N,11.0
NS11,60.0,61.0,55.0,22.0,70.0,70,4088.0,square4,i,0.1305,3,N,11.0
NS11,61.0,57.0,52.0,21.0,76.0,57,4145.0,square1,j,0.1306,0,N,11.0
NS11,62.0,57.0,48.0,28.0,75.0,75,4220.0,square4,i,0.0065,3,N,11.0
NS11,63.0,57.0,58.0,30.0,68.0,68,4288.0,square4,i,0.2219,3,N,11.0
NS11,64.0,61.0,61.0,27.0,74.0,74,4362.0,square4,i,0.1724,3,N,11.0
NS11,65.0,67.0,63.0,40.0,71.0,71,4433.0,square4,i,0.1222,3,N,11.0
NS11,66.0,69.0,55.0,38.0,73.0,73,4506.0,square4,i,0.1494,3,N,11.0
NS11,67.0,72.0,57.0,36.0,65.0,65,4571.0,square4,i,0.1288,3,N,11.0
NS11,68.0,71.0,61.0,36.0,64.0,64,4635.0,square4,i,0.0894,3,N,11.0
NS11,69.0,74.0,66.0,37.0,58.0,74,4709.0,square1,j,0.1242,0,N,11.0
NS11,70.0,69.0,60.0,40.0,66.0,69,4778.0,square1,j,0.1054,0,N,11.0
NS11,71.0,71.0,58.0,40.0,64.0,71,4849.0,square1,j,0.0214,0,N,11.0
NS11,72.0,72.0,58.0,46.0,67.0,72,4921.0,square1,j,0.1549,0,N,11.0
NS11,73.0,72.0,56.0,47.0,65.0,72,4993.0,square1,j,0.0036,0,N,11.0
NS11,74.0,66.0,54.0,47.0,63.0,66,5059.0,square1,j,0.1602,0,N,11.0
NS11,75.0,75.0,53.0,43.0,58.0,75,5134.0,square1,j,0.0555,0,N,11.0
NS11,76.0,75.0,48.0,40.0,59.0,75,5209.0,square1,j,0.2831,0,N,11.0
NS11,77.0,65.0,48.0,36.0,58.0,58,5267.0,square4,i,0.0781,3,N,11.0
NS11,78.0,70.0,45.0,37.0,59.0,45,5312.0,square2,r,1.8097,1,N,11.0
NS11,79.0,70.0,41.0,36.0,59.0,36,5348.0,square3,f,0.2439,2,N,11.0
NS11,80.0,73.0,43.0,39.0,59.0,73,5421.0,square1,j,0.1723,0,N,11.0
NS11,81.0,72.0,39.0,38.0,60.0,72,5493.0,square1,j,0.0391,0,N,11.0
NS11,82.0,72.0,39.0,44.0,65.0,72,5565.0,square1,j,0.0086,0,N,11.0
NS11,83.0,68.0,38.0,40.0,61.0,68,5633.0,square1,j,0.0026,0,N,11.0
NS11,84.0,69.0,36.0,36.0,64.0,69,5702.0,square1,j,0.0215,0,N,11.0
NS11,85.0,70.0,34.0,40.0,69.0,70,5772.0,square1,j,0.0424,0,N,11.0
NS11,86.0,70.0,32.0,36.0,71.0,70,5842.0,square1,j,0.0216,0,N,11.0
NS11,87.0,69.0,31.0,37.0,70.0,69,5911.0,square1,j,0.222,0,N,11.0
NS11,88.0,69.0,34.0,41.0,67.0,67,5978.0,square4,i,0.0396,3,N,11.0
NS11,89.0,67.0,39.0,44.0,67.0,67,6045.0,square4,i,0.0749,3,N,11.0
NS11,90.0,64.0,33.0,36.0,69.0,64,6109.0,square1,j,0.1953,0,N,11.0
NS11,91.0,60.0,33.0,38.0,67.0,67,6176.0,square4,i,0.0006,3,N,11.0
NS11,92.0,60.0,33.0,37.0,68.0,68,6244.0,square4,i,0.0232,3,N,11.0
NS11,93.0,54.0,36.0,38.0,73.0,73,6317.0,square4,i,0.0631,3,N,11.0
NS11,94.0,58.0,35.0,39.0,68.0,68,6385.0,square4,i,0.0719,3,N,11.0
NS11,95.0,50.0,38.0,32.0,77.0,77,6462.0,square4,i,0.0558,3,N,11.0
NS11,96.0,53.0,42.0,30.0,71.0,42,6504.0,square2,r,0.0006,1,N,11.0
NS11,97.0,54.0,38.0,32.0,75.0,32,6536.0,square3,f,0.1216,2,N,11.0
NS11,98.0,52.0,48.0,32.0,72.0,52,6588.0,square1,j,0.5462,0,N,11.0
NS11,99.0,55.0,45.0,33.0,73.0,73,6661.0,square4,i,0.1257,3,N,11.0
NS9,0.0,40.0,33.0,41.0,64.0,41,41.0,square3,r,1.4985,2,N,9.0
NS9,1.0,40.0,19.0,39.0,64.0,40,81.0,square1,f,0.5658,0,N,9.0
NS9,2.0,41.0,16.0,44.0,59.0,59,140.0,square4,j,0.209,3,N,9.0
NS9,3.0,41.0,19.0,48.0,58.0,19,159.0,square2,i,0.0474,1,N,9.0
NS9,4.0,46.0,18.0,45.0,54.0,45,204.0,square3,r,0.0278,2,N,9.0
NS9,5.0,40.0,17.0,53.0,54.0,40,244.0,square1,f,0.3056,0,N,9.0
NS9,6.0,40.0,19.0,47.0,46.0,47,291.0,square3,r,0.024,2,N,9.0
NS9,7.0,44.0,21.0,51.0,49.0,51,342.0,square3,r,0.1557,2,N,9.0
NS9,8.0,41.0,26.0,44.0,55.0,44,386.0,square3,r,0.1877,2,N,9.0
NS9,9.0,36.0,15.0,44.0,54.0,54,440.0,square4,j,0.0446,3,N,9.0
NS9,10.0,32.0,19.0,48.0,49.0,49,489.0,square4,j,0.0404,3,N,9.0
NS9,11.0,32.0,18.0,50.0,57.0,57,546.0,square4,j,0.1232,3,N,9.0
NS9,12.0,32.0,18.0,57.0,52.0,52,598.0,square4,j,0.1472,3,N,9.0
NS9,13.0,32.0,8.0,58.0,56.0,56,654.0,square4,j,0.0325,3,N,9.0
NS9,14.0,28.0,9.0,61.0,55.0,55,709.0,square4,j,0.0624,3,N,9.0
NS9,15.0,31.0,11.0,64.0,48.0,48,757.0,square4,j,0.1939,3,N,9.0
NS9,16.0,34.0,13.0,68.0,47.0,47,804.0,square4,j,0.0895,3,N,9.0
NS9,17.0,37.0,11.0,71.0,54.0,71,875.0,square3,r,0.2252,2,N,9.0
NS9,18.0,35.0,10.0,71.0,50.0,71,946.0,square3,r,0.1057,2,N,9.0
NS9,19.0,32.0,21.0,77.0,49.0,77,1023.0,square3,r,0.107,2,N,9.0
NS9,20.0,41.0,22.0,74.0,48.0,74,1097.0,square3,r,0.0568,2,N,9.0
NS9,21.0,40.0,21.0,75.0,50.0,75,1172.0,square3,r,0.0271,2,N,9.0
NS9,22.0,42.0,23.0,72.0,54.0,72,1244.0,square3,r,0.0786,2,N,9.0
NS9,23.0,43.0,22.0,75.0,45.0,75,1319.0,square3,r,0.0971,2,N,9.0
NS9,24.0,41.0,18.0,70.0,49.0,70,1389.0,square3,r,0.0551,2,N,9.0
NS9,25.0,38.0,21.0,75.0,53.0,75,1464.0,square3,r,0.072,2,N,9.0
NS9,26.0,40.0,20.0,73.0,54.0,73,1537.0,square3,r,0.1057,2,N,9.0
NS9,27.0,46.0,21.0,74.0,56.0,21,1558.0,square2,i,0.1431,1,N,9.0
NS9,28.0,51.0,25.0,72.0,58.0,51,1609.0,square1,f,0.3457,0,N,9.0
NS9,29.0,43.0,29.0,71.0,56.0,71,1680.0,square3,r,0.0008,2,N,9.0
NS9,30.0,38.0,26.0,71.0,52.0,71,1751.0,square3,r,0.2097,2,N,9.0
NS9,31.0,43.0,23.0,73.0,53.0,73,1824.0,square3,r,0.1732,2,N,9.0
NS9,32.0,43.0,24.0,76.0,52.0,76,1900.0,square3,r,0.1118,2,N,9.0
NS9,33.0,41.0,18.0,72.0,49.0,72,1972.0,square3,r,0.089,2,N,9.0
NS9,34.0,36.0,26.0,68.0,55.0,68,2040.0,square3,r,0.105,2,N,9.0
NS9,35.0,34.0,34.0,68.0,52.0,68,2108.0,square3,r,0.0814,2,N,9.0
NS9,36.0,34.0,43.0,70.0,49.0,70,2178.0,square3,r,0.105,2,N,9.0
NS9,37.0,32.0,41.0,61.0,47.0,61,2239.0,square3,r,0.0714,2,N,9.0
NS9,38.0,28.0,41.0,65.0,47.0,65,2304.0,square3,r,0.196,2,N,9.0
NS9,39.0,28.0,43.0,61.0,48.0,61,2365.0,square3,r,0.2635,2,N,9.0
NS9,40.0,26.0,46.0,65.0,39.0,65,2430.0,square3,r,0.0199,2,N,9.0
NS9,41.0,21.0,38.0,62.0,41.0,62,2492.0,square3,r,0.0317,2,N,9.0
NS9,42.0,18.0,37.0,59.0,42.0,59,2551.0,square3,r,0.1098,2,N,9.0
NS9,43.0,18.0,44.0,57.0,39.0,57,2608.0,square3,r,0.0644,2,N,9.0
NS9,44.0,19.0,43.0,58.0,36.0,43,2651.0,square2,i,0.1801,1,N,9.0
NS9,45.0,23.0,42.0,53.0,39.0,39,2690.0,square4,j,0.1269,3,N,9.0
NS9,46.0,22.0,48.0,58.0,43.0,22,2712.0,square1,f,0.1054,0,N,9.0
NS9,47.0,20.0,47.0,51.0,44.0,51,2763.0,square3,r,0.1877,2,N,9.0
NS9,48.0,21.0,43.0,57.0,40.0,57,2820.0,square3,r,0.1076,2,N,9.0
NS9,49.0,25.0,38.0,59.0,46.0,38,2858.0,square2,i,0.1432,1,N,9.0
NS9,50.0,27.0,41.0,49.0,52.0,49,2907.0,square3,r,0.007,2,N,9.0
NS9,51.0,20.0,42.0,52.0,54.0,52,2959.0,square3,r,0.0093,2,N,9.0
NS9,52.0,18.0,41.0,51.0,48.0,51,3010.0,square3,r,0.0395,2,N,9.0
NS9,53.0,17.0,43.0,52.0,50.0,52,3062.0,square3,r,0.0546,2,N,9.0
NS9,54.0,27.0,37.0,55.0,56.0,55,3117.0,square3,r,0.0007,2,N,9.0
NS9,55.0,30.0,38.0,59.0,50.0,50,3167.0,square4,j,0.1103,3,N,9.0
NS9,56.0,32.0,49.0,54.0,59.0,49,3216.0,square2,i,0.1276,1,N,9.0
NS9,57.0,34.0,50.0,50.0,58.0,34,3250.0,square1,f,0.193,0,N,9.0
NS9,58.0,28.0,49.0,54.0,51.0,54,3304.0,square3,r,0.1378,2,N,9.0
NS9,59.0,26.0,47.0,46.0,49.0,46,3350.0,square3,r,0.0101,2,N,9.0
NS9,60.0,30.0,47.0,50.0,51.0,47,3397.0,square2,i,0.1984,1,N,9.0
NS9,61.0,29.0,43.0,51.0,50.0,43,3440.0,square2,i,0.1877,1,N,9.0
NS9,62.0,32.0,42.0,52.0,54.0,54,3494.0,square4,j,0.1892,3,N,9.0
NS9,63.0,35.0,45.0,57.0,46.0,46,3540.0,square4,j,0.1713,3,N,9.0
NS9,64.0,37.0,41.0,53.0,44.0,44,3584.0,square4,j,0.025,3,N,9.0
NS9,65.0,34.0,41.0,50.0,49.0,49,3633.0,square4,j,0.0969,3,N,9.0
NS9,66.0,38.0,43.0,46.0,53.0,43,3676.0,square2,i,0.1253,1,N,9.0
NS9,67.0,36.0,35.0,51.0,54.0,51,3727.0,square3,r,0.1553,2,N,9.0
NS9,68.0,43.0,38.0,48.0,57.0,48,3775.0,square3,r,0.1071,2,N,9.0
NS9,69.0,42.0,42.0,48.0,49.0,49,3824.0,square4,j,0.01,3,N,9.0
NS9,70.0,45.0,40.0,50.0,51.0,51,3875.0,square4,j,0.1432,3,N,9.0
NS9,71.0,49.0,42.0,48.0,52.0,52,3927.0,square4,j,0.1717,3,N,9.0
NS9,72.0,39.0,44.0,47.0,58.0,47,3974.0,square3,r,0.0217,2,N,9.0
NS9,73.0,40.0,45.0,45.0,62.0,45,4019.0,square3,r,0.0026,2,N,9.0
NS9,74.0,46.0,48.0,47.0,56.0,56,4075.0,square4,j,0.0105,3,N,9.0
NS9,75.0,35.0,39.0,53.0,65.0,65,4140.0,square4,j,0.0715,3,N,9.0
NS9,76.0,40.0,45.0,56.0,67.0,67,4207.0,square4,j,0.0943,3,N,9.0
NS9,77.0,38.0,46.0,54.0,69.0,69,4276.0,square4,j,0.0879,3,N,9.0
NS9,78.0,37.0,42.0,53.0,69.0,69,4345.0,square4,j,0.1049,3,N,9.0
NS9,79.0,40.0,44.0,53.0,70.0,70,4415.0,square4,j,0.0995,3,N,9.0
NS9,80.0,37.0,50.0,55.0,70.0,70,4485.0,square4,j,0.044,3,N,9.0
NS9,81.0,33.0,54.0,54.0,63.0,63,4548.0,square4,j,0.0897,3,N,9.0
NS9,82.0,35.0,55.0,52.0,74.0,74,4622.0,square4,j,0.1438,3,N,9.0
NS9,83.0,34.0,48.0,56.0,75.0,75,4697.0,square4,j,0.0649,3,N,9.0
NS9,84.0,39.0,51.0,62.0,78.0,78,4775.0,square4,j,0.0284,3,N,9.0
NS9,85.0,38.0,57.0,55.0,77.0,77,4852.0,square4,j,0.0722,3,N,9.0
NS9,86.0,34.0,53.0,57.0,68.0,68,4920.0,square4,j,0.0102,3,N,9.0
NS9,87.0,35.0,48.0,55.0,69.0,48,4968.0,square2,i,0.0547,1,N,9.0
NS9,88.0,41.0,48.0,50.0,69.0,69,5037.0,square4,j,0.1281,3,N,9.0
NS9,89.0,38.0,54.0,55.0,70.0,70,5107.0,square4,j,0.124,3,N,9.0
NS9,90.0,43.0,55.0,49.0,71.0,71,5178.0,square4,j,0.0129,3,N,9.0
NS9,91.0,41.0,46.0,54.0,78.0,99999,5178.0,invalid,,,-1,N,9.0
NS9,92.0,40.0,42.0,41.0,72.0,40,5218.0,square1,f,0.1061,0,N,9.0
NS9,93.0,39.0,43.0,47.0,70.0,47,5265.0,square3,r,0.0881,2,N,9.0
NS9,94.0,36.0,47.0,43.0,80.0,80,5345.0,square4,j,0.1419,3,N,9.0
NS9,95.0,37.0,46.0,43.0,75.0,75,5420.0,square4,j,0.0703,3,N,9.0
NS9,96.0,39.0,47.0,47.0,75.0,75,5495.0,square4,j,0.1406,3,N,9.0
NS9,97.0,35.0,41.0,49.0,80.0,41,5536.0,square2,i,0.1061,1,N,9.0
NS9,98.0,33.0,45.0,56.0,74.0,74,5610.0,square4,j,0.0767,3,N,9.0
NS9,99.0,34.0,42.0,58.0,74.0,74,5684.0,square4,j,0.1421,3,N,9.0
NS10,0.0,61.0,42.0,19.0,80.0,61,61.0,square1,r,1.3553,0,N,10.0
NS10,1.0,62.0,41.0,25.0,78.0,78,139.0,square4,f,0.1837,3,N,10.0
NS10,2.0,64.0,42.0,22.0,80.0,22,161.0,square3,i,0.0395,2,N,10.0
NS10,3.0,66.0,50.0,21.0,73.0,50,211.0,square2,j,0.0377,1,N,10.0
NS10,4.0,65.0,48.0,19.0,80.0,80,291.0,square4,f,0.1559,3,N,10.0
NS10,5.0,66.0,48.0,23.0,75.0,75,366.0,square4,f,0.1549,3,N,10.0
NS10,6.0,60.0,47.0,26.0,77.0,77,443.0,square4,f,0.1152,3,N,10.0
NS10,7.0,66.0,43.0,25.0,81.0,81,524.0,square4,f,0.1931,3,N,10.0
NS10,8.0,72.0,42.0,23.0,80.0,80,604.0,square4,f,0.105,3,N,10.0
NS10,9.0,66.0,45.0,21.0,81.0,81,685.0,square4,f,0.0202,3,N,10.0
NS10,10.0,69.0,46.0,29.0,77.0,77,762.0,square4,f,0.1051,3,N,10.0
NS10,11.0,68.0,44.0,27.0,70.0,70,832.0,square4,f,0.1273,3,N,10.0
NS10,12.0,68.0,46.0,27.0,65.0,68,900.0,square1,r,0.0821,0,N,10.0
NS10,13.0,67.0,50.0,23.0,65.0,23,923.0,square3,i,0.2316,2,N,10.0
NS10,14.0,67.0,49.0,31.0,61.0,49,972.0,square2,j,0.0709,1,N,10.0
NS10,15.0,71.0,51.0,28.0,69.0,71,1043.0,square1,r,0.0005,0,N,10.0
NS10,16.0,71.0,48.0,25.0,64.0,64,1107.0,square4,f,0.0957,3,N,10.0
NS10,17.0,68.0,48.0,25.0,60.0,68,1175.0,square1,r,0.1458,0,N,10.0
NS10,18.0,68.0,49.0,23.0,66.0,68,1243.0,square1,r,0.1707,0,N,10.0
NS10,19.0,67.0,51.0,23.0,64.0,67,1310.0,square1,r,0.1834,0,N,10.0
NS10,20.0,65.0,54.0,29.0,58.0,65,1375.0,square1,r,0.1733,0,N,10.0
NS10,21.0,61.0,58.0,22.0,61.0,61,1436.0,square1,r,0.0584,0,N,10.0
NS10,22.0,67.0,51.0,23.0,60.0,67,1503.0,square1,r,0.1272,0,N,10.0
NS10,23.0,65.0,57.0,22.0,60.0,65,1568.0,square1,r,0.3729,0,N,10.0
NS10,24.0,67.0,58.0,26.0,56.0,56,1624.0,square4,f,0.1931,3,N,10.0
NS10,25.0,70.0,67.0,26.0,60.0,70,1694.0,square1,r,0.2561,0,N,10.0
NS10,26.0,71.0,58.0,24.0,55.0,55,1749.0,square4,f,0.0564,3,N,10.0
NS10,27.0,74.0,57.0,24.0,59.0,74,1823.0,square1,r,0.0638,0,N,10.0
NS10,28.0,76.0,62.0,24.0,56.0,76,1899.0,square1,r,0.0315,0,N,10.0
NS10,29.0,78.0,66.0,21.0,61.0,78,1977.0,square1,r,0.1715,0,N,10.0
NS10,30.0,74.0,62.0,20.0,52.0,74,2051.0,square1,r,0.0981,0,N,10.0
NS10,31.0,74.0,63.0,21.0,53.0,74,2125.0,square1,r,0.3042,0,N,10.0
NS10,32.0,77.0,62.0,19.0,50.0,77,2202.0,square1,r,0.2148,0,N,10.0
NS10,33.0,74.0,63.0,21.0,50.0,74,2276.0,square1,r,0.1266,0,N,10.0
NS10,34.0,69.0,64.0,16.0,47.0,69,2345.0,square1,r,0.0724,0,N,10.0
NS10,35.0,68.0,60.0,14.0,51.0,68,2413.0,square1,r,0.2096,0,N,10.0
NS10,36.0,76.0,59.0,13.0,52.0,76,2489.0,square1,r,0.2277,0,N,10.0
NS10,37.0,71.0,60.0,16.0,50.0,50,2539.0,square4,f,0.1764,3,N,10.0
NS10,38.0,70.0,56.0,27.0,49.0,70,2609.0,square1,r,0.1933,0,N,10.0
NS10,39.0,75.0,59.0,22.0,49.0,59,2668.0,square2,j,0.1297,1,N,10.0
NS10,40.0,70.0,56.0,27.0,51.0,56,2724.0,square2,j,0.272,1,N,10.0
NS10,41.0,73.0,57.0,24.0,54.0,24,2748.0,square3,i,0.0964,2,N,10.0
NS10,42.0,70.0,58.0,24.0,51.0,70,2818.0,square1,r,0.1757,0,N,10.0
NS10,43.0,70.0,60.0,26.0,45.0,70,2888.0,square1,r,0.0987,0,N,10.0
NS10,44.0,68.0,58.0,27.0,53.0,68,2956.0,square1,r,0.0732,0,N,10.0
NS10,45.0,70.0,61.0,31.0,49.0,70,3026.0,square1,r,0.1218,0,N,10.0
NS10,46.0,65.0,60.0,29.0,43.0,65,3091.0,square1,r,0.1388,0,N,10.0
NS10,47.0,65.0,61.0,32.0,44.0,65,3156.0,square1,r,0.0223,0,N,10.0
NS10,48.0,67.0,58.0,31.0,46.0,67,3223.0,square1,r,0.0714,0,N,10.0
NS10,49.0,76.0,55.0,38.0,43.0,76,3299.0,square1,r,0.1818,0,N,10.0
NS10,50.0,74.0,65.0,36.0,40.0,74,3373.0,square1,r,0.0942,0,N,10.0
NS10,51.0,74.0,58.0,34.0,40.0,74,3447.0,square1,r,0.0383,0,N,10.0
NS10,52.0,69.0,65.0,28.0,43.0,69,3516.0,square1,r,0.094,0,N,10.0
NS10,53.0,69.0,65.0,32.0,40.0,69,3585.0,square1,r,0.1929,0,N,10.0
NS10,54.0,72.0,61.0,32.0,41.0,61,3646.0,square2,j,0.08,1,N,10.0
NS10,55.0,65.0,64.0,36.0,33.0,65,3711.0,square1,r,0.039,0,N,10.0
NS10,56.0,75.0,64.0,37.0,37.0,75,3786.0,square1,r,0.1563,0,N,10.0
NS10,57.0,72.0,62.0,36.0,38.0,62,3848.0,square2,j,0.0237,1,N,10.0
NS10,58.0,63.0,68.0,38.0,33.0,38,3886.0,square3,i,0.1464,2,N,10.0
NS10,59.0,65.0,64.0,43.0,34.0,34,3920.0,square4,f,0.2059,3,N,10.0
NS10,60.0,62.0,64.0,51.0,40.0,62,3982.0,square1,r,0.0219,0,N,10.0
NS10,61.0,61.0,65.0,45.0,38.0,61,4043.0,square1,r,0.0023,0,N,10.0
NS10,62.0,66.0,63.0,41.0,37.0,66,4109.0,square1,r,0.0008,0,N,10.0
NS10,63.0,67.0,62.0,45.0,41.0,67,4176.0,square1,r,0.1884,0,N,10.0
NS10,64.0,72.0,60.0,44.0,36.0,60,4236.0,square2,j,0.0215,1,N,10.0
NS10,65.0,73.0,65.0,42.0,39.0,73,4309.0,square1,r,0.0214,0,N,10.0
NS10,66.0,72.0,67.0,45.0,43.0,72,4381.0,square1,r,0.0031,0,N,10.0
NS10,67.0,66.0,70.0,44.0,40.0,66,4447.0,square1,r,0.0726,0,N,10.0
NS10,68.0,61.0,69.0,45.0,44.0,61,4508.0,square1,r,0.0226,0,N,10.0
NS10,69.0,64.0,68.0,42.0,43.0,64,4572.0,square1,r,0.0599,0,N,10.0
NS10,70.0,66.0,72.0,41.0,42.0,66,4638.0,square1,r,0.1386,0,N,10.0
NS10,71.0,64.0,72.0,46.0,45.0,64,4702.0,square1,r,0.106,0,N,10.0
NS10,72.0,64.0,69.0,44.0,39.0,69,4771.0,square2,j,0.1121,1,N,10.0
NS10,73.0,60.0,74.0,48.0,45.0,74,4845.0,square2,j,0.1125,1,N,10.0
NS10,74.0,57.0,75.0,48.0,41.0,75,4920.0,square2,j,0.1052,1,N,10.0
NS10,75.0,66.0,75.0,46.0,40.0,75,4995.0,square2,j,0.0026,1,N,10.0
NS10,76.0,63.0,77.0,46.0,40.0,77,5072.0,square2,j,0.0218,1,N,10.0
NS10,77.0,62.0,74.0,43.0,34.0,74,5146.0,square2,j,0.0749,1,N,10.0
NS10,78.0,60.0,71.0,48.0,33.0,71,5217.0,square2,j,0.0036,1,N,10.0
NS10,79.0,63.0,68.0,47.0,29.0,68,5285.0,square2,j,0.0433,1,N,10.0
NS10,80.0,54.0,71.0,42.0,32.0,71,5356.0,square2,j,0.0434,1,N,10.0
NS10,81.0,52.0,72.0,44.0,30.0,52,5408.0,square1,r,0.8224,0,N,10.0
NS10,82.0,51.0,77.0,41.0,31.0,41,5449.0,square3,i,0.7062,2,N,10.0
NS10,83.0,52.0,63.0,41.0,35.0,35,5484.0,square4,f,0.5648,3,N,10.0
NS10,84.0,48.0,70.0,37.0,34.0,70,5554.0,square2,j,0.1477,1,N,10.0
NS10,85.0,51.0,73.0,38.0,30.0,73,5627.0,square2,j,0.0109,1,N,10.0
NS10,86.0,55.0,79.0,45.0,27.0,79,5706.0,square2,j,0.056,1,N,10.0
NS10,87.0,54.0,83.0,47.0,21.0,83,5789.0,square2,j,0.2057,1,N,10.0
NS10,88.0,59.0,78.0,45.0,21.0,78,5867.0,square2,j,0.0054,1,N,10.0
NS10,89.0,60.0,74.0,45.0,21.0,74,5941.0,square2,j,0.0391,1,N,10.0
NS10,90.0,55.0,71.0,50.0,18.0,71,6012.0,square2,j,0.0394,1,N,10.0
NS10,91.0,56.0,71.0,46.0,14.0,71,6083.0,square2,j,0.0048,1,N,10.0
NS10,92.0,59.0,70.0,46.0,20.0,70,6153.0,square2,j,0.1617,1,N,10.0
NS10,93.0,65.0,72.0,46.0,21.0,72,6225.0,square2,j,0.161,1,N,10.0
NS10,94.0,63.0,68.0,46.0,20.0,68,6293.0,square2,j,0.0006,1,N,10.0
NS10,95.0,69.0,70.0,48.0,22.0,70,6363.0,square2,j,0.0224,1,N,10.0
NS10,96.0,68.0,69.0,45.0,27.0,69,6432.0,square2,j,0.0562,1,N,10.0
NS10,97.0,74.0,69.0,43.0,35.0,69,6501.0,square2,j,0.0935,1,N,10.0
NS10,98.0,73.0,68.0,43.0,30.0,68,6569.0,square2,j,0.0437,1,N,10.0
NS10,99.0,70.0,61.0,39.0,32.0,61,6630.0,square2,j,0.06,1,N,10.0
