block,Trial,square1,square2,square3,square4,currPoints,totalPoints,square,choiceKey.keys,choiceKey.rt,armNum,blockType,blockNum
prac,0.0,100.0,0.0,0.0,0.0,0.0,0.0,square2,,,1,p,0.0
prac,1.0,100.0,0.0,0.0,0.0,100.0,100.0,square1,,,0,p,0.0
prac,2.0,100.0,0.0,0.0,0.0,0.0,100.0,square3,,,2,p,0.0
prac,3.0,100.0,0.0,0.0,0.0,0.0,100.0,square4,,,3,p,0.0
prac,4.0,100.0,0.0,0.0,0.0,100.0,200.0,square1,,,0,p,0.0
prac,5.0,100.0,0.0,0.0,0.0,100.0,300.0,square1,,,0,p,0.0
prac,6.0,100.0,0.0,0.0,0.0,100.0,400.0,square1,,,0,p,0.0
prac,7.0,100.0,0.0,0.0,0.0,100.0,500.0,square1,,,0,p,0.0
prac,8.0,100.0,0.0,0.0,0.0,100.0,600.0,square1,,,0,p,0.0
prac,9.0,100.0,0.0,0.0,0.0,100.0,700.0,square1,,,0,p,0.0
NS4,0.0,55.0,53.0,59.0,44.0,55.0,55.0,square1,r,0.5566,0,N,4.0
NS4,1.0,49.0,56.0,64.0,41.0,49.0,104.0,square1,r,0.2108,0,N,4.0
NS4,2.0,50.0,54.0,71.0,48.0,48.0,152.0,square4,f,0.1437,3,N,4.0
NS4,3.0,53.0,58.0,67.0,50.0,58.0,210.0,square2,j,0.2374,1,N,4.0
NS4,4.0,49.0,51.0,70.0,55.0,70.0,280.0,square3,i,0.3152,2,N,4.0
NS4,5.0,55.0,59.0,73.0,58.0,73.0,353.0,square3,i,0.1515,2,N,4.0
NS4,6.0,56.0,54.0,71.0,57.0,71.0,424.0,square3,i,0.1942,2,N,4.0
NS4,7.0,60.0,54.0,75.0,52.0,75.0,499.0,square3,i,0.2312,2,N,4.0
NS4,8.0,58.0,53.0,74.0,52.0,74.0,573.0,square3,i,0.1155,2,N,4.0
NS4,9.0,46.0,48.0,78.0,51.0,78.0,651.0,square3,i,0.1047,2,N,4.0
NS4,10.0,55.0,48.0,78.0,51.0,78.0,729.0,square3,i,0.145,2,N,4.0
NS4,11.0,55.0,44.0,79.0,49.0,79.0,808.0,square3,i,0.1934,2,N,4.0
NS4,12.0,50.0,40.0,79.0,50.0,79.0,887.0,square3,i,0.1524,2,N,4.0
NS4,13.0,45.0,39.0,79.0,53.0,79.0,966.0,square3,i,0.091,2,N,4.0
NS4,14.0,44.0,38.0,77.0,56.0,77.0,1043.0,square3,i,0.0334,2,N,4.0
NS4,15.0,45.0,32.0,68.0,52.0,45.0,1088.0,square1,r,0.0257,0,N,4.0
NS4,16.0,49.0,32.0,74.0,53.0,32.0,1120.0,square2,j,0.5564,1,N,4.0
NS4,17.0,45.0,32.0,69.0,51.0,69.0,1189.0,square3,i,0.3512,2,N,4.0
NS4,18.0,50.0,34.0,69.0,47.0,69.0,1258.0,square3,i,0.1028,2,N,4.0
NS4,19.0,50.0,36.0,65.0,53.0,65.0,1323.0,square3,i,0.1781,2,N,4.0
NS4,20.0,45.0,36.0,62.0,53.0,53.0,1376.0,square4,f,0.0977,3,N,4.0
NS4,21.0,49.0,35.0,62.0,55.0,62.0,1438.0,square3,i,0.0427,2,N,4.0
NS4,22.0,53.0,32.0,61.0,60.0,53.0,1491.0,square1,r,0.3845,0,N,4.0
NS4,23.0,52.0,33.0,58.0,54.0,58.0,1549.0,square3,i,0.3723,2,N,4.0
NS4,24.0,48.0,32.0,52.0,60.0,32.0,1581.0,square2,j,0.2273,1,N,4.0
NS4,25.0,47.0,30.0,53.0,57.0,53.0,1634.0,square3,i,0.1898,2,N,4.0
NS4,26.0,50.0,30.0,60.0,55.0,60.0,1694.0,square3,i,0.2191,2,N,4.0
NS4,27.0,50.0,28.0,62.0,47.0,62.0,1756.0,square3,i,0.1694,2,N,4.0
NS4,28.0,54.0,28.0,58.0,49.0,58.0,1814.0,square3,i,0.1356,2,N,4.0
NS4,29.0,44.0,29.0,50.0,49.0,50.0,1864.0,square3,i,0.1163,2,N,4.0
NS4,30.0,43.0,26.0,55.0,57.0,55.0,1919.0,square3,i,0.3759,2,N,4.0
NS4,31.0,43.0,25.0,60.0,54.0,60.0,1979.0,square3,i,0.0497,2,N,4.0
NS4,32.0,34.0,27.0,58.0,56.0,58.0,2037.0,square3,i,0.2036,2,N,4.0
NS4,33.0,34.0,20.0,60.0,62.0,60.0,2097.0,square3,i,0.2502,2,N,4.0
NS4,34.0,38.0,28.0,58.0,57.0,57.0,2154.0,square4,f,0.3028,3,N,4.0
NS4,35.0,40.0,24.0,63.0,59.0,24.0,2178.0,square2,j,0.3167,1,N,4.0
NS4,36.0,36.0,30.0,56.0,63.0,36.0,2214.0,square1,r,0.0118,0,N,4.0
NS4,37.0,40.0,29.0,54.0,63.0,54.0,2268.0,square3,i,0.0426,2,N,4.0
NS4,38.0,40.0,33.0,53.0,69.0,69.0,2337.0,square4,f,0.3453,3,N,4.0
NS4,39.0,36.0,30.0,57.0,67.0,67.0,2404.0,square4,f,0.1205,3,N,4.0
NS4,40.0,33.0,33.0,58.0,68.0,68.0,2472.0,square4,f,0.3215,3,N,4.0
NS4,41.0,34.0,28.0,58.0,72.0,72.0,2544.0,square4,f,0.1998,3,N,4.0
NS4,42.0,35.0,30.0,60.0,70.0,70.0,2614.0,square4,f,0.2759,3,N,4.0
NS4,43.0,35.0,34.0,57.0,63.0,63.0,2677.0,square4,f,0.1781,3,N,4.0
NS4,44.0,30.0,32.0,59.0,69.0,69.0,2746.0,square4,f,0.2636,3,N,4.0
NS4,45.0,29.0,31.0,60.0,66.0,66.0,2812.0,square4,f,0.1089,3,N,4.0
NS4,46.0,35.0,34.0,66.0,66.0,66.0,2878.0,square4,f,0.3947,3,N,4.0
NS4,47.0,35.0,28.0,63.0,62.0,63.0,2941.0,square3,i,0.0341,2,N,4.0
NS4,48.0,37.0,37.0,61.0,55.0,55.0,2996.0,square4,f,0.3513,3,N,4.0
NS4,49.0,40.0,34.0,59.0,54.0,59.0,3055.0,square3,i,0.083,2,N,4.0
NS4,50.0,39.0,38.0,68.0,51.0,38.0,3093.0,square2,j,0.2062,1,N,4.0
NS4,51.0,46.0,28.0,69.0,48.0,46.0,3139.0,square1,r,0.1371,0,N,4.0
NS4,52.0,40.0,34.0,62.0,49.0,62.0,3201.0,square3,i,0.2014,2,N,4.0
NS4,53.0,39.0,34.0,63.0,48.0,48.0,3249.0,square4,f,0.2326,3,N,4.0
NS4,54.0,44.0,31.0,58.0,47.0,58.0,3307.0,square3,i,0.0977,2,N,4.0
NS4,55.0,42.0,30.0,68.0,46.0,46.0,3353.0,square4,f,0.0121,3,N,4.0
NS4,56.0,36.0,25.0,69.0,44.0,69.0,3422.0,square3,i,0.2274,2,N,4.0
NS4,57.0,35.0,29.0,71.0,46.0,71.0,3493.0,square3,i,0.1815,2,N,4.0
NS4,58.0,43.0,28.0,68.0,47.0,68.0,3561.0,square3,i,0.2302,2,N,4.0
NS4,59.0,43.0,27.0,67.0,43.0,67.0,3628.0,square3,i,0.2698,2,N,4.0
NS4,60.0,40.0,25.0,72.0,46.0,72.0,3700.0,square3,i,0.1702,2,N,4.0
NS4,61.0,39.0,32.0,63.0,43.0,63.0,3763.0,square3,i,0.1977,2,N,4.0
NS4,62.0,39.0,29.0,61.0,39.0,61.0,3824.0,square3,i,0.1024,2,N,4.0
NS4,63.0,41.0,28.0,59.0,40.0,40.0,3864.0,square4,f,0.0119,3,N,4.0
NS4,64.0,41.0,31.0,57.0,51.0,57.0,3921.0,square3,i,0.2627,2,N,4.0
NS4,65.0,46.0,36.0,59.0,58.0,46.0,3967.0,square1,r,0.0484,0,N,4.0
NS4,66.0,45.0,36.0,53.0,46.0,36.0,4003.0,square2,j,0.4385,1,N,4.0
NS4,67.0,40.0,34.0,49.0,46.0,49.0,4052.0,square3,i,0.0635,2,N,4.0
NS4,68.0,43.0,37.0,48.0,48.0,48.0,4100.0,square4,f,0.0772,3,N,4.0
NS4,69.0,42.0,36.0,44.0,56.0,44.0,4144.0,square3,i,0.2118,2,N,4.0
NS4,70.0,40.0,38.0,47.0,58.0,47.0,4191.0,square3,i,0.3103,2,N,4.0
NS4,71.0,36.0,34.0,42.0,63.0,36.0,4227.0,square1,r,0.0624,0,N,4.0
NS4,72.0,38.0,36.0,36.0,66.0,36.0,4263.0,square2,j,0.012,1,N,4.0
NS4,73.0,36.0,40.0,40.0,66.0,40.0,4303.0,square3,i,0.0184,2,N,4.0
NS4,74.0,31.0,38.0,46.0,67.0,67.0,4370.0,square4,f,0.3778,3,N,4.0
NS4,75.0,40.0,33.0,42.0,64.0,64.0,4434.0,square4,f,0.1353,3,N,4.0
NS4,76.0,38.0,35.0,42.0,64.0,64.0,4498.0,square4,f,0.2192,3,N,4.0
NS4,77.0,40.0,35.0,39.0,66.0,66.0,4564.0,square4,f,0.013,3,N,4.0
NS4,78.0,40.0,33.0,38.0,68.0,68.0,4632.0,square4,f,0.1297,3,N,4.0
NS4,79.0,40.0,38.0,31.0,70.0,70.0,4702.0,square4,f,0.127,3,N,4.0
NS4,80.0,37.0,35.0,33.0,73.0,33.0,4735.0,square3,i,0.137,2,N,4.0
NS4,81.0,34.0,35.0,30.0,70.0,30.0,4765.0,square3,i,0.1782,2,N,4.0
NS4,82.0,35.0,37.0,31.0,66.0,35.0,4800.0,square1,r,0.0668,0,N,4.0
NS4,83.0,42.0,32.0,28.0,67.0,32.0,4832.0,square2,j,0.1884,1,N,4.0
NS4,84.0,38.0,35.0,30.0,68.0,68.0,4900.0,square4,f,0.0979,3,N,4.0
NS4,85.0,43.0,35.0,32.0,64.0,64.0,4964.0,square4,f,0.0445,3,N,4.0
NS4,86.0,49.0,35.0,32.0,70.0,70.0,5034.0,square4,f,0.202,3,N,4.0
NS4,87.0,48.0,34.0,32.0,69.0,69.0,5103.0,square4,f,0.1428,3,N,4.0
NS4,88.0,50.0,35.0,30.0,64.0,64.0,5167.0,square4,f,0.1628,3,N,4.0
NS4,89.0,48.0,34.0,32.0,68.0,68.0,5235.0,square4,f,0.002,3,N,4.0
NS4,90.0,53.0,29.0,27.0,68.0,68.0,5303.0,square4,f,0.2604,3,N,4.0
NS4,91.0,54.0,27.0,34.0,68.0,68.0,5371.0,square4,f,0.0828,3,N,4.0
NS4,92.0,52.0,20.0,35.0,69.0,69.0,5440.0,square4,f,0.2483,3,N,4.0
NS4,93.0,42.0,15.0,33.0,68.0,68.0,5508.0,square4,f,0.1943,3,N,4.0
NS4,94.0,40.0,24.0,37.0,72.0,72.0,5580.0,square4,f,0.1776,3,N,4.0
NS4,95.0,43.0,25.0,43.0,69.0,69.0,5649.0,square4,f,0.2843,3,N,4.0
NS4,96.0,41.0,29.0,43.0,74.0,74.0,5723.0,square4,f,0.1211,3,N,4.0
NS4,97.0,46.0,32.0,42.0,78.0,78.0,5801.0,square4,f,0.1933,3,N,4.0
NS4,98.0,48.0,26.0,46.0,75.0,75.0,5876.0,square4,f,0.1555,3,N,4.0
NS4,99.0,46.0,27.0,45.0,71.0,71.0,5947.0,square4,f,0.2357,3,N,4.0
NS3,0.0,52.0,26.0,68.0,52.0,52.0,52.0,square4,r,1.4273,3,N,3.0
NS3,1.0,57.0,23.0,69.0,48.0,69.0,121.0,square3,j,0.7883,2,N,3.0
NS3,2.0,59.0,26.0,70.0,52.0,26.0,147.0,square2,f,0.0711,1,N,3.0
NS3,3.0,57.0,24.0,70.0,52.0,52.0,199.0,square4,r,0.0766,3,N,3.0
NS3,4.0,59.0,30.0,74.0,49.0,59.0,258.0,square1,i,0.0358,0,N,3.0
NS3,5.0,55.0,24.0,67.0,51.0,67.0,325.0,square3,j,0.0203,2,N,3.0
NS3,6.0,54.0,27.0,73.0,55.0,27.0,352.0,square2,f,0.0418,1,N,3.0
NS3,7.0,55.0,28.0,66.0,43.0,43.0,395.0,square4,r,0.3634,3,N,3.0
NS3,8.0,57.0,30.0,65.0,45.0,57.0,452.0,square1,i,0.0385,0,N,3.0
NS3,9.0,53.0,33.0,54.0,37.0,54.0,506.0,square3,j,0.1033,2,N,3.0
NS3,10.0,46.0,27.0,54.0,43.0,43.0,549.0,square4,r,0.0019,3,N,3.0
NS3,11.0,48.0,31.0,58.0,51.0,48.0,597.0,square1,i,0.135,0,N,3.0
NS3,12.0,50.0,27.0,54.0,53.0,54.0,651.0,square3,j,0.1293,2,N,3.0
NS3,13.0,49.0,28.0,62.0,50.0,28.0,679.0,square2,f,0.5513,1,N,3.0
NS3,14.0,53.0,28.0,62.0,52.0,62.0,741.0,square3,j,0.049,2,N,3.0
NS3,15.0,52.0,25.0,57.0,57.0,57.0,798.0,square3,j,0.0847,2,N,3.0
NS3,16.0,48.0,29.0,56.0,56.0,48.0,846.0,square1,i,0.185,0,N,3.0
NS3,17.0,39.0,21.0,58.0,56.0,56.0,902.0,square4,r,0.2786,3,N,3.0
NS3,18.0,40.0,23.0,58.0,60.0,58.0,960.0,square3,j,0.8246,2,N,3.0
NS3,19.0,40.0,26.0,63.0,58.0,40.0,1000.0,square1,i,0.2647,0,N,3.0
NS3,20.0,46.0,24.0,60.0,56.0,56.0,1056.0,square4,r,0.212,3,N,3.0
NS3,21.0,42.0,27.0,61.0,55.0,61.0,1117.0,square3,j,0.1039,2,N,3.0
NS3,22.0,45.0,26.0,62.0,56.0,56.0,1173.0,square4,r,0.1244,3,N,3.0
NS3,23.0,39.0,21.0,64.0,60.0,64.0,1237.0,square3,j,0.1165,2,N,3.0
NS3,24.0,44.0,21.0,59.0,64.0,64.0,1301.0,square4,r,0.1233,3,N,3.0
NS3,25.0,44.0,22.0,58.0,65.0,58.0,1359.0,square3,j,0.2012,2,N,3.0
NS3,26.0,42.0,26.0,60.0,62.0,26.0,1385.0,square2,f,0.1346,1,N,3.0
NS3,27.0,38.0,18.0,55.0,67.0,67.0,1452.0,square4,r,0.2967,3,N,3.0
NS3,28.0,41.0,23.0,56.0,60.0,56.0,1508.0,square3,j,0.221,2,N,3.0
NS3,29.0,38.0,16.0,52.0,66.0,38.0,1546.0,square1,i,0.19,0,N,3.0
NS3,30.0,36.0,13.0,61.0,64.0,64.0,1610.0,square4,r,0.2217,3,N,3.0
NS3,31.0,42.0,13.0,54.0,63.0,54.0,1664.0,square3,j,0.1006,2,N,3.0
NS3,32.0,38.0,18.0,50.0,62.0,62.0,1726.0,square4,r,0.1434,3,N,3.0
NS3,33.0,29.0,20.0,51.0,64.0,51.0,1777.0,square3,j,0.2787,2,N,3.0
NS3,34.0,32.0,21.0,45.0,63.0,63.0,1840.0,square4,r,0.1279,3,N,3.0
NS3,35.0,30.0,17.0,46.0,65.0,65.0,1905.0,square4,r,0.182,3,N,3.0
NS3,36.0,35.0,16.0,47.0,69.0,47.0,1952.0,square3,j,0.0176,2,N,3.0
NS3,37.0,34.0,18.0,45.0,68.0,45.0,1997.0,square3,j,0.0508,2,N,3.0
NS3,38.0,40.0,14.0,50.0,74.0,14.0,2011.0,square2,f,0.0539,1,N,3.0
NS3,39.0,39.0,15.0,49.0,73.0,73.0,2084.0,square4,r,0.2885,3,N,3.0
NS3,40.0,42.0,15.0,51.0,74.0,51.0,2135.0,square3,j,0.1994,2,N,3.0
NS3,41.0,38.0,17.0,43.0,74.0,38.0,2173.0,square1,i,0.2584,0,N,3.0
NS3,42.0,36.0,16.0,46.0,74.0,74.0,2247.0,square4,r,0.3632,3,N,3.0
NS3,43.0,41.0,21.0,44.0,76.0,44.0,2291.0,square3,j,0.1731,2,N,3.0
NS3,44.0,41.0,26.0,35.0,70.0,70.0,2361.0,square4,r,0.0546,3,N,3.0
NS3,45.0,39.0,27.0,33.0,75.0,39.0,2400.0,square1,i,0.0877,0,N,3.0
NS3,46.0,45.0,25.0,38.0,77.0,77.0,2477.0,square4,r,0.0041,3,N,3.0
NS3,47.0,41.0,20.0,34.0,76.0,34.0,2511.0,square3,j,0.0076,2,N,3.0
NS3,48.0,37.0,25.0,34.0,77.0,77.0,2588.0,square4,r,0.0427,3,N,3.0
NS3,49.0,41.0,18.0,40.0,78.0,40.0,2628.0,square3,j,0.0039,2,N,3.0
NS3,50.0,42.0,17.0,41.0,83.0,83.0,2711.0,square4,r,0.2194,3,N,3.0
NS3,51.0,53.0,18.0,39.0,83.0,83.0,2794.0,square4,r,0.2308,3,N,3.0
NS3,52.0,55.0,19.0,34.0,82.0,82.0,2876.0,square4,r,0.2478,3,N,3.0
NS3,53.0,52.0,17.0,39.0,77.0,77.0,2953.0,square4,r,0.109,3,N,3.0
NS3,54.0,55.0,21.0,46.0,77.0,77.0,3030.0,square4,r,0.1126,3,N,3.0
NS3,55.0,48.0,21.0,49.0,75.0,75.0,3105.0,square4,r,0.1272,3,N,3.0
NS3,56.0,50.0,25.0,51.0,74.0,74.0,3179.0,square4,r,0.3772,3,N,3.0
NS3,57.0,54.0,23.0,46.0,66.0,66.0,3245.0,square4,r,0.325,3,N,3.0
NS3,58.0,60.0,25.0,50.0,72.0,72.0,3317.0,square4,r,0.2069,3,N,3.0
NS3,59.0,54.0,23.0,46.0,72.0,72.0,3389.0,square4,r,0.2601,3,N,3.0
NS3,60.0,51.0,26.0,50.0,72.0,72.0,3461.0,square4,r,0.0991,3,N,3.0
NS3,61.0,57.0,27.0,54.0,71.0,71.0,3532.0,square4,r,0.0976,3,N,3.0
NS3,62.0,51.0,27.0,54.0,64.0,64.0,3596.0,square4,r,0.324,3,N,3.0
NS3,63.0,54.0,25.0,42.0,62.0,62.0,3658.0,square4,r,0.2358,3,N,3.0
NS3,64.0,54.0,25.0,47.0,62.0,62.0,3720.0,square4,r,0.3713,3,N,3.0
NS3,65.0,48.0,26.0,45.0,60.0,45.0,3765.0,square3,j,0.2119,2,N,3.0
NS3,66.0,49.0,22.0,47.0,60.0,60.0,3825.0,square4,r,0.3211,3,N,3.0
NS3,67.0,49.0,26.0,45.0,65.0,49.0,3874.0,square1,i,0.185,0,N,3.0
NS3,68.0,54.0,26.0,47.0,67.0,67.0,3941.0,square4,r,0.0701,3,N,3.0
NS3,69.0,48.0,22.0,45.0,56.0,56.0,3997.0,square4,r,0.2927,3,N,3.0
NS3,70.0,55.0,26.0,48.0,61.0,61.0,4058.0,square4,r,0.159,3,N,3.0
NS3,71.0,55.0,29.0,43.0,60.0,60.0,4118.0,square4,r,0.2011,3,N,3.0
NS3,72.0,56.0,30.0,43.0,51.0,51.0,4169.0,square4,r,0.1486,3,N,3.0
NS3,73.0,55.0,27.0,47.0,56.0,56.0,4225.0,square4,r,0.285,3,N,3.0
NS3,74.0,63.0,26.0,44.0,55.0,55.0,4280.0,square4,r,0.145,3,N,3.0
NS3,75.0,61.0,34.0,45.0,62.0,62.0,4342.0,square4,r,0.2694,3,N,3.0
NS3,76.0,55.0,28.0,45.0,62.0,62.0,4404.0,square4,r,0.2437,3,N,3.0
NS3,77.0,58.0,31.0,53.0,66.0,66.0,4470.0,square4,r,0.2226,3,N,3.0
NS3,78.0,55.0,29.0,51.0,60.0,60.0,4530.0,square4,r,0.3028,3,N,3.0
NS3,79.0,51.0,29.0,52.0,68.0,68.0,4598.0,square4,r,0.0907,3,N,3.0
NS3,80.0,55.0,31.0,48.0,59.0,59.0,4657.0,square4,r,0.2345,3,N,3.0
NS3,81.0,56.0,38.0,56.0,64.0,64.0,4721.0,square4,r,0.2259,3,N,3.0
NS3,82.0,54.0,27.0,54.0,55.0,55.0,4776.0,square4,r,0.1127,3,N,3.0
NS3,83.0,62.0,30.0,49.0,58.0,58.0,4834.0,square4,r,0.2749,3,N,3.0
NS3,84.0,64.0,24.0,47.0,62.0,62.0,4896.0,square4,r,0.3456,3,N,3.0
NS3,85.0,65.0,23.0,54.0,63.0,63.0,4959.0,square4,r,0.0797,3,N,3.0
NS3,86.0,68.0,25.0,56.0,65.0,65.0,5024.0,square4,r,0.2944,3,N,3.0
NS3,87.0,65.0,22.0,55.0,60.0,60.0,5084.0,square4,r,0.1889,3,N,3.0
NS3,88.0,64.0,20.0,58.0,65.0,65.0,5149.0,square4,r,0.2064,3,N,3.0
NS3,89.0,68.0,13.0,62.0,64.0,64.0,5213.0,square4,r,0.192,3,N,3.0
NS3,90.0,72.0,13.0,52.0,64.0,64.0,5277.0,square4,r,0.1311,3,N,3.0
NS3,91.0,67.0,20.0,52.0,69.0,69.0,5346.0,square4,r,0.037,3,N,3.0
NS3,92.0,72.0,21.0,58.0,64.0,64.0,5410.0,square4,r,0.0689,3,N,3.0
NS3,93.0,73.0,16.0,54.0,67.0,67.0,5477.0,square4,r,0.2119,3,N,3.0
NS3,94.0,69.0,17.0,51.0,64.0,64.0,5541.0,square4,r,0.2344,3,N,3.0
NS3,95.0,62.0,19.0,60.0,62.0,62.0,5603.0,square4,r,0.2152,3,N,3.0
NS3,96.0,67.0,15.0,56.0,67.0,67.0,5670.0,square4,r,0.2467,3,N,3.0
NS3,97.0,61.0,17.0,58.0,62.0,62.0,5732.0,square4,r,0.2615,3,N,3.0
NS3,98.0,59.0,13.0,58.0,58.0,58.0,5790.0,square4,r,0.3591,3,N,3.0
NS3,99.0,62.0,15.0,51.0,60.0,60.0,5850.0,square4,r,0.2907,3,N,3.0
NS11,0.0,78.0,37.0,30.0,78.0,37.0,37.0,square2,r,0.6709,1,N,11.0
NS11,1.0,85.0,34.0,30.0,76.0,30.0,67.0,square3,i,0.1472,2,N,11.0
NS11,2.0,79.0,33.0,36.0,77.0,77.0,144.0,square4,j,0.1394,3,N,11.0
NS11,3.0,82.0,33.0,28.0,72.0,82.0,226.0,square1,f,0.0908,0,N,11.0
NS11,4.0,82.0,34.0,33.0,76.0,82.0,308.0,square1,f,0.1606,0,N,11.0
NS11,5.0,78.0,38.0,32.0,83.0,38.0,346.0,square2,r,0.1167,1,N,11.0
NS11,6.0,78.0,37.0,34.0,77.0,34.0,380.0,square3,i,0.1395,2,N,11.0
NS11,7.0,80.0,30.0,33.0,74.0,74.0,454.0,square4,j,0.0973,3,N,11.0
NS11,8.0,79.0,32.0,30.0,73.0,79.0,533.0,square1,f,0.056,0,N,11.0
NS11,9.0,81.0,41.0,34.0,61.0,61.0,594.0,square4,j,0.0342,3,N,11.0
NS11,10.0,76.0,38.0,25.0,64.0,76.0,670.0,square1,f,0.1524,0,N,11.0
NS11,11.0,79.0,34.0,27.0,65.0,65.0,735.0,square4,j,0.0667,3,N,11.0
NS11,12.0,81.0,32.0,25.0,68.0,81.0,816.0,square1,f,0.3104,0,N,11.0
NS11,13.0,84.0,36.0,24.0,64.0,84.0,900.0,square1,f,0.0276,0,N,11.0
NS11,14.0,80.0,30.0,24.0,61.0,80.0,980.0,square1,f,0.0445,0,N,11.0
NS11,15.0,86.0,33.0,22.0,66.0,86.0,1066.0,square1,f,0.0063,0,N,11.0
NS11,16.0,85.0,32.0,20.0,64.0,85.0,1151.0,square1,f,0.1169,0,N,11.0
NS11,17.0,83.0,32.0,22.0,71.0,83.0,1234.0,square1,f,0.251,0,N,11.0
NS11,18.0,80.0,31.0,19.0,66.0,80.0,1314.0,square1,f,0.0685,0,N,11.0
NS11,19.0,75.0,40.0,23.0,69.0,75.0,1389.0,square1,f,0.0418,0,N,11.0
NS11,20.0,73.0,37.0,14.0,67.0,73.0,1462.0,square1,f,0.0565,0,N,11.0
NS11,21.0,81.0,34.0,23.0,70.0,70.0,1532.0,square4,j,0.0517,3,N,11.0
NS11,22.0,77.0,39.0,16.0,73.0,73.0,1605.0,square4,j,0.091,3,N,11.0
NS11,23.0,78.0,30.0,23.0,74.0,78.0,1683.0,square1,f,0.0331,0,N,11.0
NS11,24.0,80.0,32.0,26.0,68.0,68.0,1751.0,square4,j,0.1724,3,N,11.0
NS11,25.0,81.0,29.0,29.0,73.0,81.0,1832.0,square1,f,0.0125,0,N,11.0
NS11,26.0,77.0,31.0,26.0,69.0,69.0,1901.0,square4,j,0.1283,3,N,11.0
NS11,27.0,69.0,47.0,29.0,64.0,69.0,1970.0,square1,f,0.0909,0,N,11.0
NS11,28.0,69.0,39.0,28.0,71.0,71.0,2041.0,square4,j,0.0326,3,N,11.0
NS11,29.0,71.0,41.0,24.0,66.0,71.0,2112.0,square1,f,0.1566,0,N,11.0
NS11,30.0,70.0,40.0,21.0,68.0,68.0,2180.0,square4,j,0.1759,3,N,11.0
NS11,31.0,72.0,44.0,21.0,68.0,72.0,2252.0,square1,f,0.1394,0,N,11.0
NS11,32.0,72.0,41.0,19.0,75.0,75.0,2327.0,square4,j,0.0183,3,N,11.0
NS11,33.0,66.0,48.0,21.0,72.0,66.0,2393.0,square1,f,0.1733,0,N,11.0
NS11,34.0,67.0,48.0,24.0,72.0,72.0,2465.0,square4,j,0.1975,3,N,11.0
NS11,35.0,58.0,52.0,14.0,73.0,58.0,2523.0,square1,f,0.3641,0,N,11.0
NS11,36.0,61.0,52.0,23.0,70.0,70.0,2593.0,square4,j,0.4607,3,N,11.0
NS11,37.0,50.0,55.0,29.0,67.0,50.0,2643.0,square1,f,0.1813,0,N,11.0
NS11,38.0,51.0,54.0,20.0,64.0,64.0,2707.0,square4,j,0.3542,3,N,11.0
NS11,39.0,54.0,49.0,26.0,63.0,54.0,2761.0,square1,f,0.067,0,N,11.0
NS11,40.0,50.0,47.0,24.0,70.0,70.0,2831.0,square4,j,0.1395,3,N,11.0
NS11,41.0,54.0,46.0,23.0,63.0,54.0,2885.0,square1,f,0.1262,0,N,11.0
NS11,42.0,54.0,47.0,25.0,61.0,61.0,2946.0,square4,j,0.3043,3,N,11.0
NS11,43.0,46.0,49.0,33.0,72.0,46.0,2992.0,square1,f,0.1947,0,N,11.0
NS11,44.0,54.0,50.0,38.0,72.0,72.0,3064.0,square4,j,0.1224,3,N,11.0
NS11,45.0,56.0,53.0,39.0,81.0,81.0,3145.0,square4,j,0.105,3,N,11.0
NS11,46.0,57.0,55.0,33.0,77.0,77.0,3222.0,square4,j,0.1237,3,N,11.0
NS11,47.0,56.0,51.0,32.0,76.0,76.0,3298.0,square4,j,0.2195,3,N,11.0
NS11,48.0,58.0,49.0,29.0,85.0,58.0,3356.0,square1,f,0.1049,0,N,11.0
NS11,49.0,58.0,53.0,27.0,83.0,83.0,3439.0,square4,j,0.0675,3,N,11.0
NS11,50.0,62.0,49.0,24.0,80.0,24.0,3463.0,square3,i,0.1156,2,N,11.0
NS11,51.0,57.0,55.0,23.0,77.0,55.0,3518.0,square2,r,1.5365,1,N,11.0
NS11,52.0,56.0,55.0,20.0,77.0,77.0,3595.0,square4,j,0.1231,3,N,11.0
NS11,53.0,59.0,56.0,20.0,78.0,78.0,3673.0,square4,j,0.4331,3,N,11.0
NS11,54.0,58.0,57.0,27.0,74.0,74.0,3747.0,square4,j,0.2449,3,N,11.0
NS11,55.0,60.0,55.0,24.0,79.0,79.0,3826.0,square4,j,0.0848,3,N,11.0
NS11,56.0,60.0,52.0,22.0,77.0,77.0,3903.0,square4,j,0.2962,3,N,11.0
NS11,57.0,58.0,55.0,22.0,72.0,72.0,3975.0,square4,j,0.1347,3,N,11.0
NS11,58.0,63.0,52.0,22.0,75.0,75.0,4050.0,square4,j,0.2608,3,N,11.0
NS11,59.0,62.0,56.0,17.0,70.0,62.0,4112.0,square1,f,0.2238,0,N,11.0
NS11,60.0,61.0,55.0,22.0,70.0,70.0,4182.0,square4,j,0.2568,3,N,11.0
NS11,61.0,57.0,52.0,21.0,76.0,76.0,4258.0,square4,j,0.3062,3,N,11.0
NS11,62.0,57.0,48.0,28.0,75.0,75.0,4333.0,square4,j,0.3273,3,N,11.0
NS11,63.0,57.0,58.0,30.0,68.0,68.0,4401.0,square4,j,0.0781,3,N,11.0
NS11,64.0,61.0,61.0,27.0,74.0,61.0,4462.0,square1,f,0.0801,0,N,11.0
NS11,65.0,67.0,63.0,40.0,71.0,71.0,4533.0,square4,j,0.0667,3,N,11.0
NS11,66.0,69.0,55.0,38.0,73.0,73.0,4606.0,square4,j,0.4014,3,N,11.0
NS11,67.0,72.0,57.0,36.0,65.0,65.0,4671.0,square4,j,0.2731,3,N,11.0
NS11,68.0,71.0,61.0,36.0,64.0,64.0,4735.0,square4,j,0.1121,3,N,11.0
NS11,69.0,74.0,66.0,37.0,58.0,58.0,4793.0,square4,j,0.0849,3,N,11.0
NS11,70.0,69.0,60.0,40.0,66.0,69.0,4862.0,square1,f,0.2728,0,N,11.0
NS11,71.0,71.0,58.0,40.0,64.0,64.0,4926.0,square4,j,0.0484,3,N,11.0
NS11,72.0,72.0,58.0,46.0,67.0,67.0,4993.0,square4,j,0.1388,3,N,11.0
NS11,73.0,72.0,56.0,47.0,65.0,65.0,5058.0,square4,j,0.0303,3,N,11.0
NS11,74.0,66.0,54.0,47.0,63.0,63.0,5121.0,square4,j,0.3213,3,N,11.0
NS11,75.0,75.0,53.0,43.0,58.0,58.0,5179.0,square4,j,0.2899,3,N,11.0
NS11,76.0,75.0,48.0,40.0,59.0,75.0,5254.0,square1,f,0.1111,0,N,11.0
NS11,77.0,65.0,48.0,36.0,58.0,65.0,5319.0,square1,f,0.0434,0,N,11.0
NS11,78.0,70.0,45.0,37.0,59.0,70.0,5389.0,square1,f,0.0506,0,N,11.0
NS11,79.0,70.0,41.0,36.0,59.0,70.0,5459.0,square1,f,0.2118,0,N,11.0
NS11,80.0,73.0,43.0,39.0,59.0,73.0,5532.0,square1,f,0.2658,0,N,11.0
NS11,81.0,72.0,39.0,38.0,60.0,72.0,5604.0,square1,f,0.2939,0,N,11.0
NS11,82.0,72.0,39.0,44.0,65.0,72.0,5676.0,square1,f,0.2926,0,N,11.0
NS11,83.0,68.0,38.0,40.0,61.0,68.0,5744.0,square1,f,0.2194,0,N,11.0
NS11,84.0,69.0,36.0,36.0,64.0,69.0,5813.0,square1,f,0.0509,0,N,11.0
NS11,85.0,70.0,34.0,40.0,69.0,70.0,5883.0,square1,f,0.0195,0,N,11.0
NS11,86.0,70.0,32.0,36.0,71.0,70.0,5953.0,square1,f,0.0188,0,N,11.0
NS11,87.0,69.0,31.0,37.0,70.0,69.0,6022.0,square1,f,0.1765,0,N,11.0
NS11,88.0,69.0,34.0,41.0,67.0,69.0,6091.0,square1,f,0.2597,0,N,11.0
NS11,89.0,67.0,39.0,44.0,67.0,67.0,6158.0,square4,j,0.1112,3,N,11.0
NS11,90.0,64.0,33.0,36.0,69.0,64.0,6222.0,square1,f,0.3154,0,N,11.0
NS11,91.0,60.0,33.0,38.0,67.0,67.0,6289.0,square4,j,0.1382,3,N,11.0
NS11,92.0,60.0,33.0,37.0,68.0,68.0,6357.0,square4,j,0.054,3,N,11.0
NS11,93.0,54.0,36.0,38.0,73.0,73.0,6430.0,square4,j,0.1828,3,N,11.0
NS11,94.0,58.0,35.0,39.0,68.0,68.0,6498.0,square4,j,0.1093,3,N,11.0
NS11,95.0,50.0,38.0,32.0,77.0,77.0,6575.0,square4,j,0.3098,3,N,11.0
NS11,96.0,53.0,42.0,30.0,71.0,53.0,6628.0,square1,f,0.2635,0,N,11.0
NS11,97.0,54.0,38.0,32.0,75.0,75.0,6703.0,square4,j,0.4209,3,N,11.0
NS11,98.0,52.0,48.0,32.0,72.0,52.0,6755.0,square1,f,0.3399,0,N,11.0
NS11,99.0,55.0,45.0,33.0,73.0,73.0,6828.0,square4,j,0.9295,3,N,11.0
V5,0.0,46.0,21.0,37.0,28.0,46.0,46.0,square1,r,0.511,0,V,5.0
V5,1.0,43.0,27.0,36.0,31.0,27.0,73.0,square2,i,0.0003,1,V,5.0
V5,2.0,50.0,18.0,43.0,32.0,32.0,105.0,square4,f,0.0645,3,V,5.0
V5,3.0,53.0,23.0,36.0,34.0,36.0,141.0,square3,j,0.1496,2,V,5.0
V5,4.0,52.0,19.0,38.0,34.0,52.0,193.0,square1,r,0.1334,0,V,5.0
V5,5.0,50.0,22.0,41.0,29.0,22.0,215.0,square2,i,0.2621,1,V,5.0
V5,6.0,52.0,19.0,40.0,33.0,33.0,248.0,square4,f,0.1303,3,V,5.0
V5,7.0,48.0,24.0,36.0,27.0,36.0,284.0,square3,j,0.006,2,V,5.0
V5,8.0,50.0,24.0,35.0,33.0,50.0,334.0,square1,r,0.0967,0,V,5.0
V5,9.0,48.0,25.0,39.0,34.0,48.0,382.0,square1,r,0.0721,0,V,5.0
V5,10.0,52.0,19.0,32.0,34.0,52.0,434.0,square1,r,0.0004,0,V,5.0
V5,11.0,48.0,22.0,32.0,32.0,48.0,482.0,square1,r,0.1339,0,V,5.0
V5,12.0,47.0,17.0,43.0,29.0,47.0,529.0,square1,r,0.0021,0,V,5.0
V5,13.0,46.0,21.0,42.0,29.0,46.0,575.0,square1,r,0.0698,0,V,5.0
V5,14.0,47.0,28.0,42.0,28.0,47.0,622.0,square1,r,0.317,0,V,5.0
V5,15.0,50.0,29.0,38.0,36.0,50.0,672.0,square1,r,0.0528,0,V,5.0
V5,16.0,49.0,24.0,36.0,34.0,49.0,721.0,square1,r,0.1335,0,V,5.0
V5,17.0,50.0,20.0,38.0,35.0,50.0,771.0,square1,r,0.1409,0,V,5.0
V5,18.0,49.0,22.0,46.0,29.0,49.0,820.0,square1,r,0.0996,0,V,5.0
V5,19.0,46.0,23.0,40.0,31.0,46.0,866.0,square1,r,0.1901,0,V,5.0
V5,20.0,51.0,22.0,41.0,28.0,51.0,917.0,square1,r,0.1315,0,V,5.0
V5,21.0,51.0,26.0,36.0,31.0,51.0,968.0,square1,r,0.0003,0,V,5.0
V5,22.0,47.0,18.0,41.0,28.0,47.0,1015.0,square1,r,0.089,0,V,5.0
V5,23.0,52.0,20.0,36.0,29.0,52.0,1067.0,square1,r,0.19,0,V,5.0
V5,24.0,51.0,21.0,41.0,34.0,51.0,1118.0,square1,r,0.0002,0,V,5.0
V5,25.0,50.0,20.0,41.0,27.0,20.0,1138.0,square2,i,0.0086,1,V,5.0
V5,26.0,49.0,29.0,37.0,28.0,28.0,1166.0,square4,f,0.0518,3,V,5.0
V5,27.0,10.0,13.0,42.0,32.0,42.0,1208.0,square3,j,0.0949,2,V,5.0
V5,28.0,9.0,19.0,40.0,27.0,9.0,1217.0,square1,r,0.1733,0,V,5.0
V5,29.0,17.0,17.0,38.0,29.0,38.0,1255.0,square3,j,0.1908,2,V,5.0
V5,30.0,8.0,18.0,36.0,29.0,36.0,1291.0,square3,j,0.1004,2,V,5.0
V5,31.0,16.0,24.0,34.0,29.0,34.0,1325.0,square3,j,0.0115,2,V,5.0
V5,32.0,9.0,17.0,35.0,31.0,35.0,1360.0,square3,j,0.2183,2,V,5.0
V5,33.0,11.0,19.0,36.0,28.0,36.0,1396.0,square3,j,0.2136,2,V,5.0
V5,34.0,10.0,19.0,38.0,28.0,38.0,1434.0,square3,j,0.1149,2,V,5.0
V5,35.0,5.0,23.0,40.0,34.0,40.0,1474.0,square3,j,0.0003,2,V,5.0
V5,36.0,17.0,20.0,36.0,31.0,36.0,1510.0,square3,j,0.0908,2,V,5.0
V5,37.0,12.0,13.0,36.0,30.0,36.0,1546.0,square3,j,0.1173,2,V,5.0
V5,38.0,14.0,24.0,35.0,27.0,35.0,1581.0,square3,j,0.0891,2,V,5.0
V5,39.0,13.0,20.0,39.0,32.0,32.0,1613.0,square4,f,0.212,3,V,5.0
V5,40.0,9.0,15.0,37.0,24.0,9.0,1622.0,square1,r,0.0128,0,V,5.0
V5,41.0,9.0,14.0,38.0,31.0,14.0,1636.0,square2,i,0.1282,1,V,5.0
V5,42.0,14.0,17.0,43.0,31.0,43.0,1679.0,square3,j,0.0763,2,V,5.0
V5,43.0,10.0,18.0,39.0,23.0,39.0,1718.0,square3,j,0.0121,2,V,5.0
V5,44.0,10.0,20.0,33.0,32.0,32.0,1750.0,square4,f,0.0363,3,V,5.0
V5,45.0,16.0,17.0,37.0,29.0,29.0,1779.0,square4,f,0.0681,3,V,5.0
V5,46.0,9.0,22.0,37.0,25.0,37.0,1816.0,square3,j,0.0848,2,V,5.0
V5,47.0,10.0,22.0,35.0,26.0,35.0,1851.0,square3,j,0.1267,2,V,5.0
V5,48.0,11.0,16.0,39.0,23.0,39.0,1890.0,square3,j,0.0686,2,V,5.0
V5,49.0,13.0,16.0,33.0,27.0,27.0,1917.0,square4,f,0.0756,3,V,5.0
V5,50.0,12.0,16.0,39.0,24.0,12.0,1929.0,square1,r,0.0521,0,V,5.0
V5,51.0,10.0,21.0,43.0,28.0,21.0,1950.0,square2,i,0.0951,1,V,5.0
V5,52.0,8.0,15.0,36.0,28.0,36.0,1986.0,square3,j,0.1816,2,V,5.0
V5,53.0,38.0,20.0,31.0,54.0,31.0,2017.0,square3,j,0.0723,2,V,5.0
V5,54.0,39.0,20.0,35.0,51.0,35.0,2052.0,square3,j,0.1859,2,V,5.0
V5,55.0,41.0,21.0,27.0,50.0,27.0,2079.0,square3,j,0.1577,2,V,5.0
V5,56.0,39.0,23.0,28.0,49.0,28.0,2107.0,square3,j,0.0612,2,V,5.0
V5,57.0,36.0,28.0,29.0,59.0,29.0,2136.0,square3,j,0.0721,2,V,5.0
V5,58.0,38.0,22.0,28.0,49.0,28.0,2164.0,square3,j,0.0527,2,V,5.0
V5,59.0,44.0,23.0,30.0,51.0,30.0,2194.0,square3,j,0.2375,2,V,5.0
V5,60.0,43.0,21.0,31.0,48.0,48.0,2242.0,square4,f,0.1105,3,V,5.0
V5,61.0,39.0,24.0,35.0,50.0,50.0,2292.0,square4,f,0.1631,3,V,5.0
V5,62.0,38.0,25.0,31.0,52.0,52.0,2344.0,square4,f,0.0746,3,V,5.0
V5,63.0,41.0,14.0,31.0,52.0,52.0,2396.0,square4,f,0.0662,3,V,5.0
V5,64.0,43.0,23.0,30.0,51.0,51.0,2447.0,square4,f,0.0761,3,V,5.0
V5,65.0,41.0,23.0,35.0,52.0,52.0,2499.0,square4,f,0.1628,3,V,5.0
V5,66.0,41.0,17.0,33.0,47.0,47.0,2546.0,square4,f,0.1403,3,V,5.0
V5,67.0,44.0,23.0,32.0,49.0,49.0,2595.0,square4,f,0.1132,3,V,5.0
V5,68.0,44.0,24.0,31.0,44.0,44.0,2639.0,square4,f,0.2007,3,V,5.0
V5,69.0,43.0,28.0,27.0,48.0,28.0,2667.0,square2,i,0.1781,1,V,5.0
V5,70.0,38.0,22.0,26.0,50.0,26.0,2693.0,square3,j,0.2379,2,V,5.0
V5,71.0,41.0,29.0,26.0,53.0,53.0,2746.0,square4,f,0.5228,3,V,5.0
V5,72.0,40.0,20.0,28.0,51.0,51.0,2797.0,square4,f,0.0183,3,V,5.0
V5,73.0,59.0,44.0,51.0,35.0,59.0,2856.0,square1,r,0.1406,0,V,5.0
V5,74.0,60.0,38.0,55.0,43.0,43.0,2899.0,square4,f,0.066,3,V,5.0
V5,75.0,63.0,45.0,50.0,37.0,37.0,2936.0,square4,f,0.0119,3,V,5.0
V5,76.0,62.0,42.0,50.0,37.0,62.0,2998.0,square1,r,0.0175,0,V,5.0
V5,77.0,57.0,37.0,52.0,35.0,57.0,3055.0,square1,r,0.0361,0,V,5.0
V5,78.0,66.0,45.0,54.0,37.0,66.0,3121.0,square1,r,0.0023,0,V,5.0
V5,79.0,64.0,37.0,48.0,35.0,64.0,3185.0,square1,r,0.0301,0,V,5.0
V5,80.0,63.0,40.0,56.0,38.0,63.0,3248.0,square1,r,0.0669,0,V,5.0
V5,81.0,62.0,41.0,54.0,32.0,62.0,3310.0,square1,r,0.006,0,V,5.0
V5,82.0,58.0,41.0,59.0,39.0,58.0,3368.0,square1,r,0.055,0,V,5.0
V5,83.0,66.0,46.0,54.0,35.0,66.0,3434.0,square1,r,0.0579,0,V,5.0
V5,84.0,67.0,44.0,52.0,33.0,67.0,3501.0,square1,r,0.1907,0,V,5.0
V5,85.0,67.0,45.0,46.0,36.0,67.0,3568.0,square1,r,0.0199,0,V,5.0
V5,86.0,65.0,44.0,51.0,38.0,65.0,3633.0,square1,r,0.0213,0,V,5.0
V5,87.0,64.0,49.0,48.0,35.0,64.0,3697.0,square1,r,0.0045,0,V,5.0
V5,88.0,68.0,47.0,56.0,36.0,68.0,3765.0,square1,r,0.1839,0,V,5.0
V5,89.0,60.0,42.0,57.0,32.0,60.0,3825.0,square1,r,0.1954,0,V,5.0
V5,90.0,59.0,43.0,53.0,34.0,59.0,3884.0,square1,r,0.177,0,V,5.0
V5,91.0,64.0,43.0,51.0,34.0,64.0,3948.0,square1,r,0.0365,0,V,5.0
V5,92.0,65.0,41.0,57.0,38.0,65.0,4013.0,square1,r,0.0479,0,V,5.0
V5,93.0,59.0,48.0,54.0,40.0,59.0,4072.0,square1,r,0.0666,0,V,5.0
V5,94.0,66.0,44.0,53.0,43.0,66.0,4138.0,square1,r,0.1091,0,V,5.0
V5,95.0,63.0,43.0,50.0,40.0,63.0,4201.0,square1,r,0.0795,0,V,5.0
V5,96.0,62.0,44.0,50.0,33.0,62.0,4263.0,square1,r,0.1629,0,V,5.0
V5,97.0,64.0,49.0,55.0,37.0,64.0,4327.0,square1,r,0.0098,0,V,5.0
V5,98.0,65.0,44.0,53.0,36.0,65.0,4392.0,square1,r,0.0055,0,V,5.0
V5,99.0,65.0,42.0,55.0,35.0,65.0,4457.0,square1,r,0.3788,0,V,5.0
V12,0.0,47.0,30.0,38.0,55.0,30.0,30.0,square2,r,0.9697,1,V,12.0
V12,1.0,46.0,33.0,39.0,57.0,57.0,87.0,square4,j,0.0127,3,V,12.0
V12,2.0,51.0,29.0,42.0,52.0,51.0,138.0,square1,f,0.1643,0,V,12.0
V12,3.0,52.0,30.0,38.0,62.0,38.0,176.0,square3,i,0.0497,2,V,12.0
V12,4.0,48.0,30.0,39.0,62.0,30.0,206.0,square2,r,0.0002,1,V,12.0
V12,5.0,55.0,34.0,43.0,61.0,61.0,267.0,square4,j,0.1031,3,V,12.0
V12,6.0,45.0,35.0,42.0,56.0,56.0,323.0,square4,j,0.0745,3,V,12.0
V12,7.0,48.0,29.0,35.0,57.0,57.0,380.0,square4,j,0.1471,3,V,12.0
V12,8.0,46.0,33.0,38.0,59.0,46.0,426.0,square1,f,0.3073,0,V,12.0
V12,9.0,44.0,31.0,42.0,56.0,56.0,482.0,square4,j,0.1034,3,V,12.0
V12,10.0,48.0,34.0,45.0,55.0,45.0,527.0,square3,i,0.2566,2,V,12.0
V12,11.0,45.0,32.0,41.0,55.0,32.0,559.0,square2,r,0.0608,1,V,12.0
V12,12.0,52.0,26.0,42.0,57.0,52.0,611.0,square1,f,0.1077,0,V,12.0
V12,13.0,56.0,31.0,41.0,54.0,54.0,665.0,square4,j,0.154,3,V,12.0
V12,14.0,44.0,34.0,40.0,64.0,64.0,729.0,square4,j,0.1456,3,V,12.0
V12,15.0,48.0,32.0,39.0,61.0,61.0,790.0,square4,j,0.0616,3,V,12.0
V12,16.0,49.0,33.0,37.0,58.0,58.0,848.0,square4,j,0.0002,3,V,12.0
V12,17.0,45.0,33.0,43.0,57.0,57.0,905.0,square4,j,0.214,3,V,12.0
V12,18.0,45.0,28.0,40.0,58.0,58.0,963.0,square4,j,0.3952,3,V,12.0
V12,19.0,42.0,33.0,43.0,59.0,43.0,1006.0,square3,i,0.1415,2,V,12.0
V12,20.0,46.0,30.0,38.0,62.0,46.0,1052.0,square1,f,0.4027,0,V,12.0
V12,21.0,46.0,35.0,40.0,55.0,35.0,1087.0,square2,r,0.2285,1,V,12.0
V12,22.0,46.0,34.0,36.0,63.0,63.0,1150.0,square4,j,0.109,3,V,12.0
V12,23.0,54.0,34.0,42.0,56.0,42.0,1192.0,square3,i,0.0071,2,V,12.0
V12,24.0,44.0,30.0,41.0,59.0,41.0,1233.0,square3,i,0.2447,2,V,12.0
V12,25.0,49.0,33.0,37.0,64.0,37.0,1270.0,square3,i,0.2607,2,V,12.0
V12,26.0,52.0,34.0,39.0,57.0,57.0,1327.0,square4,j,0.0345,3,V,12.0
V12,27.0,50.0,26.0,37.0,55.0,55.0,1382.0,square4,j,0.024,3,V,12.0
V12,28.0,41.0,29.0,46.0,21.0,21.0,1403.0,square4,j,0.1367,3,V,12.0
V12,29.0,41.0,28.0,51.0,20.0,20.0,1423.0,square4,j,0.0525,3,V,12.0
V12,30.0,32.0,31.0,46.0,22.0,22.0,1445.0,square4,j,0.2985,3,V,12.0
V12,31.0,38.0,28.0,45.0,22.0,38.0,1483.0,square1,f,0.1839,0,V,12.0
V12,32.0,35.0,27.0,44.0,16.0,35.0,1518.0,square1,f,0.163,0,V,12.0
V12,33.0,39.0,29.0,49.0,21.0,49.0,1567.0,square3,i,0.2421,2,V,12.0
V12,34.0,39.0,28.0,49.0,15.0,28.0,1595.0,square2,r,0.1744,1,V,12.0
V12,35.0,36.0,29.0,50.0,17.0,50.0,1645.0,square3,i,0.012,2,V,12.0
V12,36.0,41.0,28.0,48.0,12.0,41.0,1686.0,square1,f,0.1236,0,V,12.0
V12,37.0,34.0,29.0,46.0,25.0,46.0,1732.0,square3,i,0.1414,2,V,12.0
V12,38.0,38.0,28.0,51.0,19.0,38.0,1770.0,square1,f,0.0693,0,V,12.0
V12,39.0,39.0,31.0,45.0,13.0,13.0,1783.0,square4,j,0.0942,3,V,12.0
V12,40.0,35.0,28.0,46.0,26.0,35.0,1818.0,square1,f,0.0004,0,V,12.0
V12,41.0,38.0,27.0,46.0,20.0,46.0,1864.0,square3,i,0.0244,2,V,12.0
V12,42.0,40.0,26.0,50.0,23.0,50.0,1914.0,square3,i,0.305,2,V,12.0
V12,43.0,33.0,30.0,45.0,18.0,33.0,1947.0,square1,f,0.3654,0,V,12.0
V12,44.0,39.0,31.0,46.0,22.0,31.0,1978.0,square2,r,0.3491,1,V,12.0
V12,45.0,32.0,26.0,42.0,20.0,42.0,2020.0,square3,i,0.0301,2,V,12.0
V12,46.0,36.0,29.0,43.0,24.0,43.0,2063.0,square3,i,0.1462,2,V,12.0
V12,47.0,37.0,30.0,46.0,21.0,46.0,2109.0,square3,i,0.1461,2,V,12.0
V12,48.0,37.0,27.0,44.0,19.0,44.0,2153.0,square3,i,0.4688,2,V,12.0
V12,49.0,36.0,33.0,55.0,16.0,55.0,2208.0,square3,i,0.2059,2,V,12.0
V12,50.0,45.0,28.0,44.0,18.0,44.0,2252.0,square3,i,0.0061,2,V,12.0
V12,51.0,35.0,32.0,49.0,19.0,49.0,2301.0,square3,i,0.6755,2,V,12.0
V12,52.0,36.0,56.0,31.0,52.0,31.0,2332.0,square3,i,0.422,2,V,12.0
V12,53.0,36.0,57.0,29.0,45.0,29.0,2361.0,square3,i,0.1497,2,V,12.0
V12,54.0,38.0,61.0,28.0,51.0,28.0,2389.0,square3,i,0.129,2,V,12.0
V12,55.0,35.0,60.0,29.0,47.0,29.0,2418.0,square3,i,0.1789,2,V,12.0
V12,56.0,34.0,62.0,29.0,46.0,29.0,2447.0,square3,i,0.4149,2,V,12.0
V12,57.0,43.0,57.0,32.0,46.0,32.0,2479.0,square3,i,0.1332,2,V,12.0
V12,58.0,40.0,59.0,32.0,50.0,40.0,2519.0,square1,f,0.3303,0,V,12.0
V12,59.0,41.0,62.0,33.0,48.0,41.0,2560.0,square1,f,0.1801,0,V,12.0
V12,60.0,36.0,61.0,32.0,49.0,49.0,2609.0,square4,j,0.031,3,V,12.0
V12,61.0,39.0,56.0,32.0,44.0,44.0,2653.0,square4,j,0.1549,3,V,12.0
V12,62.0,39.0,57.0,30.0,46.0,46.0,2699.0,square4,j,0.171,3,V,12.0
V12,63.0,42.0,53.0,29.0,46.0,46.0,2745.0,square4,j,0.0045,3,V,12.0
V12,64.0,35.0,57.0,32.0,50.0,50.0,2795.0,square4,j,0.0544,3,V,12.0
V12,65.0,44.0,58.0,32.0,49.0,49.0,2844.0,square4,j,0.995,3,V,12.0
V12,66.0,44.0,56.0,29.0,52.0,52.0,2896.0,square4,j,0.0665,3,V,12.0
V12,67.0,41.0,60.0,30.0,49.0,49.0,2945.0,square4,j,0.0728,3,V,12.0
V12,68.0,42.0,58.0,32.0,45.0,45.0,2990.0,square4,j,0.0603,3,V,12.0
V12,69.0,36.0,60.0,33.0,50.0,36.0,3026.0,square1,f,0.3124,0,V,12.0
V12,70.0,36.0,57.0,27.0,46.0,46.0,3072.0,square4,j,0.0315,3,V,12.0
V12,71.0,41.0,59.0,32.0,48.0,32.0,3104.0,square3,i,0.1373,2,V,12.0
V12,72.0,34.0,59.0,31.0,49.0,49.0,3153.0,square4,j,0.1833,3,V,12.0
V12,73.0,71.0,53.0,65.0,49.0,49.0,3202.0,square4,j,0.1153,3,V,12.0
V12,74.0,69.0,49.0,63.0,45.0,49.0,3251.0,square2,r,0.2243,1,V,12.0
V12,75.0,72.0,51.0,56.0,46.0,46.0,3297.0,square4,j,0.0189,3,V,12.0
V12,76.0,72.0,48.0,58.0,43.0,48.0,3345.0,square2,r,0.1222,1,V,12.0
V12,77.0,74.0,57.0,59.0,44.0,57.0,3402.0,square2,r,0.0604,1,V,12.0
V12,78.0,69.0,55.0,63.0,50.0,55.0,3457.0,square2,r,0.1992,1,V,12.0
V12,79.0,73.0,53.0,58.0,43.0,53.0,3510.0,square2,r,0.0851,1,V,12.0
V12,80.0,71.0,47.0,65.0,40.0,40.0,3550.0,square4,j,0.018,3,V,12.0
V12,81.0,66.0,49.0,57.0,40.0,49.0,3599.0,square2,r,0.1762,1,V,12.0
V12,82.0,71.0,53.0,57.0,48.0,53.0,3652.0,square2,r,0.0498,1,V,12.0
V12,83.0,70.0,50.0,56.0,49.0,50.0,3702.0,square2,r,0.3071,1,V,12.0
V12,84.0,69.0,45.0,64.0,43.0,64.0,3766.0,square3,i,0.4454,2,V,12.0
V12,85.0,64.0,48.0,54.0,42.0,54.0,3820.0,square3,i,0.468,2,V,12.0
V12,86.0,71.0,49.0,63.0,44.0,63.0,3883.0,square3,i,0.3171,2,V,12.0
V12,87.0,72.0,52.0,55.0,42.0,55.0,3938.0,square3,i,0.1759,2,V,12.0
V12,88.0,64.0,48.0,59.0,44.0,59.0,3997.0,square3,i,0.1334,2,V,12.0
V12,89.0,69.0,48.0,62.0,45.0,62.0,4059.0,square3,i,0.2059,2,V,12.0
V12,90.0,68.0,56.0,60.0,42.0,60.0,4119.0,square3,i,0.2148,2,V,12.0
V12,91.0,69.0,52.0,62.0,45.0,45.0,4164.0,square4,j,0.0395,3,V,12.0
V12,92.0,65.0,50.0,64.0,47.0,50.0,4214.0,square2,r,0.1243,1,V,12.0
V12,93.0,68.0,51.0,62.0,43.0,43.0,4257.0,square4,j,0.1167,3,V,12.0
V12,94.0,68.0,52.0,60.0,38.0,60.0,4317.0,square3,i,0.1573,2,V,12.0
V12,95.0,71.0,52.0,58.0,47.0,47.0,4364.0,square4,j,0.6572,3,V,12.0
V12,96.0,66.0,49.0,59.0,44.0,44.0,4408.0,square4,j,0.4786,3,V,12.0
V12,97.0,74.0,47.0,54.0,47.0,47.0,4455.0,square4,j,0.232,3,V,12.0
V12,98.0,68.0,43.0,64.0,41.0,41.0,4496.0,square4,j,0.2562,3,V,12.0
V12,99.0,71.0,53.0,62.0,44.0,44.0,4540.0,square4,j,0.4021,3,V,12.0
V6,0.0,43.0,59.0,68.0,49.0,49.0,49.0,square4,r,0.3711,3,V,6.0
V6,1.0,43.0,62.0,71.0,50.0,43.0,92.0,square1,i,0.085,0,V,6.0
V6,2.0,48.0,61.0,72.0,51.0,72.0,164.0,square3,j,0.1155,2,V,6.0
V6,3.0,46.0,55.0,71.0,51.0,71.0,235.0,square3,j,0.0244,2,V,6.0
V6,4.0,44.0,61.0,74.0,48.0,61.0,296.0,square2,f,0.173,1,V,6.0
V6,5.0,45.0,62.0,70.0,51.0,70.0,366.0,square3,j,0.2204,2,V,6.0
V6,6.0,42.0,67.0,73.0,46.0,67.0,433.0,square2,f,0.006,1,V,6.0
V6,7.0,44.0,63.0,71.0,53.0,71.0,504.0,square3,j,0.1877,2,V,6.0
V6,8.0,41.0,62.0,73.0,52.0,73.0,577.0,square3,j,0.1546,2,V,6.0
V6,9.0,46.0,59.0,72.0,54.0,72.0,649.0,square3,j,0.1881,2,V,6.0
V6,10.0,45.0,59.0,70.0,53.0,70.0,719.0,square3,j,0.1281,2,V,6.0
V6,11.0,45.0,60.0,70.0,49.0,45.0,764.0,square1,i,0.2202,0,V,6.0
V6,12.0,45.0,66.0,64.0,48.0,48.0,812.0,square4,r,0.1455,3,V,6.0
V6,13.0,45.0,61.0,69.0,47.0,69.0,881.0,square3,j,0.1395,2,V,6.0
V6,14.0,47.0,60.0,71.0,56.0,71.0,952.0,square3,j,0.0752,2,V,6.0
V6,15.0,46.0,64.0,67.0,52.0,67.0,1019.0,square3,j,0.142,2,V,6.0
V6,16.0,50.0,60.0,69.0,54.0,69.0,1088.0,square3,j,0.324,2,V,6.0
V6,17.0,43.0,60.0,70.0,53.0,70.0,1158.0,square3,j,0.2076,2,V,6.0
V6,18.0,46.0,63.0,72.0,55.0,72.0,1230.0,square3,j,0.372,2,V,6.0
V6,19.0,46.0,65.0,73.0,51.0,73.0,1303.0,square3,j,0.171,2,V,6.0
V6,20.0,44.0,63.0,66.0,51.0,63.0,1366.0,square2,f,0.1408,1,V,6.0
V6,21.0,43.0,63.0,70.0,49.0,70.0,1436.0,square3,j,0.1392,2,V,6.0
V6,22.0,45.0,63.0,71.0,50.0,71.0,1507.0,square3,j,0.2136,2,V,6.0
V6,23.0,45.0,38.0,28.0,60.0,28.0,1535.0,square3,j,0.184,2,V,6.0
V6,24.0,46.0,33.0,33.0,53.0,33.0,1568.0,square3,j,0.4102,2,V,6.0
V6,25.0,45.0,36.0,32.0,63.0,32.0,1600.0,square3,j,0.209,2,V,6.0
V6,26.0,52.0,37.0,28.0,57.0,28.0,1628.0,square3,j,0.4208,2,V,6.0
V6,27.0,45.0,33.0,30.0,62.0,30.0,1658.0,square3,j,0.4913,2,V,6.0
V6,28.0,43.0,37.0,24.0,51.0,37.0,1695.0,square2,f,0.094,1,V,6.0
V6,29.0,48.0,39.0,34.0,61.0,48.0,1743.0,square1,i,0.3882,0,V,6.0
V6,30.0,48.0,44.0,35.0,59.0,59.0,1802.0,square4,r,0.1,3,V,6.0
V6,31.0,50.0,39.0,34.0,53.0,34.0,1836.0,square3,j,0.2546,2,V,6.0
V6,32.0,44.0,33.0,33.0,54.0,44.0,1880.0,square1,i,0.0491,0,V,6.0
V6,33.0,48.0,37.0,30.0,56.0,48.0,1928.0,square1,i,0.0425,0,V,6.0
V6,34.0,52.0,37.0,27.0,59.0,27.0,1955.0,square3,j,0.2734,2,V,6.0
V6,35.0,47.0,32.0,29.0,59.0,32.0,1987.0,square2,f,0.2847,1,V,6.0
V6,36.0,45.0,37.0,27.0,56.0,45.0,2032.0,square1,i,0.1513,0,V,6.0
V6,37.0,39.0,37.0,31.0,57.0,39.0,2071.0,square1,i,0.2102,0,V,6.0
V6,38.0,50.0,38.0,29.0,56.0,29.0,2100.0,square3,j,0.2072,2,V,6.0
V6,39.0,48.0,37.0,27.0,57.0,48.0,2148.0,square1,i,0.3759,0,V,6.0
V6,40.0,53.0,37.0,29.0,57.0,57.0,2205.0,square4,r,0.2383,3,V,6.0
V6,41.0,41.0,34.0,33.0,58.0,58.0,2263.0,square4,r,0.0612,3,V,6.0
V6,42.0,50.0,37.0,31.0,57.0,57.0,2320.0,square4,r,0.194,3,V,6.0
V6,43.0,48.0,34.0,30.0,58.0,58.0,2378.0,square4,r,0.2971,3,V,6.0
V6,44.0,44.0,37.0,33.0,60.0,60.0,2438.0,square4,r,0.1478,3,V,6.0
V6,45.0,44.0,32.0,33.0,55.0,55.0,2493.0,square4,r,0.2425,3,V,6.0
V6,46.0,44.0,36.0,33.0,59.0,59.0,2552.0,square4,r,0.2929,3,V,6.0
V6,47.0,42.0,34.0,29.0,52.0,52.0,2604.0,square4,r,0.0254,3,V,6.0
V6,48.0,46.0,41.0,28.0,60.0,46.0,2650.0,square1,i,0.1725,0,V,6.0
V6,49.0,46.0,40.0,27.0,55.0,27.0,2677.0,square3,j,0.0262,2,V,6.0
V6,50.0,46.0,41.0,32.0,55.0,55.0,2732.0,square4,r,0.0393,3,V,6.0
V6,51.0,41.0,39.0,30.0,55.0,39.0,2771.0,square2,f,0.1649,1,V,6.0
V6,52.0,47.0,37.0,31.0,55.0,47.0,2818.0,square1,i,0.0461,0,V,6.0
V6,53.0,57.0,36.0,30.0,58.0,58.0,2876.0,square4,r,0.0689,3,V,6.0
V6,54.0,42.0,38.0,28.0,50.0,42.0,2918.0,square1,i,0.1456,0,V,6.0
V6,55.0,56.0,42.0,67.0,46.0,56.0,2974.0,square1,i,0.0695,0,V,6.0
V6,56.0,54.0,37.0,68.0,46.0,68.0,3042.0,square3,j,0.2044,2,V,6.0
V6,57.0,57.0,40.0,64.0,52.0,64.0,3106.0,square3,j,0.0936,2,V,6.0
V6,58.0,53.0,45.0,68.0,45.0,68.0,3174.0,square3,j,0.2284,2,V,6.0
V6,59.0,59.0,41.0,69.0,49.0,69.0,3243.0,square3,j,0.3035,2,V,6.0
V6,60.0,62.0,41.0,71.0,51.0,71.0,3314.0,square3,j,0.2723,2,V,6.0
V6,61.0,58.0,50.0,72.0,51.0,72.0,3386.0,square3,j,0.2026,2,V,6.0
V6,62.0,61.0,43.0,65.0,47.0,65.0,3451.0,square3,j,0.0847,2,V,6.0
V6,63.0,55.0,40.0,67.0,51.0,67.0,3518.0,square3,j,0.0967,2,V,6.0
V6,64.0,56.0,43.0,67.0,47.0,67.0,3585.0,square3,j,0.2567,2,V,6.0
V6,65.0,62.0,46.0,67.0,48.0,67.0,3652.0,square3,j,0.1093,2,V,6.0
V6,66.0,55.0,44.0,67.0,48.0,67.0,3719.0,square3,j,0.1942,2,V,6.0
V6,67.0,61.0,46.0,70.0,49.0,70.0,3789.0,square3,j,0.1534,2,V,6.0
V6,68.0,63.0,41.0,72.0,46.0,72.0,3861.0,square3,j,0.1973,2,V,6.0
V6,69.0,59.0,41.0,68.0,48.0,68.0,3929.0,square3,j,0.1432,2,V,6.0
V6,70.0,59.0,37.0,70.0,45.0,70.0,3999.0,square3,j,0.1091,2,V,6.0
V6,71.0,83.0,64.0,56.0,70.0,56.0,4055.0,square3,j,0.075,2,V,6.0
V6,72.0,82.0,59.0,53.0,75.0,53.0,4108.0,square3,j,0.2357,2,V,6.0
V6,73.0,85.0,67.0,58.0,73.0,58.0,4166.0,square3,j,0.2267,2,V,6.0
V6,74.0,79.0,67.0,61.0,73.0,61.0,4227.0,square3,j,0.1461,2,V,6.0
V6,75.0,84.0,62.0,53.0,69.0,53.0,4280.0,square3,j,0.0858,2,V,6.0
V6,76.0,81.0,60.0,55.0,76.0,55.0,4335.0,square3,j,0.3703,2,V,6.0
V6,77.0,84.0,61.0,60.0,72.0,61.0,4396.0,square2,f,0.0003,1,V,6.0
V6,78.0,90.0,61.0,54.0,74.0,61.0,4457.0,square2,f,0.0139,1,V,6.0
V6,79.0,80.0,64.0,51.0,75.0,64.0,4521.0,square2,f,0.1574,1,V,6.0
V6,80.0,85.0,62.0,56.0,78.0,85.0,4606.0,square1,i,0.0789,0,V,6.0
V6,81.0,86.0,65.0,58.0,69.0,86.0,4692.0,square1,i,0.1455,0,V,6.0
V6,82.0,83.0,62.0,58.0,77.0,83.0,4775.0,square1,i,0.1574,0,V,6.0
V6,83.0,87.0,61.0,59.0,70.0,87.0,4862.0,square1,i,0.1289,0,V,6.0
V6,84.0,89.0,65.0,54.0,78.0,89.0,4951.0,square1,i,0.1456,0,V,6.0
V6,85.0,78.0,63.0,55.0,75.0,78.0,5029.0,square1,i,0.1031,0,V,6.0
V6,86.0,87.0,67.0,52.0,75.0,87.0,5116.0,square1,i,0.3593,0,V,6.0
V6,87.0,86.0,62.0,60.0,75.0,86.0,5202.0,square1,i,0.1315,0,V,6.0
V6,88.0,79.0,67.0,56.0,76.0,79.0,5281.0,square1,i,0.1355,0,V,6.0
V6,89.0,83.0,61.0,57.0,75.0,83.0,5364.0,square1,i,0.0244,0,V,6.0
V6,90.0,83.0,67.0,51.0,76.0,83.0,5447.0,square1,i,0.0204,0,V,6.0
V6,91.0,83.0,63.0,55.0,69.0,83.0,5530.0,square1,i,0.2424,0,V,6.0
V6,92.0,89.0,56.0,53.0,68.0,89.0,5619.0,square1,i,0.1333,0,V,6.0
V6,93.0,84.0,61.0,59.0,74.0,84.0,5703.0,square1,i,0.2925,0,V,6.0
V6,94.0,77.0,58.0,58.0,76.0,77.0,5780.0,square1,i,0.227,0,V,6.0
V6,95.0,82.0,60.0,53.0,74.0,82.0,5862.0,square1,i,0.2703,0,V,6.0
V6,96.0,87.0,61.0,56.0,71.0,87.0,5949.0,square1,i,0.2483,0,V,6.0
V6,97.0,83.0,66.0,55.0,75.0,83.0,6032.0,square1,i,0.2468,0,V,6.0
V6,98.0,81.0,63.0,55.0,76.0,81.0,6113.0,square1,i,0.219,0,V,6.0
V6,99.0,92.0,63.0,61.0,78.0,92.0,6205.0,square1,i,0.5458,0,V,6.0
