block,Trial,square1,square2,square3,square4,currPoints,totalPoints,square,choiceKey.keys,choiceKey.rt,armNum,blockType,blockNum
prac,0.0,100.0,0.0,0.0,0.0,0,0.0,square3,,,2,p,0.0
prac,1.0,100.0,0.0,0.0,0.0,0,0.0,square4,,,3,p,0.0
prac,2.0,100.0,0.0,0.0,0.0,0,0.0,square2,,,1,p,0.0
prac,3.0,100.0,0.0,0.0,0.0,100,100.0,square1,,,0,p,0.0
prac,4.0,100.0,0.0,0.0,0.0,99999,100.0,invalid,,,-1,p,0.0
prac,5.0,100.0,0.0,0.0,0.0,0,100.0,square2,,,1,p,0.0
prac,6.0,100.0,0.0,0.0,0.0,0,100.0,square4,,,3,p,0.0
prac,7.0,100.0,0.0,0.0,0.0,100,200.0,square1,,,0,p,0.0
prac,8.0,100.0,0.0,0.0,0.0,100,300.0,square1,,,0,p,0.0
prac,9.0,100.0,0.0,0.0,0.0,100,400.0,square1,,,0,p,0.0
V12,0.0,47.0,30.0,38.0,55.0,55,55.0,square4,r,1.5974,3,V,12.0
V12,1.0,46.0,33.0,39.0,57.0,39,94.0,square3,f,0.3484,2,V,12.0
V12,2.0,51.0,29.0,42.0,52.0,29,123.0,square2,i,0.7201,1,V,12.0
V12,3.0,52.0,30.0,38.0,62.0,52,175.0,square1,j,0.3758,0,V,12.0
V12,4.0,48.0,30.0,39.0,62.0,48,223.0,square1,j,0.3225,0,V,12.0
V12,5.0,55.0,34.0,43.0,61.0,55,278.0,square1,j,0.2384,0,V,12.0
V12,6.0,45.0,35.0,42.0,56.0,56,334.0,square4,r,0.2715,3,V,12.0
V12,7.0,48.0,29.0,35.0,57.0,57,391.0,square4,r,0.0955,3,V,12.0
V12,8.0,46.0,33.0,38.0,59.0,33,424.0,square2,i,0.0669,1,V,12.0
V12,9.0,44.0,31.0,42.0,56.0,42,466.0,square3,f,0.039,2,V,12.0
V12,10.0,48.0,34.0,45.0,55.0,45,511.0,square3,f,0.3986,2,V,12.0
V12,11.0,45.0,32.0,41.0,55.0,41,552.0,square3,f,0.2342,2,V,12.0
V12,12.0,52.0,26.0,42.0,57.0,52,604.0,square1,j,0.3536,0,V,12.0
V12,13.0,56.0,31.0,41.0,54.0,54,658.0,square4,r,0.26,3,V,12.0
V12,14.0,44.0,34.0,40.0,64.0,34,692.0,square2,i,0.2809,1,V,12.0
V12,15.0,48.0,32.0,39.0,61.0,39,731.0,square3,f,0.0949,2,V,12.0
V12,16.0,49.0,33.0,37.0,58.0,58,789.0,square4,r,0.4973,3,V,12.0
V12,17.0,45.0,33.0,43.0,57.0,45,834.0,square1,j,0.2733,0,V,12.0
V12,18.0,45.0,28.0,40.0,58.0,58,892.0,square4,r,0.4136,3,V,12.0
V12,19.0,42.0,33.0,43.0,59.0,42,934.0,square1,j,0.3028,0,V,12.0
V12,20.0,46.0,30.0,38.0,62.0,62,996.0,square4,r,0.2447,3,V,12.0
V12,21.0,46.0,35.0,40.0,55.0,46,1042.0,square1,j,0.3878,0,V,12.0
V12,22.0,46.0,34.0,36.0,63.0,63,1105.0,square4,r,0.3534,3,V,12.0
V12,23.0,54.0,34.0,42.0,56.0,54,1159.0,square1,j,0.4318,0,V,12.0
V12,24.0,44.0,30.0,41.0,59.0,59,1218.0,square4,r,0.1611,3,V,12.0
V12,25.0,49.0,33.0,37.0,64.0,49,1267.0,square1,j,0.2029,0,V,12.0
V12,26.0,52.0,34.0,39.0,57.0,57,1324.0,square4,r,0.2068,3,V,12.0
V12,27.0,50.0,26.0,37.0,55.0,50,1374.0,square1,j,0.2155,0,V,12.0
V12,28.0,41.0,29.0,46.0,21.0,21,1395.0,square4,r,0.2152,3,V,12.0
V12,29.0,41.0,28.0,51.0,20.0,28,1423.0,square2,i,0.2594,1,V,12.0
V12,30.0,32.0,31.0,46.0,22.0,46,1469.0,square3,f,0.04,2,V,12.0
V12,31.0,38.0,28.0,45.0,22.0,38,1507.0,square1,j,0.4453,0,V,12.0
V12,32.0,35.0,27.0,44.0,16.0,44,1551.0,square3,f,0.3893,2,V,12.0
V12,33.0,39.0,29.0,49.0,21.0,49,1600.0,square3,f,0.582,2,V,12.0
V12,34.0,39.0,28.0,49.0,15.0,28,1628.0,square2,i,0.2084,1,V,12.0
V12,35.0,36.0,29.0,50.0,17.0,50,1678.0,square3,f,0.1795,2,V,12.0
V12,36.0,41.0,28.0,48.0,12.0,48,1726.0,square3,f,0.3446,2,V,12.0
V12,37.0,34.0,29.0,46.0,25.0,46,1772.0,square3,f,0.2169,2,V,12.0
V12,38.0,38.0,28.0,51.0,19.0,51,1823.0,square3,f,0.157,2,V,12.0
V12,39.0,39.0,31.0,45.0,13.0,45,1868.0,square3,f,0.3451,2,V,12.0
V12,40.0,35.0,28.0,46.0,26.0,46,1914.0,square3,f,0.1765,2,V,12.0
V12,41.0,38.0,27.0,46.0,20.0,46,1960.0,square3,f,0.3061,2,V,12.0
V12,42.0,40.0,26.0,50.0,23.0,50,2010.0,square3,f,0.3032,2,V,12.0
V12,43.0,33.0,30.0,45.0,18.0,45,2055.0,square3,f,0.2467,2,V,12.0
V12,44.0,39.0,31.0,46.0,22.0,46,2101.0,square3,f,0.2621,2,V,12.0
V12,45.0,32.0,26.0,42.0,20.0,42,2143.0,square3,f,0.2701,2,V,12.0
V12,46.0,36.0,29.0,43.0,24.0,43,2186.0,square3,f,0.0488,2,V,12.0
V12,47.0,37.0,30.0,46.0,21.0,46,2232.0,square3,f,0.0117,2,V,12.0
V12,48.0,37.0,27.0,44.0,19.0,44,2276.0,square3,f,0.2201,2,V,12.0
V12,49.0,36.0,33.0,55.0,16.0,55,2331.0,square3,f,0.4621,2,V,12.0
V12,50.0,45.0,28.0,44.0,18.0,44,2375.0,square3,f,0.2035,2,V,12.0
V12,51.0,35.0,32.0,49.0,19.0,49,2424.0,square3,f,0.1494,2,V,12.0
V12,52.0,36.0,56.0,31.0,52.0,31,2455.0,square3,f,0.1533,2,V,12.0
V12,53.0,36.0,57.0,29.0,45.0,45,2500.0,square4,r,0.1638,3,V,12.0
V12,54.0,38.0,61.0,28.0,51.0,51,2551.0,square4,r,0.3609,3,V,12.0
V12,55.0,35.0,60.0,29.0,47.0,47,2598.0,square4,r,0.1225,3,V,12.0
V12,56.0,34.0,62.0,29.0,46.0,46,2644.0,square4,r,0.3559,3,V,12.0
V12,57.0,43.0,57.0,32.0,46.0,46,2690.0,square4,r,0.2026,3,V,12.0
V12,58.0,40.0,59.0,32.0,50.0,50,2740.0,square4,r,0.2497,3,V,12.0
V12,59.0,41.0,62.0,33.0,48.0,48,2788.0,square4,r,0.2811,3,V,12.0
V12,60.0,36.0,61.0,32.0,49.0,49,2837.0,square4,r,0.3031,3,V,12.0
V12,61.0,39.0,56.0,32.0,44.0,44,2881.0,square4,r,0.1788,3,V,12.0
V12,62.0,39.0,57.0,30.0,46.0,46,2927.0,square4,r,0.154,3,V,12.0
V12,63.0,42.0,53.0,29.0,46.0,46,2973.0,square4,r,0.2362,3,V,12.0
V12,64.0,35.0,57.0,32.0,50.0,50,3023.0,square4,r,0.3278,3,V,12.0
V12,65.0,44.0,58.0,32.0,49.0,49,3072.0,square4,r,0.0958,3,V,12.0
V12,66.0,44.0,56.0,29.0,52.0,52,3124.0,square4,r,0.246,3,V,12.0
V12,67.0,41.0,60.0,30.0,49.0,49,3173.0,square4,r,0.205,3,V,12.0
V12,68.0,42.0,58.0,32.0,45.0,45,3218.0,square4,r,0.1717,3,V,12.0
V12,69.0,36.0,60.0,33.0,50.0,50,3268.0,square4,r,0.1494,3,V,12.0
V12,70.0,36.0,57.0,27.0,46.0,46,3314.0,square4,r,0.2131,3,V,12.0
V12,71.0,41.0,59.0,32.0,48.0,48,3362.0,square4,r,0.1513,3,V,12.0
V12,72.0,34.0,59.0,31.0,49.0,49,3411.0,square4,r,0.0108,3,V,12.0
V12,73.0,71.0,53.0,65.0,49.0,49,3460.0,square4,r,0.2027,3,V,12.0
V12,74.0,69.0,49.0,63.0,45.0,45,3505.0,square4,r,0.2315,3,V,12.0
V12,75.0,72.0,51.0,56.0,46.0,46,3551.0,square4,r,0.1243,3,V,12.0
V12,76.0,72.0,48.0,58.0,43.0,43,3594.0,square4,r,0.1846,3,V,12.0
V12,77.0,74.0,57.0,59.0,44.0,44,3638.0,square4,r,0.178,3,V,12.0
V12,78.0,69.0,55.0,63.0,50.0,50,3688.0,square4,r,0.3508,3,V,12.0
V12,79.0,73.0,53.0,58.0,43.0,43,3731.0,square4,r,0.011,3,V,12.0
V12,80.0,71.0,47.0,65.0,40.0,40,3771.0,square4,r,0.3829,3,V,12.0
V12,81.0,66.0,49.0,57.0,40.0,40,3811.0,square4,r,0.1408,3,V,12.0
V12,82.0,71.0,53.0,57.0,48.0,48,3859.0,square4,r,0.0982,3,V,12.0
V12,83.0,70.0,50.0,56.0,49.0,49,3908.0,square4,r,0.1513,3,V,12.0
V12,84.0,69.0,45.0,64.0,43.0,43,3951.0,square4,r,0.1201,3,V,12.0
V12,85.0,64.0,48.0,54.0,42.0,42,3993.0,square4,r,0.0673,3,V,12.0
V12,86.0,71.0,49.0,63.0,44.0,44,4037.0,square4,r,0.1763,3,V,12.0
V12,87.0,72.0,52.0,55.0,42.0,42,4079.0,square4,r,0.1561,3,V,12.0
V12,88.0,64.0,48.0,59.0,44.0,59,4138.0,square3,f,0.0809,2,V,12.0
V12,89.0,69.0,48.0,62.0,45.0,62,4200.0,square3,f,0.2446,2,V,12.0
V12,90.0,68.0,56.0,60.0,42.0,60,4260.0,square3,f,0.1792,2,V,12.0
V12,91.0,69.0,52.0,62.0,45.0,62,4322.0,square3,f,0.4162,2,V,12.0
V12,92.0,65.0,50.0,64.0,47.0,65,4387.0,square1,j,0.2075,0,V,12.0
V12,93.0,68.0,51.0,62.0,43.0,51,4438.0,square2,i,0.2577,1,V,12.0
V12,94.0,68.0,52.0,60.0,38.0,68,4506.0,square1,j,0.3255,0,V,12.0
V12,95.0,71.0,52.0,58.0,47.0,58,4564.0,square3,f,0.3374,2,V,12.0
V12,96.0,66.0,49.0,59.0,44.0,66,4630.0,square1,j,0.3542,0,V,12.0
V12,97.0,74.0,47.0,54.0,47.0,74,4704.0,square1,j,0.3195,0,V,12.0
V12,98.0,68.0,43.0,64.0,41.0,68,4772.0,square1,j,0.3151,0,V,12.0
V12,99.0,71.0,53.0,62.0,44.0,71,4843.0,square1,j,0.1632,0,V,12.0
V3,0.0,62.0,45.0,70.0,53.0,70,70.0,square3,j,0.7001,2,V,3.0
V3,1.0,63.0,47.0,76.0,60.0,76,146.0,square3,j,0.0926,2,V,3.0
V3,2.0,65.0,54.0,73.0,57.0,73,219.0,square3,j,0.0975,2,V,3.0
V3,3.0,68.0,51.0,71.0,51.0,71,290.0,square3,j,0.16,2,V,3.0
V3,4.0,61.0,49.0,75.0,53.0,75,365.0,square3,j,0.0379,2,V,3.0
V3,5.0,65.0,47.0,74.0,50.0,74,439.0,square3,j,0.241,2,V,3.0
V3,6.0,61.0,51.0,72.0,57.0,72,511.0,square3,j,0.0153,2,V,3.0
V3,7.0,67.0,49.0,75.0,55.0,75,586.0,square3,j,0.0662,2,V,3.0
V3,8.0,64.0,48.0,76.0,56.0,76,662.0,square3,j,0.1814,2,V,3.0
V3,9.0,67.0,49.0,71.0,56.0,71,733.0,square3,j,0.0984,2,V,3.0
V3,10.0,65.0,50.0,71.0,56.0,71,804.0,square3,j,0.1516,2,V,3.0
V3,11.0,63.0,43.0,78.0,58.0,78,882.0,square3,j,0.0947,2,V,3.0
V3,12.0,66.0,53.0,73.0,54.0,73,955.0,square3,j,0.2454,2,V,3.0
V3,13.0,64.0,46.0,78.0,51.0,78,1033.0,square3,j,0.1315,2,V,3.0
V3,14.0,67.0,51.0,71.0,58.0,71,1104.0,square3,j,0.0113,2,V,3.0
V3,15.0,61.0,50.0,73.0,54.0,73,1177.0,square3,j,0.1079,2,V,3.0
V3,16.0,64.0,52.0,74.0,54.0,74,1251.0,square3,j,0.0907,2,V,3.0
V3,17.0,61.0,48.0,74.0,55.0,74,1325.0,square3,j,0.1511,2,V,3.0
V3,18.0,65.0,50.0,70.0,59.0,70,1395.0,square3,j,0.1201,2,V,3.0
V3,19.0,64.0,52.0,76.0,56.0,76,1471.0,square3,j,0.0406,2,V,3.0
V3,20.0,64.0,50.0,69.0,58.0,69,1540.0,square3,j,0.1205,2,V,3.0
V3,21.0,66.0,50.0,72.0,56.0,72,1612.0,square3,j,0.2453,2,V,3.0
V3,22.0,43.0,48.0,40.0,62.0,40,1652.0,square3,j,0.0107,2,V,3.0
V3,23.0,41.0,51.0,35.0,59.0,59,1711.0,square4,i,0.0694,3,V,3.0
V3,24.0,51.0,51.0,37.0,60.0,51,1762.0,square2,f,0.0473,1,V,3.0
V3,25.0,45.0,53.0,36.0,57.0,45,1807.0,square1,r,0.1583,0,V,3.0
V3,26.0,44.0,51.0,38.0,59.0,38,1845.0,square3,j,0.0389,2,V,3.0
V3,27.0,43.0,51.0,34.0,66.0,66,1911.0,square4,i,0.4472,3,V,3.0
V3,28.0,47.0,51.0,40.0,67.0,67,1978.0,square4,i,0.093,3,V,3.0
V3,29.0,42.0,55.0,35.0,65.0,65,2043.0,square4,i,0.0447,3,V,3.0
V3,30.0,49.0,54.0,36.0,62.0,62,2105.0,square4,i,0.011,3,V,3.0
V3,31.0,50.0,53.0,42.0,66.0,66,2171.0,square4,i,0.0113,3,V,3.0
V3,32.0,47.0,53.0,34.0,58.0,58,2229.0,square4,i,0.1201,3,V,3.0
V3,33.0,45.0,56.0,34.0,62.0,62,2291.0,square4,i,0.0965,3,V,3.0
V3,34.0,48.0,54.0,38.0,64.0,64,2355.0,square4,i,0.095,3,V,3.0
V3,35.0,39.0,55.0,42.0,65.0,65,2420.0,square4,i,0.1508,3,V,3.0
V3,36.0,46.0,57.0,41.0,63.0,63,2483.0,square4,i,0.0391,3,V,3.0
V3,37.0,43.0,54.0,41.0,65.0,65,2548.0,square4,i,0.011,3,V,3.0
V3,38.0,47.0,52.0,37.0,63.0,63,2611.0,square4,i,0.1502,3,V,3.0
V3,39.0,47.0,53.0,38.0,55.0,55,2666.0,square4,i,0.0388,3,V,3.0
V3,40.0,41.0,54.0,39.0,64.0,64,2730.0,square4,i,0.1795,3,V,3.0
V3,41.0,48.0,52.0,38.0,64.0,64,2794.0,square4,i,0.0105,3,V,3.0
V3,42.0,45.0,50.0,34.0,63.0,63,2857.0,square4,i,0.1379,3,V,3.0
V3,43.0,44.0,50.0,34.0,62.0,50,2907.0,square2,f,0.0673,1,V,3.0
V3,44.0,47.0,55.0,39.0,65.0,65,2972.0,square4,i,0.1555,3,V,3.0
V3,45.0,45.0,55.0,31.0,63.0,45,3017.0,square1,r,0.0671,0,V,3.0
V3,46.0,42.0,52.0,38.0,64.0,64,3081.0,square4,i,0.0109,3,V,3.0
V3,47.0,44.0,53.0,37.0,55.0,55,3136.0,square4,i,0.1233,3,V,3.0
V3,48.0,44.0,49.0,37.0,58.0,37,3173.0,square3,j,0.0108,2,V,3.0
V3,49.0,48.0,58.0,35.0,54.0,54,3227.0,square4,i,0.1962,3,V,3.0
V3,50.0,42.0,28.0,30.0,52.0,52,3279.0,square4,i,0.0116,3,V,3.0
V3,51.0,46.0,29.0,32.0,51.0,51,3330.0,square4,i,0.1592,3,V,3.0
V3,52.0,37.0,20.0,36.0,50.0,37,3367.0,square1,r,0.0941,0,V,3.0
V3,53.0,44.0,22.0,34.0,55.0,22,3389.0,square2,f,0.136,1,V,3.0
V3,54.0,37.0,27.0,26.0,50.0,50,3439.0,square4,i,0.2148,3,V,3.0
V3,55.0,41.0,21.0,39.0,53.0,39,3478.0,square3,j,0.0657,2,V,3.0
V3,56.0,40.0,20.0,38.0,51.0,51,3529.0,square4,i,0.0384,3,V,3.0
V3,57.0,44.0,28.0,31.0,57.0,57,3586.0,square4,i,0.0134,3,V,3.0
V3,58.0,46.0,20.0,28.0,49.0,49,3635.0,square4,i,0.0384,3,V,3.0
V3,59.0,44.0,24.0,30.0,55.0,55,3690.0,square4,i,0.1902,3,V,3.0
V3,60.0,42.0,29.0,29.0,51.0,51,3741.0,square4,i,0.1237,3,V,3.0
V3,61.0,41.0,21.0,30.0,46.0,46,3787.0,square4,i,0.0731,3,V,3.0
V3,62.0,41.0,27.0,31.0,49.0,31,3818.0,square3,j,0.0111,2,V,3.0
V3,63.0,42.0,27.0,34.0,51.0,27,3845.0,square2,f,0.0107,1,V,3.0
V3,64.0,41.0,24.0,30.0,47.0,41,3886.0,square1,r,0.0962,0,V,3.0
V3,65.0,36.0,18.0,34.0,48.0,48,3934.0,square4,i,0.0686,3,V,3.0
V3,66.0,39.0,28.0,35.0,45.0,45,3979.0,square4,i,0.0376,3,V,3.0
V3,67.0,42.0,21.0,32.0,46.0,46,4025.0,square4,i,0.0669,3,V,3.0
V3,68.0,40.0,24.0,35.0,53.0,53,4078.0,square4,i,0.0105,3,V,3.0
V3,69.0,48.0,23.0,34.0,50.0,50,4128.0,square4,i,0.0398,3,V,3.0
V3,70.0,40.0,27.0,31.0,49.0,49,4177.0,square4,i,0.011,3,V,3.0
V3,71.0,41.0,23.0,28.0,51.0,51,4228.0,square4,i,0.041,3,V,3.0
V3,72.0,42.0,25.0,33.0,55.0,55,4283.0,square4,i,0.1226,3,V,3.0
V3,73.0,41.0,24.0,35.0,55.0,55,4338.0,square4,i,0.0378,3,V,3.0
V3,74.0,38.0,26.0,28.0,53.0,53,4391.0,square4,i,0.1082,3,V,3.0
V3,75.0,54.0,39.0,69.0,50.0,50,4441.0,square4,i,0.0975,3,V,3.0
V3,76.0,55.0,42.0,64.0,53.0,53,4494.0,square4,i,0.1317,3,V,3.0
V3,77.0,59.0,37.0,66.0,44.0,44,4538.0,square4,i,0.1197,3,V,3.0
V3,78.0,58.0,38.0,60.0,46.0,60,4598.0,square3,j,0.2166,2,V,3.0
V3,79.0,54.0,35.0,66.0,49.0,66,4664.0,square3,j,0.0384,2,V,3.0
V3,80.0,60.0,36.0,68.0,44.0,68,4732.0,square3,j,0.0437,2,V,3.0
V3,81.0,55.0,38.0,66.0,51.0,66,4798.0,square3,j,0.0109,2,V,3.0
V3,82.0,57.0,47.0,64.0,50.0,64,4862.0,square3,j,0.068,2,V,3.0
V3,83.0,57.0,37.0,63.0,45.0,63,4925.0,square3,j,0.0384,2,V,3.0
V3,84.0,54.0,40.0,65.0,53.0,65,4990.0,square3,j,0.0394,2,V,3.0
V3,85.0,58.0,41.0,63.0,48.0,63,5053.0,square3,j,0.0108,2,V,3.0
V3,86.0,53.0,38.0,57.0,49.0,57,5110.0,square3,j,0.179,2,V,3.0
V3,87.0,49.0,42.0,60.0,43.0,60,5170.0,square3,j,0.011,2,V,3.0
V3,88.0,56.0,35.0,70.0,46.0,70,5240.0,square3,j,0.0387,2,V,3.0
V3,89.0,58.0,39.0,63.0,52.0,63,5303.0,square3,j,0.1563,2,V,3.0
V3,90.0,59.0,43.0,63.0,45.0,63,5366.0,square3,j,0.0681,2,V,3.0
V3,91.0,54.0,37.0,69.0,49.0,69,5435.0,square3,j,0.0103,2,V,3.0
V3,92.0,56.0,41.0,61.0,47.0,61,5496.0,square3,j,0.2499,2,V,3.0
V3,93.0,58.0,35.0,68.0,47.0,68,5564.0,square3,j,0.0113,2,V,3.0
V3,94.0,61.0,37.0,67.0,51.0,67,5631.0,square3,j,0.1539,2,V,3.0
V3,95.0,57.0,32.0,64.0,47.0,64,5695.0,square3,j,0.0718,2,V,3.0
V3,96.0,53.0,38.0,63.0,48.0,63,5758.0,square3,j,0.1834,2,V,3.0
V3,97.0,57.0,44.0,71.0,50.0,71,5829.0,square3,j,0.0111,2,V,3.0
V3,98.0,56.0,39.0,70.0,47.0,70,5899.0,square3,j,0.0393,2,V,3.0
V3,99.0,62.0,40.0,67.0,49.0,99999,5899.0,invalid,,,-1,V,3.0
V8,0.0,49.0,55.0,64.0,74.0,49,49.0,square1,j,1.4914,0,V,8.0
V8,1.0,51.0,54.0,70.0,81.0,81,130.0,square4,f,0.0937,3,V,8.0
V8,2.0,46.0,62.0,70.0,77.0,77,207.0,square4,f,0.0674,3,V,8.0
V8,3.0,46.0,56.0,67.0,75.0,75,282.0,square4,f,0.067,3,V,8.0
V8,4.0,50.0,59.0,67.0,83.0,83,365.0,square4,f,0.0394,3,V,8.0
V8,5.0,51.0,54.0,65.0,78.0,78,443.0,square4,f,0.0126,3,V,8.0
V8,6.0,45.0,57.0,66.0,80.0,80,523.0,square4,f,0.0113,3,V,8.0
V8,7.0,46.0,64.0,68.0,77.0,77,600.0,square4,f,0.0109,3,V,8.0
V8,8.0,50.0,57.0,66.0,73.0,73,673.0,square4,f,0.0395,3,V,8.0
V8,9.0,46.0,56.0,71.0,72.0,72,745.0,square4,f,0.1221,3,V,8.0
V8,10.0,56.0,58.0,67.0,75.0,75,820.0,square4,f,0.0675,3,V,8.0
V8,11.0,50.0,61.0,69.0,74.0,74,894.0,square4,f,0.1781,3,V,8.0
V8,12.0,59.0,59.0,69.0,77.0,77,971.0,square4,f,0.0115,3,V,8.0
V8,13.0,50.0,56.0,72.0,77.0,77,1048.0,square4,f,0.0108,3,V,8.0
V8,14.0,48.0,55.0,65.0,80.0,80,1128.0,square4,f,0.0762,3,V,8.0
V8,15.0,48.0,58.0,65.0,76.0,76,1204.0,square4,f,0.0964,3,V,8.0
V8,16.0,49.0,58.0,67.0,75.0,75,1279.0,square4,f,0.0642,3,V,8.0
V8,17.0,51.0,56.0,68.0,76.0,76,1355.0,square4,f,0.1781,3,V,8.0
V8,18.0,52.0,63.0,69.0,80.0,80,1435.0,square4,f,0.162,3,V,8.0
V8,19.0,54.0,54.0,71.0,79.0,79,1514.0,square4,f,0.209,3,V,8.0
V8,20.0,48.0,53.0,62.0,77.0,77,1591.0,square4,f,0.0123,3,V,8.0
V8,21.0,44.0,61.0,66.0,77.0,77,1668.0,square4,f,0.1825,3,V,8.0
V8,22.0,52.0,58.0,64.0,78.0,78,1746.0,square4,f,0.011,3,V,8.0
V8,23.0,50.0,49.0,67.0,79.0,79,1825.0,square4,f,0.2374,3,V,8.0
V8,24.0,49.0,59.0,69.0,74.0,74,1899.0,square4,f,0.0112,3,V,8.0
V8,25.0,46.0,61.0,65.0,81.0,81,1980.0,square4,f,0.1607,3,V,8.0
V8,26.0,49.0,58.0,63.0,35.0,35,2015.0,square4,f,0.0434,3,V,8.0
V8,27.0,48.0,51.0,66.0,41.0,41,2056.0,square4,f,0.0108,3,V,8.0
V8,28.0,46.0,55.0,65.0,38.0,38,2094.0,square4,f,0.0396,3,V,8.0
V8,29.0,47.0,58.0,69.0,40.0,40,2134.0,square4,f,0.039,3,V,8.0
V8,30.0,42.0,55.0,67.0,43.0,55,2189.0,square2,r,1.1306,1,V,8.0
V8,31.0,49.0,56.0,64.0,36.0,56,2245.0,square2,r,0.1372,1,V,8.0
V8,32.0,49.0,55.0,69.0,38.0,69,2314.0,square3,i,0.152,2,V,8.0
V8,33.0,44.0,52.0,65.0,48.0,65,2379.0,square3,i,0.084,2,V,8.0
V8,34.0,44.0,57.0,70.0,45.0,70,2449.0,square3,i,0.0108,2,V,8.0
V8,35.0,44.0,54.0,68.0,38.0,68,2517.0,square3,i,0.1506,2,V,8.0
V8,36.0,45.0,56.0,64.0,40.0,64,2581.0,square3,i,0.0149,2,V,8.0
V8,37.0,47.0,57.0,66.0,37.0,66,2647.0,square3,i,0.0762,2,V,8.0
V8,38.0,49.0,50.0,66.0,37.0,66,2713.0,square3,i,0.2404,2,V,8.0
V8,39.0,51.0,56.0,61.0,39.0,61,2774.0,square3,i,0.0111,2,V,8.0
V8,40.0,47.0,59.0,66.0,41.0,66,2840.0,square3,i,0.066,2,V,8.0
V8,41.0,42.0,56.0,69.0,42.0,69,2909.0,square3,i,0.0474,2,V,8.0
V8,42.0,47.0,57.0,72.0,35.0,72,2981.0,square3,i,0.0677,2,V,8.0
V8,43.0,47.0,57.0,63.0,44.0,63,3044.0,square3,i,0.1807,2,V,8.0
V8,44.0,45.0,58.0,67.0,42.0,67,3111.0,square3,i,0.1073,2,V,8.0
V8,45.0,44.0,56.0,66.0,43.0,66,3177.0,square3,i,0.1307,2,V,8.0
V8,46.0,46.0,53.0,70.0,37.0,70,3247.0,square3,i,0.0699,2,V,8.0
V8,47.0,54.0,53.0,71.0,41.0,71,3318.0,square3,i,0.1375,2,V,8.0
V8,48.0,49.0,53.0,69.0,37.0,69,3387.0,square3,i,0.0672,2,V,8.0
V8,49.0,39.0,57.0,65.0,47.0,65,3452.0,square3,i,0.1233,2,V,8.0
V8,50.0,48.0,55.0,65.0,41.0,65,3517.0,square3,i,0.0721,2,V,8.0
V8,51.0,45.0,61.0,68.0,43.0,68,3585.0,square3,i,0.1371,2,V,8.0
V8,52.0,53.0,52.0,68.0,37.0,68,3653.0,square3,i,0.151,2,V,8.0
V8,53.0,47.0,55.0,66.0,46.0,66,3719.0,square3,i,0.0115,2,V,8.0
V8,54.0,49.0,53.0,61.0,39.0,61,3780.0,square3,i,0.0445,2,V,8.0
V8,55.0,53.0,70.0,55.0,72.0,55,3835.0,square3,i,0.1523,2,V,8.0
V8,56.0,57.0,63.0,48.0,73.0,48,3883.0,square3,i,0.0108,2,V,8.0
V8,57.0,53.0,71.0,45.0,80.0,80,3963.0,square4,f,0.0114,3,V,8.0
V8,58.0,57.0,69.0,52.0,73.0,73,4036.0,square4,f,0.0503,3,V,8.0
V8,59.0,58.0,67.0,54.0,73.0,73,4109.0,square4,f,0.1535,3,V,8.0
V8,60.0,55.0,66.0,47.0,76.0,76,4185.0,square4,f,0.0664,3,V,8.0
V8,61.0,56.0,65.0,54.0,72.0,72,4257.0,square4,f,0.1146,3,V,8.0
V8,62.0,56.0,65.0,49.0,75.0,75,4332.0,square4,f,0.1252,3,V,8.0
V8,63.0,61.0,65.0,44.0,78.0,78,4410.0,square4,f,0.1861,3,V,8.0
V8,64.0,54.0,66.0,48.0,75.0,75,4485.0,square4,f,0.1567,3,V,8.0
V8,65.0,59.0,65.0,46.0,79.0,79,4564.0,square4,f,0.1317,3,V,8.0
V8,66.0,51.0,62.0,46.0,73.0,73,4637.0,square4,f,0.0153,3,V,8.0
V8,67.0,60.0,70.0,45.0,76.0,76,4713.0,square4,f,0.09,3,V,8.0
V8,68.0,63.0,64.0,47.0,73.0,73,4786.0,square4,f,0.0676,3,V,8.0
V8,69.0,58.0,66.0,43.0,77.0,77,4863.0,square4,f,0.0737,3,V,8.0
V8,70.0,59.0,65.0,49.0,73.0,73,4936.0,square4,f,0.1811,3,V,8.0
V8,71.0,60.0,64.0,49.0,79.0,79,5015.0,square4,f,0.0112,3,V,8.0
V8,72.0,96.0,68.0,78.0,67.0,67,5082.0,square4,f,0.0113,3,V,8.0
V8,73.0,96.0,68.0,79.0,64.0,64,5146.0,square4,f,0.1221,3,V,8.0
V8,74.0,92.0,67.0,81.0,62.0,62,5208.0,square4,f,0.0107,3,V,8.0
V8,75.0,96.0,72.0,83.0,62.0,83,5291.0,square3,i,0.0756,2,V,8.0
V8,76.0,94.0,70.0,77.0,57.0,77,5368.0,square3,i,0.1267,2,V,8.0
V8,77.0,91.0,68.0,81.0,59.0,81,5449.0,square3,i,0.1305,2,V,8.0
V8,78.0,90.0,73.0,80.0,63.0,80,5529.0,square3,i,0.0112,2,V,8.0
V8,79.0,90.0,73.0,83.0,61.0,83,5612.0,square3,i,0.0107,2,V,8.0
V8,80.0,95.0,75.0,81.0,66.0,81,5693.0,square3,i,0.0397,2,V,8.0
V8,81.0,92.0,72.0,81.0,57.0,81,5774.0,square3,i,0.0112,2,V,8.0
V8,82.0,91.0,71.0,80.0,61.0,80,5854.0,square3,i,0.1725,2,V,8.0
V8,83.0,90.0,66.0,83.0,62.0,83,5937.0,square3,i,0.0117,2,V,8.0
V8,84.0,93.0,67.0,87.0,65.0,87,6024.0,square3,i,0.0101,2,V,8.0
V8,85.0,85.0,70.0,80.0,62.0,80,6104.0,square3,i,0.0744,2,V,8.0
V8,86.0,84.0,72.0,85.0,62.0,85,6189.0,square3,i,0.1465,2,V,8.0
V8,87.0,91.0,68.0,82.0,65.0,82,6271.0,square3,i,0.1042,2,V,8.0
V8,88.0,93.0,67.0,83.0,61.0,83,6354.0,square3,i,0.1286,2,V,8.0
V8,89.0,95.0,68.0,78.0,66.0,78,6432.0,square3,i,0.1365,2,V,8.0
V8,90.0,91.0,73.0,80.0,60.0,60,6492.0,square4,f,0.0691,3,V,8.0
V8,91.0,93.0,68.0,81.0,64.0,81,6573.0,square3,i,0.0677,2,V,8.0
V8,92.0,90.0,75.0,82.0,67.0,82,6655.0,square3,i,0.0107,2,V,8.0
V8,93.0,92.0,70.0,82.0,66.0,82,6737.0,square3,i,0.0679,2,V,8.0
V8,94.0,90.0,71.0,78.0,63.0,78,6815.0,square3,i,0.1328,2,V,8.0
V8,95.0,88.0,65.0,78.0,63.0,78,6893.0,square3,i,0.0968,2,V,8.0
V8,96.0,89.0,72.0,85.0,62.0,85,6978.0,square3,i,0.0988,2,V,8.0
V8,97.0,92.0,72.0,77.0,67.0,77,7055.0,square3,i,0.0823,2,V,8.0
V8,98.0,86.0,63.0,82.0,62.0,82,7137.0,square3,i,0.0391,2,V,8.0
V8,99.0,90.0,66.0,75.0,61.0,75,7212.0,square3,i,0.0112,2,V,8.0
S11,0.0,49.0,53.0,49.0,45.0,99999,0.0,invalid,,,-1,S,11.0
S11,1.0,54.0,56.0,42.0,50.0,99999,0.0,invalid,,,-1,S,11.0
S11,2.0,39.0,51.0,39.0,43.0,39,39.0,square3,f,0.7442,2,S,11.0
S11,3.0,53.0,50.0,38.0,43.0,38,77.0,square3,f,0.0751,2,S,11.0
S11,4.0,47.0,54.0,39.0,48.0,48,125.0,square4,r,0.0422,3,S,11.0
S11,5.0,47.0,52.0,40.0,46.0,99999,125.0,invalid,,,-1,S,11.0
S11,6.0,47.0,46.0,44.0,54.0,47,172.0,square1,i,0.068,0,S,11.0
S11,7.0,48.0,51.0,35.0,51.0,51,223.0,square2,j,0.1261,1,S,11.0
S11,8.0,52.0,49.0,36.0,43.0,43,266.0,square4,r,0.0174,3,S,11.0
S11,9.0,47.0,53.0,41.0,55.0,41,307.0,square3,f,0.0383,2,S,11.0
S11,10.0,44.0,48.0,41.0,43.0,48,355.0,square2,j,0.1371,1,S,11.0
S11,11.0,41.0,54.0,38.0,43.0,41,396.0,square1,i,0.0438,0,S,11.0
S11,12.0,45.0,54.0,44.0,45.0,54,450.0,square2,j,0.0401,1,S,11.0
S11,13.0,54.0,52.0,44.0,50.0,44,494.0,square3,f,0.0117,2,S,11.0
S11,14.0,57.0,58.0,36.0,45.0,36,530.0,square3,f,0.0112,2,S,11.0
S11,15.0,48.0,54.0,43.0,49.0,48,578.0,square1,i,0.0106,0,S,11.0
S11,16.0,58.0,47.0,42.0,46.0,58,636.0,square1,i,0.0702,0,S,11.0
S11,17.0,41.0,61.0,42.0,53.0,41,677.0,square1,i,0.0118,0,S,11.0
S11,18.0,51.0,58.0,33.0,39.0,33,710.0,square3,f,0.0142,2,S,11.0
S11,19.0,48.0,49.0,37.0,42.0,49,759.0,square2,j,0.0998,1,S,11.0
S11,20.0,52.0,52.0,45.0,46.0,45,804.0,square3,f,0.0111,2,S,11.0
S11,21.0,47.0,53.0,44.0,51.0,51,855.0,square4,r,0.0427,3,S,11.0
S11,22.0,49.0,54.0,37.0,41.0,54,909.0,square2,j,0.1244,1,S,11.0
S11,23.0,52.0,54.0,41.0,45.0,54,963.0,square2,j,0.0974,1,S,11.0
S11,24.0,42.0,56.0,41.0,45.0,45,1008.0,square4,r,0.0108,3,S,11.0
S11,25.0,52.0,56.0,42.0,44.0,52,1060.0,square1,i,0.0418,0,S,11.0
S11,26.0,43.0,56.0,41.0,45.0,43,1103.0,square1,i,0.0668,0,S,11.0
S11,27.0,48.0,50.0,40.0,43.0,43,1146.0,square4,r,0.1078,3,S,11.0
S11,28.0,46.0,49.0,38.0,48.0,38,1184.0,square3,f,0.0114,2,S,11.0
S11,29.0,46.0,55.0,40.0,42.0,55,1239.0,square2,j,0.0875,1,S,11.0
S11,30.0,46.0,56.0,43.0,37.0,56,1295.0,square2,j,0.0394,1,S,11.0
S11,31.0,42.0,49.0,44.0,42.0,49,1344.0,square2,j,0.0108,1,S,11.0
S11,32.0,51.0,52.0,36.0,40.0,51,1395.0,square1,i,0.1279,0,S,11.0
S11,33.0,44.0,53.0,39.0,43.0,53,1448.0,square2,j,0.0111,1,S,11.0
S11,34.0,52.0,52.0,43.0,49.0,49,1497.0,square4,r,0.1575,3,S,11.0
S11,35.0,53.0,51.0,38.0,45.0,51,1548.0,square2,j,0.049,1,S,11.0
S11,36.0,50.0,44.0,42.0,48.0,44,1592.0,square2,j,0.0674,1,S,11.0
S11,37.0,49.0,51.0,40.0,48.0,51,1643.0,square2,j,0.0681,1,S,11.0
S11,38.0,47.0,47.0,39.0,38.0,38,1681.0,square4,r,0.099,3,S,11.0
S11,39.0,51.0,55.0,40.0,42.0,55,1736.0,square2,j,0.1551,1,S,11.0
S11,40.0,50.0,52.0,41.0,44.0,52,1788.0,square2,j,0.0403,1,S,11.0
S11,41.0,47.0,50.0,46.0,50.0,47,1835.0,square1,i,0.1245,0,S,11.0
S11,42.0,52.0,48.0,41.0,47.0,48,1883.0,square2,j,0.0736,1,S,11.0
S11,43.0,50.0,56.0,34.0,42.0,56,1939.0,square2,j,0.0697,1,S,11.0
S11,44.0,42.0,48.0,37.0,49.0,42,1981.0,square1,i,0.0401,0,S,11.0
S11,45.0,47.0,47.0,41.0,40.0,47,2028.0,square1,i,0.0784,0,S,11.0
S11,46.0,50.0,56.0,40.0,44.0,50,2078.0,square1,i,0.0959,0,S,11.0
S11,47.0,46.0,48.0,38.0,47.0,48,2126.0,square2,j,0.1926,1,S,11.0
S11,48.0,45.0,54.0,44.0,41.0,54,2180.0,square2,j,0.0773,1,S,11.0
S11,49.0,44.0,53.0,41.0,41.0,44,2224.0,square1,i,0.0811,0,S,11.0
S10,0.0,72.0,76.0,80.0,64.0,72,72.0,square1,j,0.2767,0,S,10.0
S10,1.0,76.0,75.0,74.0,65.0,76,148.0,square1,j,0.0971,0,S,10.0
S10,2.0,70.0,72.0,79.0,74.0,70,218.0,square1,j,0.0675,0,S,10.0
S10,3.0,69.0,77.0,76.0,68.0,69,287.0,square1,j,0.0392,0,S,10.0
S10,4.0,72.0,79.0,77.0,70.0,72,359.0,square1,j,0.0696,0,S,10.0
S10,5.0,68.0,74.0,72.0,64.0,68,427.0,square1,j,0.0108,0,S,10.0
S10,6.0,70.0,77.0,72.0,62.0,70,497.0,square1,j,0.1572,0,S,10.0
S10,7.0,78.0,81.0,80.0,74.0,78,575.0,square1,j,0.1027,0,S,10.0
S10,8.0,78.0,78.0,82.0,66.0,78,653.0,square1,j,0.0798,0,S,10.0
S10,9.0,69.0,76.0,77.0,65.0,69,722.0,square1,j,0.1403,0,S,10.0
S10,10.0,72.0,78.0,72.0,75.0,72,794.0,square1,j,0.0113,0,S,10.0
S10,11.0,71.0,76.0,78.0,66.0,71,865.0,square1,j,0.0117,0,S,10.0
S10,12.0,73.0,83.0,79.0,69.0,73,938.0,square1,j,0.091,0,S,10.0
S10,13.0,68.0,77.0,65.0,65.0,68,1006.0,square1,j,0.0505,0,S,10.0
S10,14.0,69.0,84.0,79.0,65.0,69,1075.0,square1,j,0.1265,0,S,10.0
S10,15.0,72.0,84.0,70.0,71.0,72,1147.0,square1,j,0.0151,0,S,10.0
S10,16.0,79.0,80.0,82.0,67.0,79,1226.0,square1,j,0.0117,0,S,10.0
S10,17.0,69.0,83.0,75.0,70.0,69,1295.0,square1,j,0.0528,0,S,10.0
S10,18.0,69.0,75.0,69.0,68.0,69,1364.0,square1,j,0.0892,0,S,10.0
S10,19.0,70.0,83.0,73.0,66.0,70,1434.0,square1,j,0.0687,0,S,10.0
S10,20.0,69.0,83.0,75.0,66.0,69,1503.0,square1,j,0.0722,0,S,10.0
S10,21.0,77.0,70.0,75.0,70.0,77,1580.0,square1,j,0.0393,0,S,10.0
S10,22.0,73.0,77.0,81.0,69.0,73,1653.0,square1,j,0.1572,0,S,10.0
S10,23.0,73.0,78.0,70.0,65.0,73,1726.0,square1,j,0.0144,0,S,10.0
S10,24.0,70.0,80.0,75.0,66.0,70,1796.0,square1,j,0.3986,0,S,10.0
S10,25.0,70.0,80.0,73.0,72.0,70,1866.0,square1,j,0.1244,0,S,10.0
S10,26.0,73.0,75.0,73.0,75.0,73,1939.0,square1,j,0.1224,0,S,10.0
S10,27.0,77.0,81.0,83.0,66.0,77,2016.0,square1,j,0.183,0,S,10.0
S10,28.0,73.0,79.0,79.0,73.0,73,2089.0,square1,j,0.0402,0,S,10.0
S10,29.0,73.0,79.0,72.0,69.0,73,2162.0,square1,j,0.0114,0,S,10.0
S10,30.0,71.0,85.0,79.0,69.0,71,2233.0,square1,j,0.0108,0,S,10.0
S10,31.0,71.0,85.0,83.0,66.0,71,2304.0,square1,j,0.156,0,S,10.0
S10,32.0,78.0,79.0,77.0,65.0,78,2382.0,square1,j,0.0388,0,S,10.0
S10,33.0,83.0,79.0,72.0,68.0,83,2465.0,square1,j,0.0408,0,S,10.0
S10,34.0,68.0,74.0,79.0,72.0,68,2533.0,square1,j,0.1539,0,S,10.0
S10,35.0,70.0,83.0,79.0,67.0,70,2603.0,square1,j,0.0146,0,S,10.0
S10,36.0,67.0,76.0,75.0,72.0,67,2670.0,square1,j,0.0701,0,S,10.0
S10,37.0,76.0,82.0,79.0,60.0,76,2746.0,square1,j,0.0699,0,S,10.0
S10,38.0,72.0,75.0,69.0,68.0,72,2818.0,square1,j,0.0115,0,S,10.0
S10,39.0,73.0,78.0,76.0,70.0,73,2891.0,square1,j,0.2965,0,S,10.0
S10,40.0,76.0,77.0,66.0,60.0,76,2967.0,square1,j,0.167,0,S,10.0
S10,41.0,74.0,83.0,73.0,67.0,74,3041.0,square1,j,0.1127,0,S,10.0
S10,42.0,72.0,69.0,80.0,63.0,72,3113.0,square1,j,0.1879,0,S,10.0
S10,43.0,69.0,74.0,72.0,68.0,69,3182.0,square1,j,0.0445,0,S,10.0
S10,44.0,67.0,76.0,70.0,65.0,67,3249.0,square1,j,0.0844,0,S,10.0
S10,45.0,76.0,81.0,74.0,72.0,76,3325.0,square1,j,0.1011,0,S,10.0
S10,46.0,76.0,79.0,76.0,66.0,76,3401.0,square1,j,0.0964,0,S,10.0
S10,47.0,67.0,81.0,84.0,60.0,67,3468.0,square1,j,0.0791,0,S,10.0
S10,48.0,73.0,83.0,75.0,66.0,73,3541.0,square1,j,0.0938,0,S,10.0
S10,49.0,66.0,77.0,74.0,71.0,66,3607.0,square1,j,0.1255,0,S,10.0
S7,0.0,68.0,73.0,62.0,57.0,73,73.0,square2,r,0.9621,1,S,7.0
S7,1.0,74.0,67.0,66.0,59.0,66,139.0,square3,i,0.0113,2,S,7.0
S7,2.0,68.0,69.0,65.0,60.0,69,208.0,square2,r,0.1899,1,S,7.0
S7,3.0,74.0,68.0,65.0,63.0,68,276.0,square2,r,0.0686,1,S,7.0
S7,4.0,68.0,74.0,67.0,63.0,74,350.0,square2,r,0.1576,1,S,7.0
S7,5.0,68.0,67.0,61.0,57.0,67,417.0,square2,r,0.0111,1,S,7.0
S7,6.0,72.0,64.0,65.0,51.0,64,481.0,square2,r,0.0438,1,S,7.0
S7,7.0,69.0,63.0,69.0,63.0,69,550.0,square3,i,0.1309,2,S,7.0
S7,8.0,71.0,68.0,63.0,54.0,68,618.0,square2,r,0.0111,1,S,7.0
S7,9.0,81.0,66.0,68.0,62.0,66,684.0,square2,r,0.0415,1,S,7.0
S7,10.0,72.0,73.0,68.0,61.0,73,757.0,square2,r,0.0788,1,S,7.0
S7,11.0,72.0,72.0,62.0,58.0,62,819.0,square3,i,0.1131,2,S,7.0
S7,12.0,66.0,66.0,62.0,61.0,66,885.0,square2,r,0.0707,1,S,7.0
S7,13.0,73.0,75.0,75.0,68.0,75,960.0,square3,i,0.099,2,S,7.0
S7,14.0,71.0,73.0,72.0,66.0,73,1033.0,square2,r,0.0981,1,S,7.0
S7,15.0,75.0,68.0,68.0,65.0,68,1101.0,square3,i,0.0412,2,S,7.0
S7,16.0,67.0,65.0,62.0,56.0,65,1166.0,square2,r,0.8877,1,S,7.0
S7,17.0,72.0,67.0,63.0,64.0,63,1229.0,square3,i,0.1006,2,S,7.0
S7,18.0,73.0,69.0,66.0,65.0,69,1298.0,square2,r,0.0421,1,S,7.0
S7,19.0,75.0,70.0,62.0,58.0,62,1360.0,square3,i,0.0125,2,S,7.0
S7,20.0,76.0,63.0,67.0,62.0,67,1427.0,square3,i,0.1467,2,S,7.0
S7,21.0,79.0,76.0,63.0,64.0,76,1503.0,square2,r,0.1571,1,S,7.0
S7,22.0,67.0,72.0,63.0,62.0,63,1566.0,square3,i,0.0102,2,S,7.0
S7,23.0,69.0,71.0,70.0,62.0,71,1637.0,square2,r,0.5329,1,S,7.0
S7,24.0,74.0,67.0,70.0,62.0,67,1704.0,square2,r,0.0398,1,S,7.0
S7,25.0,70.0,67.0,72.0,62.0,67,1771.0,square2,r,0.0117,1,S,7.0
S7,26.0,72.0,62.0,74.0,65.0,62,1833.0,square2,r,0.0704,1,S,7.0
S7,27.0,69.0,70.0,68.0,62.0,70,1903.0,square2,r,0.0112,1,S,7.0
S7,28.0,65.0,66.0,60.0,62.0,66,1969.0,square2,r,0.1945,1,S,7.0
S7,29.0,70.0,64.0,60.0,68.0,64,2033.0,square2,r,0.0111,1,S,7.0
S7,30.0,69.0,69.0,64.0,57.0,69,2102.0,square2,r,0.0674,1,S,7.0
S7,31.0,77.0,67.0,65.0,60.0,67,2169.0,square2,r,0.1136,1,S,7.0
S7,32.0,67.0,75.0,65.0,58.0,75,2244.0,square2,r,0.1464,1,S,7.0
S7,33.0,74.0,66.0,66.0,60.0,66,2310.0,square2,r,0.1674,1,S,7.0
S7,34.0,72.0,72.0,66.0,61.0,66,2376.0,square3,i,0.3328,2,S,7.0
S7,35.0,67.0,68.0,64.0,62.0,64,2440.0,square3,i,0.1556,2,S,7.0
S7,36.0,64.0,63.0,70.0,58.0,70,2510.0,square3,i,0.0115,2,S,7.0
S7,37.0,80.0,72.0,64.0,53.0,64,2574.0,square3,i,0.0769,2,S,7.0
S7,38.0,78.0,69.0,76.0,67.0,76,2650.0,square3,i,0.1284,2,S,7.0
S7,39.0,69.0,66.0,60.0,67.0,60,2710.0,square3,i,0.2162,2,S,7.0
S7,40.0,72.0,71.0,63.0,66.0,71,2781.0,square2,r,0.5486,1,S,7.0
S7,41.0,80.0,73.0,65.0,63.0,73,2854.0,square2,r,0.0414,1,S,7.0
S7,42.0,77.0,60.0,65.0,59.0,60,2914.0,square2,r,0.0106,1,S,7.0
S7,43.0,70.0,72.0,70.0,63.0,72,2986.0,square2,r,0.1736,1,S,7.0
S7,44.0,77.0,70.0,66.0,58.0,70,3056.0,square2,r,0.0722,1,S,7.0
S7,45.0,75.0,69.0,73.0,58.0,69,3125.0,square2,r,0.1761,1,S,7.0
S7,46.0,74.0,71.0,63.0,63.0,71,3196.0,square2,r,0.0662,1,S,7.0
S7,47.0,73.0,75.0,71.0,64.0,75,3271.0,square2,r,0.0112,1,S,7.0
S7,48.0,78.0,79.0,64.0,58.0,79,3350.0,square2,r,0.1562,1,S,7.0
S7,49.0,75.0,72.0,66.0,72.0,72,3422.0,square2,r,0.155,1,S,7.0
S4,0.0,18.0,16.0,34.0,20.0,99999,0.0,invalid,,,-1,S,4.0
S4,1.0,33.0,26.0,26.0,23.0,33,33.0,square1,j,0.3561,0,S,4.0
S4,2.0,35.0,15.0,33.0,22.0,35,68.0,square1,j,0.0774,0,S,4.0
S4,3.0,28.0,19.0,27.0,27.0,28,96.0,square1,j,0.0143,0,S,4.0
S4,4.0,27.0,16.0,25.0,28.0,16,112.0,square2,i,0.0402,1,S,4.0
S4,5.0,23.0,22.0,31.0,24.0,24,136.0,square4,r,0.0434,3,S,4.0
S4,6.0,25.0,20.0,34.0,23.0,34,170.0,square3,f,0.158,2,S,4.0
S4,7.0,21.0,22.0,30.0,21.0,30,200.0,square3,f,0.0994,2,S,4.0
S4,8.0,33.0,24.0,33.0,17.0,33,233.0,square1,j,0.3476,0,S,4.0
S4,9.0,24.0,18.0,31.0,28.0,18,251.0,square2,i,0.1261,1,S,4.0
S4,10.0,31.0,26.0,35.0,20.0,35,286.0,square3,f,0.0396,2,S,4.0
S4,11.0,25.0,15.0,31.0,25.0,31,317.0,square3,f,0.0401,2,S,4.0
S4,12.0,24.0,16.0,29.0,22.0,29,346.0,square3,f,0.1353,2,S,4.0
S4,13.0,28.0,23.0,25.0,17.0,25,371.0,square3,f,0.0695,2,S,4.0
S4,14.0,22.0,23.0,21.0,23.0,23,394.0,square4,r,0.0739,3,S,4.0
S4,15.0,25.0,19.0,28.0,25.0,25,419.0,square1,j,0.2736,0,S,4.0
S4,16.0,26.0,17.0,30.0,21.0,26,445.0,square1,j,0.0443,0,S,4.0
S4,17.0,22.0,21.0,29.0,22.0,21,466.0,square2,i,0.1464,1,S,4.0
S4,18.0,28.0,22.0,32.0,22.0,32,498.0,square3,f,0.3368,2,S,4.0
S4,19.0,26.0,19.0,31.0,26.0,31,529.0,square3,f,0.0712,2,S,4.0
S4,20.0,28.0,18.0,28.0,25.0,28,557.0,square3,f,0.1659,2,S,4.0
S4,21.0,33.0,26.0,21.0,29.0,21,578.0,square3,f,0.1571,2,S,4.0
S4,22.0,31.0,19.0,29.0,20.0,29,607.0,square3,f,0.1577,2,S,4.0
S4,23.0,27.0,21.0,36.0,26.0,36,643.0,square3,f,0.1442,2,S,4.0
S4,24.0,28.0,15.0,32.0,21.0,32,675.0,square3,f,0.1269,2,S,4.0
S4,25.0,27.0,18.0,28.0,25.0,28,703.0,square3,f,0.2107,2,S,4.0
S4,26.0,26.0,20.0,27.0,14.0,27,730.0,square3,f,0.1871,2,S,4.0
S4,27.0,28.0,19.0,36.0,18.0,36,766.0,square3,f,0.1278,2,S,4.0
S4,28.0,28.0,19.0,28.0,23.0,28,794.0,square3,f,0.0537,2,S,4.0
S4,29.0,25.0,22.0,29.0,23.0,29,823.0,square3,f,0.0105,2,S,4.0
S4,30.0,26.0,16.0,30.0,20.0,30,853.0,square3,f,0.1874,2,S,4.0
S4,31.0,23.0,25.0,26.0,30.0,26,879.0,square3,f,0.0114,2,S,4.0
S4,32.0,21.0,26.0,22.0,23.0,22,901.0,square3,f,0.0684,2,S,4.0
S4,33.0,25.0,22.0,24.0,17.0,24,925.0,square3,f,0.1273,2,S,4.0
S4,34.0,30.0,22.0,33.0,24.0,33,958.0,square3,f,0.1647,2,S,4.0
S4,35.0,23.0,21.0,35.0,26.0,35,993.0,square3,f,0.0448,2,S,4.0
S4,36.0,19.0,21.0,33.0,24.0,21,1014.0,square2,i,0.0395,1,S,4.0
S4,37.0,20.0,17.0,26.0,26.0,26,1040.0,square3,f,0.0128,2,S,4.0
S4,38.0,28.0,20.0,28.0,26.0,28,1068.0,square3,f,0.1007,2,S,4.0
S4,39.0,28.0,23.0,40.0,27.0,40,1108.0,square3,f,0.2029,2,S,4.0
S4,40.0,25.0,24.0,32.0,22.0,32,1140.0,square3,f,0.0709,2,S,4.0
S4,41.0,23.0,23.0,26.0,17.0,26,1166.0,square3,f,0.3198,2,S,4.0
S4,42.0,26.0,18.0,33.0,22.0,33,1199.0,square3,f,0.1612,2,S,4.0
S4,43.0,22.0,21.0,36.0,25.0,36,1235.0,square3,f,0.1332,2,S,4.0
S4,44.0,21.0,18.0,33.0,14.0,33,1268.0,square3,f,0.0111,2,S,4.0
S4,45.0,29.0,19.0,30.0,29.0,30,1298.0,square3,f,0.0114,2,S,4.0
S4,46.0,21.0,16.0,22.0,23.0,22,1320.0,square3,f,0.0439,2,S,4.0
S4,47.0,22.0,18.0,28.0,22.0,28,1348.0,square3,f,0.0112,2,S,4.0
S4,48.0,33.0,21.0,32.0,26.0,32,1380.0,square3,f,0.0118,2,S,4.0
S4,49.0,23.0,17.0,20.0,21.0,20,1400.0,square3,f,0.1405,2,S,4.0
S9,0.0,36.0,36.0,32.0,32.0,32,32.0,square4,i,0.737,3,S,9.0
S9,1.0,40.0,29.0,36.0,24.0,36,68.0,square3,j,0.0111,2,S,9.0
S9,2.0,31.0,43.0,22.0,29.0,31,99.0,square1,r,0.1571,0,S,9.0
S9,3.0,41.0,33.0,28.0,27.0,33,132.0,square2,f,0.1103,1,S,9.0
S9,4.0,34.0,29.0,32.0,31.0,32,164.0,square3,j,0.154,2,S,9.0
S9,5.0,41.0,32.0,22.0,29.0,22,186.0,square3,j,0.0976,2,S,9.0
S9,6.0,44.0,30.0,21.0,28.0,21,207.0,square3,j,0.0682,2,S,9.0
S9,7.0,39.0,37.0,26.0,24.0,39,246.0,square1,r,0.1019,0,S,9.0
S9,8.0,41.0,33.0,23.0,20.0,41,287.0,square1,r,0.1603,0,S,9.0
S9,9.0,30.0,35.0,24.0,27.0,30,317.0,square1,r,0.1373,0,S,9.0
S9,10.0,41.0,29.0,23.0,28.0,41,358.0,square1,r,0.1298,0,S,9.0
S9,11.0,37.0,38.0,22.0,33.0,37,395.0,square1,r,0.1283,0,S,9.0
S9,12.0,35.0,31.0,27.0,32.0,35,430.0,square1,r,0.0977,0,S,9.0
S9,13.0,38.0,37.0,30.0,29.0,38,468.0,square1,r,0.0415,0,S,9.0
S9,14.0,36.0,38.0,30.0,37.0,36,504.0,square1,r,0.3162,0,S,9.0
S9,15.0,40.0,29.0,27.0,24.0,40,544.0,square1,r,0.1018,0,S,9.0
S9,16.0,33.0,37.0,29.0,28.0,33,577.0,square1,r,0.1284,0,S,9.0
S9,17.0,41.0,32.0,36.0,31.0,41,618.0,square1,r,0.07,0,S,9.0
S9,18.0,39.0,26.0,16.0,35.0,39,657.0,square1,r,0.041,0,S,9.0
S9,19.0,35.0,30.0,23.0,27.0,35,692.0,square1,r,0.0113,0,S,9.0
S9,20.0,39.0,34.0,23.0,29.0,39,731.0,square1,r,0.0122,0,S,9.0
S9,21.0,35.0,37.0,28.0,31.0,35,766.0,square1,r,0.0493,0,S,9.0
S9,22.0,37.0,30.0,23.0,38.0,37,803.0,square1,r,0.0431,0,S,9.0
S9,23.0,37.0,34.0,27.0,34.0,37,840.0,square1,r,0.0112,0,S,9.0
S9,24.0,31.0,34.0,26.0,27.0,31,871.0,square1,r,0.0711,0,S,9.0
S9,25.0,38.0,40.0,29.0,24.0,38,909.0,square1,r,0.0689,0,S,9.0
S9,26.0,43.0,31.0,21.0,24.0,43,952.0,square1,r,0.1561,0,S,9.0
S9,27.0,30.0,31.0,23.0,28.0,30,982.0,square1,r,0.0106,0,S,9.0
S9,28.0,44.0,32.0,31.0,32.0,44,1026.0,square1,r,0.1608,0,S,9.0
S9,29.0,36.0,38.0,22.0,22.0,36,1062.0,square1,r,0.0113,0,S,9.0
S9,30.0,41.0,30.0,26.0,29.0,41,1103.0,square1,r,0.0115,0,S,9.0
S9,31.0,39.0,37.0,30.0,32.0,39,1142.0,square1,r,0.0686,0,S,9.0
S9,32.0,35.0,39.0,28.0,31.0,35,1177.0,square1,r,0.0997,0,S,9.0
S9,33.0,37.0,39.0,29.0,32.0,37,1214.0,square1,r,0.0772,0,S,9.0
S9,34.0,46.0,33.0,21.0,25.0,46,1260.0,square1,r,0.1722,0,S,9.0
S9,35.0,38.0,33.0,28.0,28.0,38,1298.0,square1,r,0.0997,0,S,9.0
S9,36.0,40.0,37.0,21.0,32.0,40,1338.0,square1,r,0.0917,0,S,9.0
S9,37.0,38.0,43.0,23.0,37.0,38,1376.0,square1,r,0.1518,0,S,9.0
S9,38.0,36.0,31.0,29.0,29.0,36,1412.0,square1,r,0.0412,0,S,9.0
S9,39.0,41.0,29.0,26.0,28.0,41,1453.0,square1,r,0.0117,0,S,9.0
S9,40.0,32.0,36.0,26.0,28.0,32,1485.0,square1,r,0.1879,0,S,9.0
S9,41.0,40.0,37.0,35.0,28.0,40,1525.0,square1,r,0.5546,0,S,9.0
S9,42.0,43.0,32.0,26.0,37.0,43,1568.0,square1,r,0.0789,0,S,9.0
S9,43.0,40.0,31.0,23.0,31.0,40,1608.0,square1,r,0.0402,0,S,9.0
S9,44.0,42.0,38.0,24.0,40.0,42,1650.0,square1,r,0.2699,0,S,9.0
S9,45.0,36.0,35.0,30.0,33.0,36,1686.0,square1,r,0.0111,0,S,9.0
S9,46.0,38.0,30.0,33.0,26.0,26,1712.0,square4,i,0.149,3,S,9.0
S9,47.0,39.0,37.0,25.0,26.0,39,1751.0,square1,r,0.6336,0,S,9.0
S9,48.0,36.0,35.0,26.0,27.0,36,1787.0,square1,r,0.0405,0,S,9.0
S9,49.0,40.0,32.0,24.0,28.0,40,1827.0,square1,r,0.176,0,S,9.0
S8,0.0,58.0,60.0,52.0,45.0,52,52.0,square3,i,0.3332,2,S,8.0
S8,1.0,55.0,57.0,56.0,52.0,56,108.0,square3,i,0.099,2,S,8.0
S8,2.0,54.0,58.0,58.0,49.0,58,166.0,square3,i,0.0414,2,S,8.0
S8,3.0,55.0,62.0,52.0,53.0,52,218.0,square3,i,0.121,2,S,8.0
S8,4.0,55.0,60.0,49.0,51.0,49,267.0,square3,i,0.101,2,S,8.0
S8,5.0,48.0,63.0,61.0,49.0,61,328.0,square3,i,0.1631,2,S,8.0
S8,6.0,58.0,63.0,59.0,55.0,59,387.0,square3,i,0.0113,2,S,8.0
S8,7.0,56.0,53.0,49.0,51.0,49,436.0,square3,i,0.0716,2,S,8.0
S8,8.0,61.0,63.0,66.0,49.0,66,502.0,square3,i,0.1289,2,S,8.0
S8,9.0,60.0,59.0,53.0,47.0,53,555.0,square3,i,0.0753,2,S,8.0
S8,10.0,55.0,63.0,52.0,55.0,52,607.0,square3,i,0.2719,2,S,8.0
S8,11.0,62.0,60.0,54.0,50.0,54,661.0,square3,i,0.0145,2,S,8.0
S8,12.0,58.0,64.0,51.0,52.0,51,712.0,square3,i,0.0426,2,S,8.0
S8,13.0,62.0,59.0,53.0,53.0,53,765.0,square3,i,0.0432,2,S,8.0
S8,14.0,51.0,62.0,61.0,54.0,61,826.0,square3,i,0.1081,2,S,8.0
S8,15.0,56.0,68.0,56.0,50.0,56,882.0,square3,i,0.0402,2,S,8.0
S8,16.0,58.0,64.0,56.0,50.0,56,938.0,square3,i,0.1594,2,S,8.0
S8,17.0,64.0,63.0,60.0,42.0,60,998.0,square3,i,0.1649,2,S,8.0
S8,18.0,54.0,64.0,57.0,55.0,57,1055.0,square3,i,0.0108,2,S,8.0
S8,19.0,56.0,53.0,57.0,53.0,57,1112.0,square3,i,0.0107,2,S,8.0
S8,20.0,59.0,64.0,56.0,49.0,56,1168.0,square3,i,0.3351,2,S,8.0
S8,21.0,54.0,59.0,55.0,48.0,55,1223.0,square3,i,0.1281,2,S,8.0
S8,22.0,63.0,63.0,59.0,49.0,59,1282.0,square3,i,0.0104,2,S,8.0
S8,23.0,59.0,60.0,48.0,52.0,48,1330.0,square3,i,0.0112,2,S,8.0
S8,24.0,55.0,53.0,60.0,50.0,60,1390.0,square3,i,0.1976,2,S,8.0
S8,25.0,57.0,60.0,55.0,54.0,55,1445.0,square3,i,0.1916,2,S,8.0
S8,26.0,62.0,66.0,57.0,58.0,57,1502.0,square3,i,0.4352,2,S,8.0
S8,27.0,58.0,55.0,52.0,48.0,52,1554.0,square3,i,0.1359,2,S,8.0
S8,28.0,53.0,59.0,53.0,55.0,53,1607.0,square3,i,0.2829,2,S,8.0
S8,29.0,60.0,58.0,57.0,53.0,57,1664.0,square3,i,0.8516,2,S,8.0
S8,30.0,57.0,67.0,52.0,56.0,52,1716.0,square3,i,0.1296,2,S,8.0
S8,31.0,60.0,58.0,52.0,50.0,52,1768.0,square3,i,0.051,2,S,8.0
S8,32.0,54.0,61.0,56.0,57.0,56,1824.0,square3,i,0.5637,2,S,8.0
S8,33.0,66.0,64.0,63.0,52.0,63,1887.0,square3,i,0.1336,2,S,8.0
S8,34.0,54.0,65.0,66.0,56.0,66,1953.0,square3,i,0.1124,2,S,8.0
S8,35.0,54.0,62.0,61.0,48.0,61,2014.0,square3,i,1.3574,2,S,8.0
S8,36.0,53.0,63.0,54.0,55.0,54,2068.0,square3,i,0.0999,2,S,8.0
S8,37.0,64.0,58.0,57.0,51.0,99999,2068.0,invalid,,,-1,S,8.0
S8,38.0,68.0,65.0,59.0,57.0,59,2127.0,square3,i,0.0968,2,S,8.0
S8,39.0,64.0,65.0,51.0,55.0,51,2178.0,square3,i,1.6919,2,S,8.0
S8,40.0,63.0,61.0,57.0,47.0,57,2235.0,square3,i,0.098,2,S,8.0
S8,41.0,65.0,58.0,55.0,49.0,55,2290.0,square3,i,0.1345,2,S,8.0
S8,42.0,52.0,60.0,51.0,56.0,51,2341.0,square3,i,0.1206,2,S,8.0
S8,43.0,63.0,57.0,48.0,50.0,48,2389.0,square3,i,0.0401,2,S,8.0
S8,44.0,59.0,63.0,53.0,53.0,53,2442.0,square3,i,0.132,2,S,8.0
S8,45.0,62.0,62.0,60.0,53.0,60,2502.0,square3,i,0.0846,2,S,8.0
S8,46.0,56.0,62.0,57.0,60.0,57,2559.0,square3,i,0.011,2,S,8.0
S8,47.0,60.0,63.0,58.0,56.0,58,2617.0,square3,i,0.0408,2,S,8.0
S8,48.0,59.0,63.0,49.0,53.0,49,2666.0,square3,i,0.071,2,S,8.0
S8,49.0,67.0,67.0,59.0,55.0,59,2725.0,square3,i,0.0423,2,S,8.0
