block,Trial,square1,square2,square3,square4,currPoints,totalPoints,square,choiceKey.keys,choiceKey.rt,armNum,blockType,blockNum
prac,0.0,100.0,0.0,0.0,0.0,99999,0.0,invalid,,,-1,p,0.0
prac,1.0,100.0,0.0,0.0,0.0,0,0.0,square4,,,3,p,0.0
prac,2.0,100.0,0.0,0.0,0.0,0,0.0,square2,,,1,p,0.0
prac,3.0,100.0,0.0,0.0,0.0,0,0.0,square3,,,2,p,0.0
prac,4.0,100.0,0.0,0.0,0.0,0,0.0,square4,,,3,p,0.0
prac,5.0,100.0,0.0,0.0,0.0,100,100.0,square1,,,0,p,0.0
prac,6.0,100.0,0.0,0.0,0.0,99999,100.0,invalid,,,-1,p,0.0
prac,7.0,100.0,0.0,0.0,0.0,0,100.0,square3,,,2,p,0.0
prac,8.0,100.0,0.0,0.0,0.0,0,100.0,square2,,,1,p,0.0
prac,9.0,100.0,0.0,0.0,0.0,0,100.0,square4,,,3,p,0.0
V1,0.0,46.0,61.0,52.0,71.0,61,61.0,square2,i,0.8098,1,V,1.0
V1,1.0,45.0,63.0,54.0,78.0,54,115.0,square3,r,0.5637,2,V,1.0
V1,2.0,51.0,58.0,59.0,77.0,58,173.0,square2,i,1.0613,1,V,1.0
V1,3.0,53.0,65.0,56.0,75.0,75,248.0,square4,f,0.303,3,V,1.0
V1,4.0,49.0,68.0,53.0,72.0,49,297.0,square1,j,0.5308,0,V,1.0
V1,5.0,47.0,70.0,59.0,76.0,76,373.0,square4,f,0.0215,3,V,1.0
V1,6.0,55.0,63.0,54.0,76.0,63,436.0,square2,i,0.3148,1,V,1.0
V1,7.0,47.0,67.0,55.0,74.0,74,510.0,square4,f,0.7808,3,V,1.0
V1,8.0,47.0,65.0,46.0,76.0,76,586.0,square4,f,0.3342,3,V,1.0
V1,9.0,46.0,68.0,59.0,78.0,78,664.0,square4,f,1.2654,3,V,1.0
V1,10.0,58.0,67.0,58.0,79.0,79,743.0,square4,f,0.5302,3,V,1.0
V1,11.0,44.0,61.0,54.0,72.0,72,815.0,square4,f,0.5275,3,V,1.0
V1,12.0,44.0,65.0,56.0,75.0,75,890.0,square4,f,0.3849,3,V,1.0
V1,13.0,47.0,63.0,53.0,73.0,73,963.0,square4,f,0.3814,3,V,1.0
V1,14.0,49.0,66.0,56.0,75.0,75,1038.0,square4,f,0.2978,3,V,1.0
V1,15.0,49.0,66.0,52.0,79.0,52,1090.0,square3,r,0.2214,2,V,1.0
V1,16.0,51.0,61.0,48.0,72.0,51,1141.0,square1,j,0.232,0,V,1.0
V1,17.0,46.0,61.0,59.0,71.0,61,1202.0,square2,i,0.1009,1,V,1.0
V1,18.0,45.0,61.0,53.0,72.0,72,1274.0,square4,f,0.1631,3,V,1.0
V1,19.0,49.0,63.0,54.0,76.0,76,1350.0,square4,f,0.2038,3,V,1.0
V1,20.0,46.0,66.0,52.0,72.0,72,1422.0,square4,f,0.2966,3,V,1.0
V1,21.0,50.0,65.0,51.0,73.0,73,1495.0,square4,f,0.3031,3,V,1.0
V1,22.0,56.0,62.0,56.0,77.0,77,1572.0,square4,f,0.2645,3,V,1.0
V1,23.0,45.0,67.0,54.0,83.0,83,1655.0,square4,f,0.2155,3,V,1.0
V1,24.0,46.0,69.0,57.0,71.0,71,1726.0,square4,f,0.2978,3,V,1.0
V1,25.0,41.0,65.0,55.0,76.0,76,1802.0,square4,f,0.279,3,V,1.0
V1,26.0,51.0,60.0,55.0,74.0,74,1876.0,square4,f,0.2508,3,V,1.0
V1,27.0,52.0,63.0,56.0,73.0,73,1949.0,square4,f,0.283,3,V,1.0
V1,28.0,50.0,68.0,50.0,76.0,76,2025.0,square4,f,0.2997,3,V,1.0
V1,29.0,51.0,60.0,54.0,74.0,60,2085.0,square2,i,0.1879,1,V,1.0
V1,30.0,35.0,67.0,57.0,40.0,40,2125.0,square4,f,0.6396,3,V,1.0
V1,31.0,38.0,60.0,52.0,35.0,52,2177.0,square3,r,0.2314,2,V,1.0
V1,32.0,37.0,67.0,52.0,41.0,67,2244.0,square2,i,0.1975,1,V,1.0
V1,33.0,37.0,62.0,53.0,42.0,62,2306.0,square2,i,0.2382,1,V,1.0
V1,34.0,35.0,58.0,54.0,43.0,58,2364.0,square2,i,0.284,1,V,1.0
V1,35.0,40.0,60.0,50.0,44.0,60,2424.0,square2,i,0.1646,1,V,1.0
V1,36.0,39.0,66.0,50.0,39.0,39,2463.0,square1,j,0.2842,0,V,1.0
V1,37.0,32.0,59.0,54.0,38.0,38,2501.0,square4,f,0.2036,3,V,1.0
V1,38.0,32.0,64.0,50.0,39.0,50,2551.0,square3,r,0.1143,2,V,1.0
V1,39.0,37.0,60.0,45.0,40.0,60,2611.0,square2,i,0.0649,1,V,1.0
V1,40.0,35.0,61.0,54.0,43.0,61,2672.0,square2,i,0.1657,1,V,1.0
V1,41.0,33.0,62.0,49.0,42.0,62,2734.0,square2,i,0.3127,1,V,1.0
V1,42.0,31.0,70.0,52.0,42.0,70,2804.0,square2,i,0.2672,1,V,1.0
V1,43.0,37.0,59.0,48.0,41.0,59,2863.0,square2,i,0.2471,1,V,1.0
V1,44.0,39.0,63.0,53.0,44.0,53,2916.0,square3,r,0.2729,2,V,1.0
V1,45.0,37.0,62.0,48.0,41.0,41,2957.0,square4,f,0.2307,3,V,1.0
V1,46.0,34.0,65.0,52.0,39.0,65,3022.0,square2,i,0.198,1,V,1.0
V1,47.0,42.0,59.0,52.0,43.0,59,3081.0,square2,i,0.1994,1,V,1.0
V1,48.0,39.0,62.0,50.0,38.0,62,3143.0,square2,i,0.2542,1,V,1.0
V1,49.0,33.0,63.0,49.0,40.0,63,3206.0,square2,i,0.2994,1,V,1.0
V1,50.0,38.0,66.0,54.0,37.0,66,3272.0,square2,i,0.2871,1,V,1.0
V1,51.0,33.0,66.0,50.0,37.0,66,3338.0,square2,i,0.2545,1,V,1.0
V1,52.0,41.0,65.0,55.0,44.0,65,3403.0,square2,i,0.2844,1,V,1.0
V1,53.0,75.0,50.0,46.0,60.0,50,3453.0,square2,i,0.1991,1,V,1.0
V1,54.0,74.0,53.0,45.0,61.0,74,3527.0,square1,j,0.3138,0,V,1.0
V1,55.0,74.0,54.0,43.0,65.0,74,3601.0,square1,j,0.3197,0,V,1.0
V1,56.0,73.0,54.0,44.0,56.0,73,3674.0,square1,j,0.2169,0,V,1.0
V1,57.0,67.0,58.0,52.0,63.0,63,3737.0,square4,f,0.2833,3,V,1.0
V1,58.0,72.0,51.0,43.0,62.0,43,3780.0,square3,r,0.2475,2,V,1.0
V1,59.0,68.0,47.0,49.0,56.0,47,3827.0,square2,i,0.4666,1,V,1.0
V1,60.0,72.0,55.0,46.0,65.0,72,3899.0,square1,j,0.2731,0,V,1.0
V1,61.0,76.0,50.0,46.0,62.0,76,3975.0,square1,j,0.1018,0,V,1.0
V1,62.0,77.0,58.0,46.0,66.0,77,4052.0,square1,j,0.1995,0,V,1.0
V1,63.0,72.0,53.0,48.0,66.0,72,4124.0,square1,j,0.2638,0,V,1.0
V1,64.0,70.0,49.0,49.0,60.0,70,4194.0,square1,j,0.2992,0,V,1.0
V1,65.0,68.0,49.0,46.0,66.0,68,4262.0,square1,j,0.2878,0,V,1.0
V1,66.0,77.0,52.0,41.0,64.0,64,4326.0,square4,f,0.2652,3,V,1.0
V1,67.0,74.0,56.0,42.0,69.0,42,4368.0,square3,r,0.2837,2,V,1.0
V1,68.0,77.0,50.0,46.0,68.0,50,4418.0,square2,i,0.0995,1,V,1.0
V1,69.0,76.0,48.0,45.0,63.0,76,4494.0,square1,j,0.0318,0,V,1.0
V1,70.0,71.0,53.0,50.0,65.0,71,4565.0,square1,j,0.0882,0,V,1.0
V1,71.0,70.0,56.0,44.0,59.0,70,4635.0,square1,j,0.1682,0,V,1.0
V1,72.0,74.0,54.0,55.0,61.0,74,4709.0,square1,j,0.1149,0,V,1.0
V1,73.0,73.0,53.0,47.0,61.0,73,4782.0,square1,j,0.2622,0,V,1.0
V1,74.0,71.0,53.0,51.0,65.0,71,4853.0,square1,j,0.0639,0,V,1.0
V1,75.0,72.0,51.0,48.0,64.0,72,4925.0,square1,j,0.2511,0,V,1.0
V1,76.0,72.0,53.0,49.0,62.0,72,4997.0,square1,j,0.0467,0,V,1.0
V1,77.0,62.0,76.0,64.0,86.0,62,5059.0,square1,j,0.3156,0,V,1.0
V1,78.0,61.0,74.0,63.0,87.0,87,5146.0,square4,f,0.2315,3,V,1.0
V1,79.0,56.0,78.0,67.0,89.0,89,5235.0,square4,f,0.2371,3,V,1.0
V1,80.0,59.0,75.0,63.0,84.0,84,5319.0,square4,f,0.2474,3,V,1.0
V1,81.0,63.0,74.0,68.0,82.0,82,5401.0,square4,f,0.171,3,V,1.0
V1,82.0,59.0,75.0,67.0,80.0,80,5481.0,square4,f,0.2733,3,V,1.0
V1,83.0,58.0,77.0,63.0,82.0,82,5563.0,square4,f,0.2485,3,V,1.0
V1,84.0,57.0,76.0,64.0,87.0,87,5650.0,square4,f,0.1667,3,V,1.0
V1,85.0,61.0,73.0,66.0,83.0,83,5733.0,square4,f,0.1346,3,V,1.0
V1,86.0,60.0,71.0,66.0,85.0,71,5804.0,square2,i,0.1481,1,V,1.0
V1,87.0,61.0,80.0,73.0,84.0,73,5877.0,square3,r,0.5812,2,V,1.0
V1,88.0,67.0,77.0,67.0,85.0,67,5944.0,square3,r,0.2011,2,V,1.0
V1,89.0,60.0,79.0,63.0,86.0,86,6030.0,square4,f,0.1719,3,V,1.0
V1,90.0,60.0,74.0,66.0,88.0,88,6118.0,square4,f,0.1145,3,V,1.0
V1,91.0,57.0,81.0,61.0,79.0,79,6197.0,square4,f,0.2486,3,V,1.0
V1,92.0,61.0,78.0,61.0,84.0,84,6281.0,square4,f,0.264,3,V,1.0
V1,93.0,64.0,72.0,69.0,83.0,83,6364.0,square4,f,0.1548,3,V,1.0
V1,94.0,64.0,73.0,68.0,83.0,83,6447.0,square4,f,0.0827,3,V,1.0
V1,95.0,61.0,69.0,68.0,87.0,87,6534.0,square4,f,0.136,3,V,1.0
V1,96.0,55.0,77.0,65.0,88.0,88,6622.0,square4,f,0.2465,3,V,1.0
V1,97.0,61.0,75.0,63.0,82.0,82,6704.0,square4,f,0.2224,3,V,1.0
V1,98.0,59.0,71.0,66.0,82.0,82,6786.0,square4,f,0.0322,3,V,1.0
V1,99.0,61.0,69.0,67.0,84.0,84,6870.0,square4,f,1.0213,3,V,1.0
V10,0.0,28.0,21.0,37.0,46.0,21,21.0,square2,r,1.3438,1,V,10.0
V10,1.0,26.0,19.0,41.0,49.0,49,70.0,square4,i,0.3126,3,V,10.0
V10,2.0,29.0,20.0,43.0,48.0,43,113.0,square3,j,0.4487,2,V,10.0
V10,3.0,27.0,27.0,37.0,44.0,27,140.0,square1,f,0.1642,0,V,10.0
V10,4.0,28.0,16.0,36.0,47.0,47,187.0,square4,i,0.7022,3,V,10.0
V10,5.0,33.0,25.0,42.0,54.0,25,212.0,square2,r,0.0146,1,V,10.0
V10,6.0,28.0,19.0,35.0,45.0,35,247.0,square3,j,0.2817,2,V,10.0
V10,7.0,30.0,24.0,35.0,49.0,30,277.0,square1,f,0.0015,0,V,10.0
V10,8.0,37.0,29.0,41.0,47.0,37,314.0,square1,f,0.2129,0,V,10.0
V10,9.0,28.0,21.0,41.0,48.0,28,342.0,square1,f,0.1541,0,V,10.0
V10,10.0,27.0,22.0,39.0,42.0,42,384.0,square4,i,0.0318,3,V,10.0
V10,11.0,32.0,16.0,41.0,48.0,41,425.0,square3,j,0.2138,2,V,10.0
V10,12.0,34.0,15.0,33.0,49.0,15,440.0,square2,r,0.0641,1,V,10.0
V10,13.0,36.0,19.0,41.0,45.0,19,459.0,square2,r,0.0636,1,V,10.0
V10,14.0,28.0,23.0,35.0,53.0,23,482.0,square2,r,0.231,1,V,10.0
V10,15.0,26.0,28.0,40.0,50.0,40,522.0,square3,j,1.3816,2,V,10.0
V10,16.0,30.0,25.0,42.0,47.0,47,569.0,square4,i,0.5136,3,V,10.0
V10,17.0,31.0,19.0,38.0,50.0,31,600.0,square1,f,0.2974,0,V,10.0
V10,18.0,34.0,21.0,35.0,48.0,48,648.0,square4,i,0.0031,3,V,10.0
V10,19.0,31.0,24.0,39.0,46.0,24,672.0,square2,r,0.2207,1,V,10.0
V10,20.0,28.0,22.0,42.0,47.0,42,714.0,square3,j,0.0488,2,V,10.0
V10,21.0,24.0,20.0,41.0,47.0,47,761.0,square4,i,0.5157,3,V,10.0
V10,22.0,32.0,22.0,34.0,44.0,32,793.0,square1,f,0.1494,0,V,10.0
V10,23.0,29.0,23.0,37.0,47.0,47,840.0,square4,i,0.0827,3,V,10.0
V10,24.0,25.0,25.0,38.0,46.0,46,886.0,square4,i,0.0013,3,V,10.0
V10,25.0,30.0,24.0,41.0,45.0,45,931.0,square4,i,0.0646,3,V,10.0
V10,26.0,32.0,17.0,38.0,49.0,17,948.0,square2,r,0.5822,1,V,10.0
V10,27.0,34.0,21.0,38.0,47.0,34,982.0,square1,f,0.8313,0,V,10.0
V10,28.0,29.0,21.0,37.0,45.0,37,1019.0,square3,j,0.3025,2,V,10.0
V10,29.0,30.0,20.0,31.0,47.0,31,1050.0,square3,j,0.2883,2,V,10.0
V10,30.0,28.0,21.0,35.0,44.0,35,1085.0,square3,j,0.217,2,V,10.0
V10,31.0,36.0,25.0,14.0,8.0,8,1093.0,square4,i,0.2992,3,V,10.0
V10,32.0,38.0,27.0,19.0,11.0,38,1131.0,square1,f,0.9849,0,V,10.0
V10,33.0,39.0,21.0,20.0,13.0,39,1170.0,square1,f,0.1811,0,V,10.0
V10,34.0,34.0,24.0,20.0,10.0,24,1194.0,square2,r,0.2807,1,V,10.0
V10,35.0,44.0,29.0,17.0,11.0,17,1211.0,square3,j,0.0871,2,V,10.0
V10,36.0,33.0,30.0,17.0,9.0,9,1220.0,square4,i,0.2352,3,V,10.0
V10,37.0,31.0,27.0,12.0,6.0,31,1251.0,square1,f,0.1044,0,V,10.0
V10,38.0,34.0,29.0,15.0,10.0,34,1285.0,square1,f,0.2064,0,V,10.0
V10,39.0,35.0,21.0,19.0,5.0,35,1320.0,square1,f,0.2492,0,V,10.0
V10,40.0,32.0,26.0,18.0,6.0,32,1352.0,square1,f,0.2838,0,V,10.0
V10,41.0,34.0,32.0,13.0,9.0,34,1386.0,square1,f,0.2649,0,V,10.0
V10,42.0,35.0,30.0,16.0,8.0,35,1421.0,square1,f,0.2064,0,V,10.0
V10,43.0,38.0,32.0,16.0,8.0,38,1459.0,square1,f,0.2322,0,V,10.0
V10,44.0,34.0,20.0,18.0,3.0,3,1462.0,square4,i,0.1998,3,V,10.0
V10,45.0,38.0,22.0,23.0,9.0,38,1500.0,square1,f,0.3168,0,V,10.0
V10,46.0,36.0,28.0,16.0,10.0,16,1516.0,square3,j,0.4358,2,V,10.0
V10,47.0,36.0,27.0,13.0,8.0,27,1543.0,square2,r,0.3012,1,V,10.0
V10,48.0,35.0,27.0,14.0,12.0,27,1570.0,square2,r,0.1642,1,V,10.0
V10,49.0,33.0,28.0,16.0,10.0,33,1603.0,square1,f,0.1327,0,V,10.0
V10,50.0,31.0,29.0,19.0,8.0,31,1634.0,square1,f,0.1855,0,V,10.0
V10,51.0,32.0,21.0,20.0,12.0,32,1666.0,square1,f,0.082,0,V,10.0
V10,52.0,29.0,25.0,21.0,10.0,29,1695.0,square1,f,0.1723,0,V,10.0
V10,53.0,39.0,29.0,23.0,2.0,39,1734.0,square1,f,0.1821,0,V,10.0
V10,54.0,33.0,28.0,19.0,7.0,33,1767.0,square1,f,0.1713,0,V,10.0
V10,55.0,34.0,24.0,15.0,8.0,34,1801.0,square1,f,0.1954,0,V,10.0
V10,56.0,35.0,20.0,21.0,9.0,35,1836.0,square1,f,0.0991,0,V,10.0
V10,57.0,33.0,27.0,19.0,7.0,33,1869.0,square1,f,0.232,0,V,10.0
V10,58.0,38.0,24.0,16.0,7.0,38,1907.0,square1,f,0.099,0,V,10.0
V10,59.0,34.0,29.0,15.0,5.0,34,1941.0,square1,f,0.232,0,V,10.0
V10,60.0,34.0,22.0,19.0,9.0,34,1975.0,square1,f,0.1319,0,V,10.0
V10,61.0,39.0,31.0,20.0,10.0,39,2014.0,square1,f,0.1196,0,V,10.0
V10,62.0,35.0,24.0,18.0,6.0,35,2049.0,square1,f,0.0012,0,V,10.0
V10,63.0,35.0,26.0,18.0,9.0,35,2084.0,square1,f,0.6826,0,V,10.0
V10,64.0,31.0,55.0,23.0,23.0,55,2139.0,square2,r,0.0965,1,V,10.0
V10,65.0,35.0,50.0,22.0,27.0,50,2189.0,square2,r,0.2228,1,V,10.0
V10,66.0,35.0,53.0,25.0,29.0,53,2242.0,square2,r,0.1491,1,V,10.0
V10,67.0,38.0,44.0,17.0,29.0,44,2286.0,square2,r,0.0684,1,V,10.0
V10,68.0,36.0,48.0,22.0,27.0,48,2334.0,square2,r,0.0166,1,V,10.0
V10,69.0,41.0,53.0,17.0,28.0,53,2387.0,square2,r,0.1164,1,V,10.0
V10,70.0,40.0,48.0,23.0,28.0,48,2435.0,square2,r,0.1206,1,V,10.0
V10,71.0,39.0,43.0,24.0,20.0,43,2478.0,square2,r,0.0301,1,V,10.0
V10,72.0,36.0,49.0,19.0,25.0,25,2503.0,square4,i,0.1308,3,V,10.0
V10,73.0,39.0,49.0,23.0,32.0,23,2526.0,square3,j,0.3792,2,V,10.0
V10,74.0,36.0,44.0,17.0,29.0,17,2543.0,square3,j,0.1302,2,V,10.0
V10,75.0,37.0,46.0,20.0,30.0,46,2589.0,square2,r,0.0826,1,V,10.0
V10,76.0,38.0,47.0,23.0,30.0,47,2636.0,square2,r,0.2137,1,V,10.0
V10,77.0,36.0,49.0,22.0,32.0,49,2685.0,square2,r,0.1652,1,V,10.0
V10,78.0,41.0,44.0,19.0,27.0,44,2729.0,square2,r,0.3159,1,V,10.0
V10,79.0,41.0,48.0,22.0,27.0,48,2777.0,square2,r,0.2214,1,V,10.0
V10,80.0,34.0,44.0,26.0,29.0,44,2821.0,square2,r,0.1687,1,V,10.0
V10,81.0,38.0,47.0,18.0,29.0,38,2859.0,square1,f,0.2551,0,V,10.0
V10,82.0,43.0,43.0,23.0,28.0,43,2902.0,square1,f,0.3316,0,V,10.0
V10,83.0,34.0,51.0,23.0,26.0,34,2936.0,square1,f,0.2664,0,V,10.0
V10,84.0,36.0,46.0,18.0,25.0,18,2954.0,square3,j,0.2322,2,V,10.0
V10,85.0,39.0,46.0,25.0,26.0,26,2980.0,square4,i,0.2986,3,V,10.0
V10,86.0,39.0,50.0,27.0,27.0,50,3030.0,square2,r,0.2126,1,V,10.0
V10,87.0,38.0,46.0,20.0,30.0,46,3076.0,square2,r,0.1662,1,V,10.0
V10,88.0,37.0,49.0,22.0,28.0,49,3125.0,square2,r,0.168,1,V,10.0
V10,89.0,34.0,51.0,25.0,26.0,51,3176.0,square2,r,0.2967,1,V,10.0
V10,90.0,41.0,49.0,22.0,29.0,49,3225.0,square2,r,0.1629,1,V,10.0
V10,91.0,37.0,45.0,26.0,32.0,45,3270.0,square2,r,0.2818,1,V,10.0
V10,92.0,42.0,42.0,27.0,28.0,42,3312.0,square2,r,0.1389,1,V,10.0
V10,93.0,41.0,48.0,19.0,36.0,48,3360.0,square2,r,0.2508,1,V,10.0
V10,94.0,43.0,49.0,23.0,31.0,49,3409.0,square2,r,0.2461,1,V,10.0
V10,95.0,39.0,46.0,18.0,27.0,46,3455.0,square2,r,0.2325,1,V,10.0
V10,96.0,37.0,48.0,24.0,27.0,48,3503.0,square2,r,0.2873,1,V,10.0
V10,97.0,42.0,50.0,23.0,31.0,50,3553.0,square2,r,0.2637,1,V,10.0
V10,98.0,33.0,47.0,25.0,32.0,47,3600.0,square2,r,0.3163,1,V,10.0
V10,99.0,39.0,48.0,23.0,32.0,48,3648.0,square2,r,0.33,1,V,10.0
V2,0.0,33.0,24.0,43.0,18.0,18,18.0,square4,j,1.0033,3,V,2.0
V2,1.0,33.0,29.0,42.0,21.0,21,39.0,square4,j,0.2677,3,V,2.0
V2,2.0,37.0,26.0,45.0,22.0,22,61.0,square4,j,0.2983,3,V,2.0
V2,3.0,39.0,26.0,41.0,20.0,39,100.0,square1,r,0.2817,0,V,2.0
V2,4.0,29.0,32.0,45.0,19.0,29,129.0,square1,r,0.1155,0,V,2.0
V2,5.0,33.0,28.0,44.0,17.0,44,173.0,square3,f,0.0221,2,V,2.0
V2,6.0,32.0,24.0,49.0,20.0,24,197.0,square2,i,0.0878,1,V,2.0
V2,7.0,32.0,21.0,42.0,13.0,21,218.0,square2,i,0.1493,1,V,2.0
V2,8.0,35.0,23.0,45.0,19.0,19,237.0,square4,j,0.1145,3,V,2.0
V2,9.0,33.0,28.0,46.0,17.0,33,270.0,square1,r,0.1384,0,V,2.0
V2,10.0,39.0,27.0,45.0,21.0,45,315.0,square3,f,0.1646,2,V,2.0
V2,11.0,30.0,23.0,44.0,22.0,44,359.0,square3,f,0.03,2,V,2.0
V2,12.0,31.0,26.0,43.0,16.0,43,402.0,square3,f,0.0642,2,V,2.0
V2,13.0,35.0,26.0,43.0,22.0,43,445.0,square3,f,0.0018,2,V,2.0
V2,14.0,35.0,29.0,46.0,19.0,46,491.0,square3,f,0.0692,2,V,2.0
V2,15.0,36.0,22.0,44.0,20.0,44,535.0,square3,f,0.031,2,V,2.0
V2,16.0,33.0,27.0,45.0,19.0,45,580.0,square3,f,0.0458,2,V,2.0
V2,17.0,35.0,25.0,41.0,15.0,41,621.0,square3,f,0.0493,2,V,2.0
V2,18.0,37.0,27.0,51.0,21.0,51,672.0,square3,f,0.0657,2,V,2.0
V2,19.0,33.0,25.0,43.0,18.0,43,715.0,square3,f,0.1015,2,V,2.0
V2,20.0,39.0,25.0,43.0,20.0,43,758.0,square3,f,0.0015,2,V,2.0
V2,21.0,27.0,32.0,43.0,24.0,43,801.0,square3,f,0.0014,2,V,2.0
V2,22.0,35.0,27.0,50.0,13.0,50,851.0,square3,f,0.0656,2,V,2.0
V2,23.0,36.0,25.0,39.0,17.0,39,890.0,square3,f,0.033,2,V,2.0
V2,24.0,32.0,45.0,39.0,59.0,39,929.0,square3,f,0.1326,2,V,2.0
V2,25.0,26.0,43.0,37.0,55.0,37,966.0,square3,f,0.0032,2,V,2.0
V2,26.0,23.0,45.0,39.0,58.0,45,1011.0,square2,i,0.6313,1,V,2.0
V2,27.0,30.0,44.0,40.0,56.0,44,1055.0,square2,i,0.3487,1,V,2.0
V2,28.0,34.0,48.0,41.0,54.0,34,1089.0,square1,r,0.3152,0,V,2.0
V2,29.0,29.0,42.0,35.0,54.0,54,1143.0,square4,j,0.1659,3,V,2.0
V2,30.0,22.0,39.0,39.0,55.0,55,1198.0,square4,j,0.2838,3,V,2.0
V2,31.0,32.0,48.0,35.0,50.0,50,1248.0,square4,j,0.2628,3,V,2.0
V2,32.0,27.0,47.0,40.0,58.0,58,1306.0,square4,j,0.2992,3,V,2.0
V2,33.0,28.0,46.0,31.0,54.0,54,1360.0,square4,j,0.0476,3,V,2.0
V2,34.0,28.0,44.0,41.0,49.0,49,1409.0,square4,j,0.2508,3,V,2.0
V2,35.0,31.0,44.0,33.0,59.0,33,1442.0,square3,f,0.1491,2,V,2.0
V2,36.0,29.0,48.0,30.0,55.0,48,1490.0,square2,i,0.0632,1,V,2.0
V2,37.0,25.0,45.0,32.0,51.0,25,1515.0,square1,r,0.2316,0,V,2.0
V2,38.0,29.0,48.0,33.0,54.0,54,1569.0,square4,j,0.1685,3,V,2.0
V2,39.0,29.0,44.0,33.0,54.0,54,1623.0,square4,j,0.1818,3,V,2.0
V2,40.0,33.0,42.0,37.0,61.0,61,1684.0,square4,j,0.2487,3,V,2.0
V2,41.0,28.0,45.0,41.0,57.0,57,1741.0,square4,j,0.1632,3,V,2.0
V2,42.0,33.0,46.0,36.0,54.0,54,1795.0,square4,j,0.1695,3,V,2.0
V2,43.0,31.0,42.0,40.0,57.0,57,1852.0,square4,j,0.1817,3,V,2.0
V2,44.0,27.0,45.0,38.0,56.0,56,1908.0,square4,j,0.1805,3,V,2.0
V2,45.0,27.0,44.0,32.0,51.0,51,1959.0,square4,j,0.1507,3,V,2.0
V2,46.0,28.0,44.0,39.0,57.0,57,2016.0,square4,j,0.2653,3,V,2.0
V2,47.0,30.0,45.0,36.0,56.0,56,2072.0,square4,j,0.1206,3,V,2.0
V2,48.0,31.0,47.0,41.0,59.0,59,2131.0,square4,j,0.122,3,V,2.0
V2,49.0,32.0,45.0,33.0,57.0,57,2188.0,square4,j,0.2485,3,V,2.0
V2,50.0,24.0,38.0,36.0,52.0,52,2240.0,square4,j,0.1881,3,V,2.0
V2,51.0,29.0,48.0,34.0,54.0,54,2294.0,square4,j,0.2146,3,V,2.0
V2,52.0,30.0,50.0,38.0,56.0,38,2332.0,square3,f,0.1685,2,V,2.0
V2,53.0,27.0,47.0,33.0,55.0,47,2379.0,square2,i,0.1312,1,V,2.0
V2,54.0,34.0,21.0,45.0,25.0,34,2413.0,square1,r,0.2029,0,V,2.0
V2,55.0,36.0,19.0,39.0,24.0,24,2437.0,square4,j,0.0015,3,V,2.0
V2,56.0,29.0,19.0,45.0,18.0,19,2456.0,square2,i,0.0663,1,V,2.0
V2,57.0,29.0,20.0,39.0,20.0,29,2485.0,square1,r,0.4646,0,V,2.0
V2,58.0,40.0,18.0,42.0,21.0,42,2527.0,square3,f,0.0654,2,V,2.0
V2,59.0,31.0,17.0,44.0,23.0,44,2571.0,square3,f,0.0488,2,V,2.0
V2,60.0,31.0,19.0,42.0,20.0,42,2613.0,square3,f,0.2687,2,V,2.0
V2,61.0,34.0,16.0,41.0,25.0,41,2654.0,square3,f,0.0011,2,V,2.0
V2,62.0,28.0,12.0,41.0,22.0,41,2695.0,square3,f,0.2492,2,V,2.0
V2,63.0,32.0,14.0,45.0,26.0,45,2740.0,square3,f,0.1372,2,V,2.0
V2,64.0,36.0,21.0,41.0,25.0,41,2781.0,square3,f,0.0828,2,V,2.0
V2,65.0,32.0,13.0,39.0,24.0,39,2820.0,square3,f,0.2355,2,V,2.0
V2,66.0,35.0,15.0,42.0,20.0,15,2835.0,square2,i,0.4043,1,V,2.0
V2,67.0,30.0,23.0,47.0,27.0,30,2865.0,square1,r,0.1675,0,V,2.0
V2,68.0,31.0,17.0,43.0,24.0,31,2896.0,square1,r,0.0962,0,V,2.0
V2,69.0,33.0,20.0,41.0,20.0,20,2916.0,square4,j,0.1011,3,V,2.0
V2,70.0,37.0,17.0,43.0,21.0,43,2959.0,square3,f,0.1329,2,V,2.0
V2,71.0,45.0,31.0,36.0,58.0,36,2995.0,square3,f,0.1816,2,V,2.0
V2,72.0,47.0,31.0,31.0,54.0,31,3026.0,square3,f,0.2059,2,V,2.0
V2,73.0,50.0,30.0,33.0,55.0,33,3059.0,square3,f,0.2825,2,V,2.0
V2,74.0,45.0,31.0,36.0,51.0,36,3095.0,square3,f,0.2679,2,V,2.0
V2,75.0,47.0,28.0,38.0,54.0,38,3133.0,square3,f,0.2984,2,V,2.0
V2,76.0,52.0,33.0,35.0,60.0,35,3168.0,square3,f,0.3479,2,V,2.0
V2,77.0,41.0,29.0,37.0,53.0,41,3209.0,square1,r,0.2488,0,V,2.0
V2,78.0,51.0,24.0,34.0,56.0,51,3260.0,square1,r,0.1481,0,V,2.0
V2,79.0,41.0,34.0,36.0,52.0,41,3301.0,square1,r,0.2721,0,V,2.0
V2,80.0,48.0,31.0,37.0,51.0,48,3349.0,square1,r,0.1988,0,V,2.0
V2,81.0,43.0,32.0,40.0,53.0,43,3392.0,square1,r,0.1819,0,V,2.0
V2,82.0,48.0,25.0,37.0,58.0,48,3440.0,square1,r,0.1196,0,V,2.0
V2,83.0,45.0,32.0,36.0,61.0,45,3485.0,square1,r,0.1634,0,V,2.0
V2,84.0,47.0,29.0,39.0,60.0,47,3532.0,square1,r,0.1987,0,V,2.0
V2,85.0,49.0,30.0,39.0,54.0,49,3581.0,square1,r,0.1944,0,V,2.0
V2,86.0,46.0,28.0,33.0,51.0,46,3627.0,square1,r,0.1992,0,V,2.0
V2,87.0,45.0,24.0,37.0,55.0,45,3672.0,square1,r,0.1528,0,V,2.0
V2,88.0,48.0,29.0,42.0,54.0,29,3701.0,square2,i,0.0299,1,V,2.0
V2,89.0,43.0,31.0,38.0,52.0,52,3753.0,square4,j,0.2987,3,V,2.0
V2,90.0,51.0,33.0,36.0,56.0,56,3809.0,square4,j,0.1007,3,V,2.0
V2,91.0,49.0,32.0,37.0,59.0,59,3868.0,square4,j,0.2642,3,V,2.0
V2,92.0,47.0,29.0,37.0,56.0,56,3924.0,square4,j,0.1008,3,V,2.0
V2,93.0,45.0,27.0,35.0,56.0,56,3980.0,square4,j,0.0733,3,V,2.0
V2,94.0,45.0,31.0,31.0,49.0,49,4029.0,square4,j,0.5695,3,V,2.0
V2,95.0,47.0,33.0,36.0,52.0,52,4081.0,square4,j,0.1499,3,V,2.0
V2,96.0,44.0,28.0,37.0,59.0,59,4140.0,square4,j,0.1996,3,V,2.0
V2,97.0,48.0,28.0,33.0,55.0,33,4173.0,square3,f,0.1892,2,V,2.0
V2,98.0,49.0,29.0,39.0,60.0,60,4233.0,square4,j,0.1019,3,V,2.0
V2,99.0,44.0,30.0,36.0,50.0,50,4283.0,square4,j,0.116,3,V,2.0
NS6,0.0,68.0,18.0,30.0,58.0,68,68.0,square1,j,0.7844,0,N,6.0
NS6,1.0,62.0,23.0,38.0,67.0,62,130.0,square1,j,0.394,0,N,6.0
NS6,2.0,59.0,30.0,33.0,67.0,59,189.0,square1,j,0.2335,0,N,6.0
NS6,3.0,62.0,27.0,39.0,65.0,65,254.0,square4,f,0.0996,3,N,6.0
NS6,4.0,65.0,22.0,32.0,67.0,22,276.0,square2,r,0.0659,1,N,6.0
NS6,5.0,61.0,28.0,39.0,67.0,39,315.0,square3,i,0.0672,2,N,6.0
NS6,6.0,59.0,28.0,39.0,66.0,59,374.0,square1,j,0.3209,0,N,6.0
NS6,7.0,56.0,30.0,43.0,63.0,63,437.0,square4,f,0.183,3,N,6.0
NS6,8.0,57.0,26.0,36.0,60.0,60,497.0,square4,f,0.0313,3,N,6.0
NS6,9.0,51.0,30.0,38.0,65.0,65,562.0,square4,f,0.1836,3,N,6.0
NS6,10.0,46.0,26.0,41.0,61.0,61,623.0,square4,f,0.1648,3,N,6.0
NS6,11.0,46.0,30.0,40.0,58.0,58,681.0,square4,f,0.0998,3,N,6.0
NS6,12.0,44.0,27.0,41.0,56.0,56,737.0,square4,f,0.0815,3,N,6.0
NS6,13.0,41.0,32.0,44.0,54.0,41,778.0,square1,j,0.1315,0,N,6.0
NS6,14.0,45.0,36.0,41.0,51.0,41,819.0,square3,i,0.0995,2,N,6.0
NS6,15.0,37.0,34.0,39.0,54.0,39,858.0,square3,i,0.0829,2,N,6.0
NS6,16.0,36.0,37.0,39.0,48.0,39,897.0,square3,i,0.0014,2,N,6.0
NS6,17.0,41.0,39.0,36.0,45.0,39,936.0,square2,r,0.1165,1,N,6.0
NS6,18.0,39.0,38.0,29.0,48.0,38,974.0,square2,r,0.081,1,N,6.0
NS6,19.0,35.0,40.0,32.0,46.0,40,1014.0,square2,r,0.133,1,N,6.0
NS6,20.0,41.0,40.0,28.0,55.0,55,1069.0,square4,f,0.1188,3,N,6.0
NS6,21.0,45.0,44.0,27.0,54.0,54,1123.0,square4,f,0.0816,3,N,6.0
NS6,22.0,44.0,51.0,31.0,53.0,44,1167.0,square1,j,0.2132,0,N,6.0
NS6,23.0,44.0,50.0,29.0,53.0,50,1217.0,square2,r,0.1326,1,N,6.0
NS6,24.0,49.0,49.0,35.0,55.0,49,1266.0,square2,r,0.0983,1,N,6.0
NS6,25.0,44.0,51.0,36.0,56.0,36,1302.0,square3,i,0.0847,2,N,6.0
NS6,26.0,43.0,46.0,38.0,58.0,38,1340.0,square3,i,0.1871,2,N,6.0
NS6,27.0,41.0,44.0,41.0,59.0,41,1381.0,square1,j,0.1314,0,N,6.0
NS6,28.0,38.0,47.0,39.0,58.0,47,1428.0,square2,r,0.1668,1,N,6.0
NS6,29.0,39.0,46.0,37.0,54.0,46,1474.0,square2,r,0.2662,1,N,6.0
NS6,30.0,36.0,49.0,40.0,53.0,53,1527.0,square4,f,0.1313,3,N,6.0
NS6,31.0,37.0,45.0,36.0,55.0,55,1582.0,square4,f,0.4978,3,N,6.0
NS6,32.0,42.0,42.0,40.0,56.0,56,1638.0,square4,f,0.1331,3,N,6.0
NS6,33.0,33.0,44.0,32.0,53.0,53,1691.0,square4,f,0.0506,3,N,6.0
NS6,34.0,32.0,42.0,36.0,49.0,49,1740.0,square4,f,0.2536,3,N,6.0
NS6,35.0,35.0,28.0,38.0,51.0,38,1778.0,square3,i,0.1329,2,N,6.0
NS6,36.0,38.0,28.0,35.0,52.0,28,1806.0,square2,r,0.0326,1,N,6.0
NS6,37.0,44.0,31.0,37.0,55.0,44,1850.0,square1,j,0.3161,0,N,6.0
NS6,38.0,36.0,31.0,36.0,54.0,36,1886.0,square1,j,0.3182,0,N,6.0
NS6,39.0,40.0,29.0,41.0,60.0,60,1946.0,square4,f,0.2985,3,N,6.0
NS6,40.0,46.0,33.0,36.0,62.0,62,2008.0,square4,f,0.4995,3,N,6.0
NS6,41.0,44.0,38.0,34.0,63.0,63,2071.0,square4,f,0.2177,3,N,6.0
NS6,42.0,43.0,32.0,29.0,59.0,59,2130.0,square4,f,0.202,3,N,6.0
NS6,43.0,47.0,29.0,38.0,61.0,61,2191.0,square4,f,0.1512,3,N,6.0
NS6,44.0,49.0,33.0,36.0,56.0,56,2247.0,square4,f,0.1701,3,N,6.0
NS6,45.0,51.0,29.0,32.0,60.0,60,2307.0,square4,f,0.2152,3,N,6.0
NS6,46.0,52.0,36.0,41.0,64.0,64,2371.0,square4,f,0.5642,3,N,6.0
NS6,47.0,55.0,35.0,46.0,60.0,60,2431.0,square4,f,0.213,3,N,6.0
NS6,48.0,57.0,34.0,40.0,64.0,64,2495.0,square4,f,0.1312,3,N,6.0
NS6,49.0,54.0,37.0,42.0,59.0,59,2554.0,square4,f,0.131,3,N,6.0
NS6,50.0,58.0,40.0,35.0,51.0,51,2605.0,square4,f,0.2001,3,N,6.0
NS6,51.0,64.0,35.0,36.0,53.0,53,2658.0,square4,f,0.2152,3,N,6.0
NS6,52.0,60.0,37.0,30.0,52.0,52,2710.0,square4,f,0.1709,3,N,6.0
NS6,53.0,63.0,40.0,30.0,54.0,40,2750.0,square2,r,0.1659,1,N,6.0
NS6,54.0,60.0,37.0,30.0,53.0,30,2780.0,square3,i,0.0977,2,N,6.0
NS6,55.0,57.0,40.0,29.0,50.0,57,2837.0,square1,j,0.1167,0,N,6.0
NS6,56.0,58.0,30.0,30.0,46.0,58,2895.0,square1,j,0.0674,0,N,6.0
NS6,57.0,64.0,34.0,31.0,45.0,45,2940.0,square4,f,0.1879,3,N,6.0
NS6,58.0,66.0,31.0,34.0,48.0,66,3006.0,square1,j,0.1653,0,N,6.0
NS6,59.0,68.0,31.0,35.0,44.0,68,3074.0,square1,j,0.1338,0,N,6.0
NS6,60.0,65.0,28.0,27.0,49.0,65,3139.0,square1,j,0.2659,0,N,6.0
NS6,61.0,67.0,29.0,25.0,47.0,67,3206.0,square1,j,0.1979,0,N,6.0
NS6,62.0,67.0,31.0,27.0,41.0,67,3273.0,square1,j,0.1294,0,N,6.0
NS6,63.0,69.0,32.0,24.0,45.0,69,3342.0,square1,j,0.1504,0,N,6.0
NS6,64.0,72.0,41.0,30.0,50.0,72,3414.0,square1,j,0.0987,0,N,6.0
NS6,65.0,75.0,35.0,33.0,50.0,75,3489.0,square1,j,0.1648,0,N,6.0
NS6,66.0,71.0,37.0,26.0,49.0,71,3560.0,square1,j,0.1815,0,N,6.0
NS6,67.0,74.0,34.0,21.0,49.0,74,3634.0,square1,j,0.4865,0,N,6.0
NS6,68.0,81.0,37.0,27.0,50.0,81,3715.0,square1,j,0.2487,0,N,6.0
NS6,69.0,80.0,31.0,25.0,49.0,80,3795.0,square1,j,0.2651,0,N,6.0
NS6,70.0,83.0,33.0,31.0,46.0,83,3878.0,square1,j,0.2699,0,N,6.0
NS6,71.0,75.0,33.0,34.0,53.0,75,3953.0,square1,j,0.3174,0,N,6.0
NS6,72.0,73.0,39.0,32.0,55.0,73,4026.0,square1,j,0.2316,0,N,6.0
NS6,73.0,74.0,40.0,33.0,53.0,74,4100.0,square1,j,0.2669,0,N,6.0
NS6,74.0,73.0,46.0,32.0,50.0,73,4173.0,square1,j,0.2331,0,N,6.0
NS6,75.0,71.0,40.0,32.0,49.0,71,4244.0,square1,j,0.2475,0,N,6.0
NS6,76.0,65.0,43.0,31.0,56.0,65,4309.0,square1,j,0.2337,0,N,6.0
NS6,77.0,66.0,41.0,33.0,56.0,66,4375.0,square1,j,0.2663,0,N,6.0
NS6,78.0,71.0,40.0,38.0,64.0,71,4446.0,square1,j,0.2632,0,N,6.0
NS6,79.0,69.0,36.0,35.0,62.0,69,4515.0,square1,j,0.1977,0,N,6.0
NS6,80.0,69.0,34.0,37.0,69.0,69,4584.0,square1,j,0.2221,0,N,6.0
NS6,81.0,70.0,37.0,37.0,71.0,37,4621.0,square3,i,0.0338,2,N,6.0
NS6,82.0,68.0,38.0,39.0,66.0,66,4687.0,square4,f,0.2851,3,N,6.0
NS6,83.0,69.0,42.0,41.0,73.0,73,4760.0,square4,f,0.0518,3,N,6.0
NS6,84.0,62.0,42.0,42.0,70.0,70,4830.0,square4,f,0.1518,3,N,6.0
NS6,85.0,57.0,45.0,42.0,77.0,57,4887.0,square1,j,0.0482,0,N,6.0
NS6,86.0,58.0,47.0,44.0,70.0,70,4957.0,square4,f,0.0662,3,N,6.0
NS6,87.0,62.0,44.0,52.0,73.0,73,5030.0,square4,f,0.1645,3,N,6.0
NS6,88.0,62.0,45.0,47.0,72.0,45,5075.0,square2,r,0.049,1,N,6.0
NS6,89.0,59.0,50.0,47.0,73.0,73,5148.0,square4,f,0.3203,3,N,6.0
NS6,90.0,55.0,45.0,44.0,68.0,68,5216.0,square4,f,0.0308,3,N,6.0
NS6,91.0,55.0,51.0,47.0,67.0,67,5283.0,square4,f,0.2478,3,N,6.0
NS6,92.0,62.0,52.0,35.0,69.0,69,5352.0,square4,f,0.1903,3,N,6.0
NS6,93.0,59.0,47.0,32.0,68.0,68,5420.0,square4,f,0.2486,3,N,6.0
NS6,94.0,67.0,53.0,44.0,66.0,66,5486.0,square4,f,0.0975,3,N,6.0
NS6,95.0,71.0,44.0,47.0,66.0,71,5557.0,square1,j,0.2318,0,N,6.0
NS6,96.0,68.0,53.0,47.0,66.0,68,5625.0,square1,j,0.1531,0,N,6.0
NS6,97.0,65.0,49.0,44.0,64.0,65,5690.0,square1,j,0.3319,0,N,6.0
NS6,98.0,66.0,54.0,55.0,57.0,66,5756.0,square1,j,0.1821,0,N,6.0
NS6,99.0,69.0,57.0,51.0,56.0,56,5812.0,square4,f,0.1214,3,N,6.0
NS7,0.0,26.0,62.0,36.0,41.0,41,41.0,square4,j,0.4932,3,N,7.0
NS7,1.0,31.0,61.0,40.0,42.0,40,81.0,square3,f,0.0979,2,N,7.0
NS7,2.0,30.0,60.0,46.0,41.0,30,111.0,square1,r,0.1175,0,N,7.0
NS7,3.0,27.0,57.0,46.0,39.0,57,168.0,square2,i,0.0817,1,N,7.0
NS7,4.0,20.0,58.0,45.0,39.0,58,226.0,square2,i,0.0877,1,N,7.0
NS7,5.0,29.0,57.0,46.0,42.0,57,283.0,square2,i,0.1309,1,N,7.0
NS7,6.0,28.0,61.0,44.0,40.0,61,344.0,square2,i,0.0994,1,N,7.0
NS7,7.0,24.0,56.0,46.0,40.0,56,400.0,square2,i,0.2152,1,N,7.0
NS7,8.0,25.0,66.0,45.0,36.0,66,466.0,square2,i,0.0651,1,N,7.0
NS7,9.0,27.0,65.0,46.0,40.0,65,531.0,square2,i,0.1832,1,N,7.0
NS7,10.0,27.0,65.0,41.0,46.0,65,596.0,square2,i,0.0015,1,N,7.0
NS7,11.0,26.0,58.0,40.0,51.0,58,654.0,square2,i,0.0316,1,N,7.0
NS7,12.0,19.0,64.0,43.0,57.0,64,718.0,square2,i,0.0646,1,N,7.0
NS7,13.0,21.0,64.0,43.0,54.0,64,782.0,square2,i,0.0321,1,N,7.0
NS7,14.0,26.0,67.0,44.0,55.0,67,849.0,square2,i,0.0327,1,N,7.0
NS7,15.0,20.0,64.0,40.0,61.0,64,913.0,square2,i,0.1513,1,N,7.0
NS7,16.0,20.0,61.0,38.0,66.0,66,979.0,square4,j,0.0818,3,N,7.0
NS7,17.0,20.0,56.0,39.0,64.0,64,1043.0,square4,j,0.1826,3,N,7.0
NS7,18.0,21.0,56.0,33.0,65.0,56,1099.0,square2,i,0.3377,1,N,7.0
NS7,19.0,21.0,56.0,36.0,68.0,68,1167.0,square4,j,0.0179,3,N,7.0
NS7,20.0,26.0,58.0,37.0,64.0,64,1231.0,square4,j,0.1493,3,N,7.0
NS7,21.0,29.0,62.0,36.0,61.0,61,1292.0,square4,j,0.0496,3,N,7.0
NS7,22.0,24.0,63.0,37.0,55.0,55,1347.0,square4,j,0.1993,3,N,7.0
NS7,23.0,26.0,64.0,38.0,54.0,54,1401.0,square4,j,0.1321,3,N,7.0
NS7,24.0,18.0,65.0,39.0,53.0,39,1440.0,square3,f,0.2514,2,N,7.0
NS7,25.0,20.0,62.0,36.0,53.0,20,1460.0,square1,r,0.1037,0,N,7.0
NS7,26.0,24.0,56.0,39.0,52.0,56,1516.0,square2,i,0.1514,1,N,7.0
NS7,27.0,31.0,58.0,36.0,51.0,58,1574.0,square2,i,0.2478,1,N,7.0
NS7,28.0,28.0,59.0,42.0,53.0,53,1627.0,square4,j,0.1188,3,N,7.0
NS7,29.0,30.0,57.0,36.0,51.0,36,1663.0,square3,f,0.216,2,N,7.0
NS7,30.0,29.0,57.0,35.0,53.0,57,1720.0,square2,i,0.1156,1,N,7.0
NS7,31.0,27.0,59.0,37.0,48.0,59,1779.0,square2,i,0.0659,1,N,7.0
NS7,32.0,29.0,59.0,38.0,45.0,59,1838.0,square2,i,0.1485,1,N,7.0
NS7,33.0,35.0,58.0,37.0,52.0,58,1896.0,square2,i,0.0648,1,N,7.0
NS7,34.0,33.0,59.0,43.0,52.0,59,1955.0,square2,i,0.172,1,N,7.0
NS7,35.0,37.0,61.0,43.0,49.0,61,2016.0,square2,i,0.1301,1,N,7.0
NS7,36.0,36.0,62.0,48.0,54.0,62,2078.0,square2,i,0.0481,1,N,7.0
NS7,37.0,35.0,62.0,46.0,57.0,62,2140.0,square2,i,0.1318,1,N,7.0
NS7,38.0,37.0,59.0,52.0,53.0,59,2199.0,square2,i,0.1004,1,N,7.0
NS7,39.0,32.0,57.0,50.0,59.0,59,2258.0,square4,j,0.1816,3,N,7.0
NS7,40.0,30.0,56.0,54.0,59.0,59,2317.0,square4,j,0.1308,3,N,7.0
NS7,41.0,36.0,54.0,52.0,56.0,54,2371.0,square2,i,0.1857,1,N,7.0
NS7,42.0,30.0,55.0,57.0,55.0,55,2426.0,square4,j,0.0146,3,N,7.0
NS7,43.0,35.0,52.0,54.0,58.0,58,2484.0,square4,j,0.1827,3,N,7.0
NS7,44.0,30.0,56.0,55.0,57.0,57,2541.0,square4,j,0.1125,3,N,7.0
NS7,45.0,28.0,63.0,57.0,58.0,58,2599.0,square4,j,0.0303,3,N,7.0
NS7,46.0,29.0,60.0,58.0,57.0,29,2628.0,square1,r,0.0511,0,N,7.0
NS7,47.0,31.0,58.0,54.0,53.0,54,2682.0,square3,f,0.1645,2,N,7.0
NS7,48.0,27.0,58.0,59.0,48.0,59,2741.0,square3,f,0.1391,2,N,7.0
NS7,49.0,28.0,48.0,60.0,54.0,60,2801.0,square3,f,0.084,2,N,7.0
NS7,50.0,27.0,49.0,62.0,53.0,62,2863.0,square3,f,0.0144,2,N,7.0
NS7,51.0,41.0,49.0,63.0,56.0,49,2912.0,square2,i,0.1702,1,N,7.0
NS7,52.0,36.0,43.0,66.0,56.0,56,2968.0,square4,j,0.1387,3,N,7.0
NS7,53.0,41.0,51.0,69.0,54.0,41,3009.0,square1,r,0.1526,0,N,7.0
NS7,54.0,37.0,52.0,63.0,53.0,63,3072.0,square3,f,0.2358,2,N,7.0
NS7,55.0,40.0,51.0,60.0,54.0,60,3132.0,square3,f,0.1157,2,N,7.0
NS7,56.0,45.0,57.0,63.0,59.0,63,3195.0,square3,f,0.1826,2,N,7.0
NS7,57.0,42.0,49.0,64.0,53.0,64,3259.0,square3,f,0.1487,2,N,7.0
NS7,58.0,39.0,49.0,62.0,52.0,62,3321.0,square3,f,0.1168,2,N,7.0
NS7,59.0,47.0,49.0,67.0,54.0,67,3388.0,square3,f,0.0959,2,N,7.0
NS7,60.0,43.0,53.0,70.0,55.0,70,3458.0,square3,f,0.1205,2,N,7.0
NS7,61.0,41.0,48.0,69.0,52.0,69,3527.0,square3,f,0.2207,2,N,7.0
NS7,62.0,39.0,48.0,65.0,54.0,65,3592.0,square3,f,0.1814,2,N,7.0
NS7,63.0,38.0,48.0,64.0,56.0,64,3656.0,square3,f,0.266,2,N,7.0
NS7,64.0,34.0,46.0,65.0,51.0,65,3721.0,square3,f,0.1289,2,N,7.0
NS7,65.0,43.0,51.0,63.0,53.0,63,3784.0,square3,f,0.3175,2,N,7.0
NS7,66.0,41.0,51.0,64.0,50.0,64,3848.0,square3,f,0.1206,2,N,7.0
NS7,67.0,44.0,51.0,63.0,54.0,63,3911.0,square3,f,0.1983,2,N,7.0
NS7,68.0,42.0,49.0,62.0,48.0,62,3973.0,square3,f,0.1817,2,N,7.0
NS7,69.0,41.0,50.0,63.0,52.0,63,4036.0,square3,f,0.1161,2,N,7.0
NS7,70.0,45.0,45.0,59.0,53.0,59,4095.0,square3,f,0.2343,2,N,7.0
NS7,71.0,44.0,40.0,52.0,52.0,52,4147.0,square4,j,0.0153,3,N,7.0
NS7,72.0,51.0,38.0,55.0,47.0,51,4198.0,square1,r,0.1485,0,N,7.0
NS7,73.0,42.0,36.0,49.0,47.0,36,4234.0,square2,i,0.1062,1,N,7.0
NS7,74.0,44.0,40.0,46.0,48.0,44,4278.0,square1,r,0.1032,0,N,7.0
NS7,75.0,46.0,38.0,45.0,53.0,45,4323.0,square3,f,0.1981,2,N,7.0
NS7,76.0,48.0,44.0,40.0,53.0,53,4376.0,square4,j,0.0474,3,N,7.0
NS7,77.0,45.0,42.0,40.0,55.0,45,4421.0,square1,r,0.3994,0,N,7.0
NS7,78.0,41.0,39.0,40.0,56.0,39,4460.0,square2,i,0.182,1,N,7.0
NS7,79.0,44.0,38.0,41.0,55.0,55,4515.0,square4,j,0.0324,3,N,7.0
NS7,80.0,48.0,49.0,48.0,62.0,62,4577.0,square4,j,0.133,3,N,7.0
NS7,81.0,44.0,47.0,43.0,61.0,61,4638.0,square4,j,0.2138,3,N,7.0
NS7,82.0,45.0,46.0,38.0,54.0,54,4692.0,square4,j,0.2667,3,N,7.0
NS7,83.0,44.0,40.0,41.0,57.0,57,4749.0,square4,j,0.1813,3,N,7.0
NS7,84.0,47.0,46.0,41.0,53.0,41,4790.0,square3,f,0.2321,2,N,7.0
NS7,85.0,50.0,45.0,45.0,54.0,45,4835.0,square2,i,0.1329,1,N,7.0
NS7,86.0,45.0,43.0,44.0,54.0,45,4880.0,square1,r,0.2335,0,N,7.0
NS7,87.0,43.0,47.0,49.0,55.0,55,4935.0,square4,j,0.1066,3,N,7.0
NS7,88.0,40.0,48.0,44.0,58.0,58,4993.0,square4,j,0.0323,3,N,7.0
NS7,89.0,40.0,44.0,47.0,54.0,54,5047.0,square4,j,0.2544,3,N,7.0
NS7,90.0,38.0,43.0,48.0,55.0,55,5102.0,square4,j,0.0057,3,N,7.0
NS7,91.0,36.0,45.0,43.0,55.0,55,5157.0,square4,j,0.0013,3,N,7.0
NS7,92.0,29.0,44.0,45.0,53.0,53,5210.0,square4,j,0.382,3,N,7.0
NS7,93.0,33.0,46.0,44.0,57.0,57,5267.0,square4,j,0.1194,3,N,7.0
NS7,94.0,32.0,43.0,52.0,47.0,52,5319.0,square3,f,0.0987,2,N,7.0
NS7,95.0,41.0,46.0,50.0,51.0,41,5360.0,square1,r,0.1663,0,N,7.0
NS7,96.0,38.0,41.0,46.0,52.0,41,5401.0,square2,i,0.0688,1,N,7.0
NS7,97.0,41.0,44.0,40.0,52.0,52,5453.0,square4,j,0.164,3,N,7.0
NS7,98.0,45.0,41.0,41.0,55.0,41,5494.0,square3,f,0.1553,2,N,7.0
NS7,99.0,39.0,41.0,39.0,53.0,53,5547.0,square4,j,0.1548,3,N,7.0
NS5,0.0,26.0,19.0,54.0,39.0,54,54.0,square3,j,0.6181,2,N,5.0
NS5,1.0,21.0,17.0,51.0,42.0,42,96.0,square4,r,0.2168,3,N,5.0
NS5,2.0,19.0,17.0,52.0,42.0,19,115.0,square1,i,0.0487,0,N,5.0
NS5,3.0,21.0,16.0,55.0,38.0,16,131.0,square2,f,0.0874,1,N,5.0
NS5,4.0,14.0,26.0,52.0,44.0,52,183.0,square3,j,0.0989,2,N,5.0
NS5,5.0,18.0,25.0,47.0,42.0,47,230.0,square3,j,0.1163,2,N,5.0
NS5,6.0,23.0,21.0,54.0,38.0,54,284.0,square3,j,0.1883,2,N,5.0
NS5,7.0,18.0,27.0,56.0,39.0,56,340.0,square3,j,0.1827,2,N,5.0
NS5,8.0,18.0,28.0,57.0,40.0,40,380.0,square4,r,0.0669,3,N,5.0
NS5,9.0,15.0,29.0,53.0,38.0,15,395.0,square1,i,0.0723,0,N,5.0
NS5,10.0,13.0,26.0,56.0,41.0,26,421.0,square2,f,0.0805,1,N,5.0
NS5,11.0,11.0,25.0,58.0,41.0,58,479.0,square3,j,0.0997,2,N,5.0
NS5,12.0,9.0,22.0,53.0,40.0,53,532.0,square3,j,0.0015,2,N,5.0
NS5,13.0,11.0,21.0,55.0,39.0,55,587.0,square3,j,0.1863,2,N,5.0
NS5,14.0,12.0,17.0,49.0,38.0,49,636.0,square3,j,0.0982,2,N,5.0
NS5,15.0,18.0,19.0,52.0,37.0,37,673.0,square4,r,0.0819,3,N,5.0
NS5,16.0,18.0,20.0,49.0,40.0,49,722.0,square3,j,0.1287,2,N,5.0
NS5,17.0,16.0,16.0,50.0,41.0,50,772.0,square3,j,0.1153,2,N,5.0
NS5,18.0,16.0,18.0,51.0,43.0,51,823.0,square3,j,0.1829,2,N,5.0
NS5,19.0,14.0,20.0,44.0,45.0,14,837.0,square1,i,0.0644,0,N,5.0
NS5,20.0,19.0,21.0,42.0,48.0,48,885.0,square4,r,0.1991,3,N,5.0
NS5,21.0,19.0,22.0,43.0,47.0,22,907.0,square2,f,0.1876,1,N,5.0
NS5,22.0,17.0,15.0,43.0,47.0,43,950.0,square3,j,0.0799,2,N,5.0
NS5,23.0,16.0,28.0,37.0,47.0,47,997.0,square4,r,0.1137,3,N,5.0
NS5,24.0,20.0,21.0,38.0,49.0,49,1046.0,square4,r,0.1023,3,N,5.0
NS5,25.0,22.0,17.0,34.0,46.0,46,1092.0,square4,r,0.1812,3,N,5.0
NS5,26.0,30.0,16.0,32.0,50.0,50,1142.0,square4,r,0.2143,3,N,5.0
NS5,27.0,21.0,20.0,35.0,42.0,21,1163.0,square1,i,0.2522,0,N,5.0
NS5,28.0,20.0,23.0,39.0,42.0,23,1186.0,square2,f,0.2151,1,N,5.0
NS5,29.0,21.0,18.0,39.0,41.0,39,1225.0,square3,j,0.1643,2,N,5.0
NS5,30.0,20.0,11.0,41.0,44.0,44,1269.0,square4,r,0.2223,3,N,5.0
NS5,31.0,20.0,9.0,36.0,43.0,43,1312.0,square4,r,0.0161,3,N,5.0
NS5,32.0,21.0,13.0,35.0,46.0,46,1358.0,square4,r,0.1812,3,N,5.0
NS5,33.0,16.0,22.0,32.0,44.0,44,1402.0,square4,r,0.0997,3,N,5.0
NS5,34.0,20.0,20.0,33.0,37.0,37,1439.0,square4,r,0.0837,3,N,5.0
NS5,35.0,19.0,27.0,34.0,40.0,40,1479.0,square4,r,0.1148,3,N,5.0
NS5,36.0,20.0,23.0,31.0,37.0,20,1499.0,square1,i,0.0829,0,N,5.0
NS5,37.0,15.0,28.0,41.0,40.0,28,1527.0,square2,f,0.1641,1,N,5.0
NS5,38.0,18.0,21.0,45.0,37.0,45,1572.0,square3,j,0.1494,2,N,5.0
NS5,39.0,23.0,22.0,40.0,34.0,40,1612.0,square3,j,0.1648,2,N,5.0
NS5,40.0,22.0,25.0,44.0,26.0,44,1656.0,square3,j,0.1827,2,N,5.0
NS5,41.0,28.0,25.0,39.0,29.0,39,1695.0,square3,j,0.2624,2,N,5.0
NS5,42.0,27.0,27.0,42.0,35.0,35,1730.0,square4,r,0.1375,3,N,5.0
NS5,43.0,25.0,25.0,49.0,38.0,38,1768.0,square4,r,0.0014,3,N,5.0
NS5,44.0,24.0,26.0,42.0,30.0,30,1798.0,square4,r,0.0982,3,N,5.0
NS5,45.0,33.0,22.0,43.0,37.0,33,1831.0,square1,i,0.3321,0,N,5.0
NS5,46.0,32.0,24.0,50.0,38.0,32,1863.0,square1,i,0.1118,0,N,5.0
NS5,47.0,39.0,25.0,52.0,29.0,25,1888.0,square2,f,0.2642,1,N,5.0
NS5,48.0,42.0,22.0,46.0,33.0,42,1930.0,square1,i,0.3968,0,N,5.0
NS5,49.0,40.0,26.0,40.0,33.0,40,1970.0,square1,i,0.0311,0,N,5.0
NS5,50.0,34.0,19.0,47.0,33.0,34,2004.0,square1,i,0.0652,0,N,5.0
NS5,51.0,29.0,25.0,45.0,29.0,29,2033.0,square1,i,0.166,0,N,5.0
NS5,52.0,29.0,24.0,48.0,35.0,48,2081.0,square3,j,0.2351,2,N,5.0
NS5,53.0,24.0,25.0,45.0,40.0,45,2126.0,square3,j,0.0986,2,N,5.0
NS5,54.0,26.0,25.0,51.0,36.0,36,2162.0,square4,r,0.2323,3,N,5.0
NS5,55.0,25.0,28.0,56.0,34.0,28,2190.0,square2,f,0.3455,1,N,5.0
NS5,56.0,23.0,27.0,54.0,36.0,54,2244.0,square3,j,0.0643,2,N,5.0
NS5,57.0,19.0,25.0,51.0,31.0,51,2295.0,square3,j,0.2354,2,N,5.0
NS5,58.0,20.0,30.0,53.0,29.0,53,2348.0,square3,j,0.135,2,N,5.0
NS5,59.0,17.0,30.0,52.0,28.0,52,2400.0,square3,j,0.1647,2,N,5.0
NS5,60.0,15.0,30.0,55.0,30.0,55,2455.0,square3,j,0.1469,2,N,5.0
NS5,61.0,22.0,29.0,54.0,30.0,54,2509.0,square3,j,0.2157,2,N,5.0
NS5,62.0,18.0,31.0,55.0,32.0,55,2564.0,square3,j,0.0491,2,N,5.0
NS5,63.0,19.0,31.0,51.0,37.0,51,2615.0,square3,j,0.1477,2,N,5.0
NS5,64.0,20.0,30.0,45.0,35.0,45,2660.0,square3,j,0.198,2,N,5.0
NS5,65.0,24.0,21.0,55.0,38.0,55,2715.0,square3,j,0.1546,2,N,5.0
NS5,66.0,22.0,29.0,58.0,36.0,58,2773.0,square3,j,0.0632,2,N,5.0
NS5,67.0,22.0,26.0,51.0,36.0,51,2824.0,square3,j,0.1328,2,N,5.0
NS5,68.0,20.0,28.0,52.0,36.0,52,2876.0,square3,j,0.2127,2,N,5.0
NS5,69.0,18.0,27.0,52.0,40.0,40,2916.0,square4,r,0.1539,3,N,5.0
NS5,70.0,22.0,34.0,55.0,39.0,22,2938.0,square1,i,0.1518,0,N,5.0
NS5,71.0,27.0,37.0,59.0,41.0,37,2975.0,square2,f,0.1657,1,N,5.0
NS5,72.0,27.0,37.0,57.0,40.0,37,3012.0,square2,f,0.1825,1,N,5.0
NS5,73.0,35.0,36.0,55.0,38.0,55,3067.0,square3,j,0.1511,2,N,5.0
NS5,74.0,27.0,36.0,52.0,36.0,52,3119.0,square3,j,0.2168,2,N,5.0
NS5,75.0,31.0,40.0,53.0,38.0,53,3172.0,square3,j,0.2312,2,N,5.0
NS5,76.0,33.0,41.0,59.0,35.0,59,3231.0,square3,j,0.1632,2,N,5.0
NS5,77.0,33.0,42.0,56.0,38.0,56,3287.0,square3,j,0.2488,2,N,5.0
NS5,78.0,30.0,42.0,53.0,37.0,53,3340.0,square3,j,0.2301,2,N,5.0
NS5,79.0,27.0,49.0,51.0,44.0,44,3384.0,square4,r,0.114,3,N,5.0
NS5,80.0,31.0,49.0,45.0,44.0,31,3415.0,square1,i,0.1475,0,N,5.0
NS5,81.0,33.0,51.0,48.0,43.0,51,3466.0,square2,f,0.1658,1,N,5.0
NS5,82.0,31.0,54.0,41.0,43.0,41,3507.0,square3,j,0.2477,2,N,5.0
NS5,83.0,25.0,57.0,42.0,40.0,57,3564.0,square2,f,0.9506,1,N,5.0
NS5,84.0,36.0,57.0,45.0,38.0,57,3621.0,square2,f,0.2662,1,N,5.0
NS5,85.0,36.0,62.0,44.0,42.0,62,3683.0,square2,f,0.2654,1,N,5.0
NS5,86.0,33.0,55.0,48.0,43.0,55,3738.0,square2,f,0.1306,1,N,5.0
NS5,87.0,37.0,53.0,44.0,46.0,53,3791.0,square2,f,0.1472,1,N,5.0
NS5,88.0,36.0,54.0,41.0,48.0,54,3845.0,square2,f,0.131,1,N,5.0
NS5,89.0,39.0,62.0,47.0,47.0,62,3907.0,square2,f,0.2321,1,N,5.0
NS5,90.0,37.0,62.0,51.0,48.0,62,3969.0,square2,f,0.1213,1,N,5.0
NS5,91.0,40.0,64.0,48.0,53.0,64,4033.0,square2,f,0.2321,1,N,5.0
NS5,92.0,42.0,64.0,51.0,55.0,64,4097.0,square2,f,0.1653,1,N,5.0
NS5,93.0,39.0,63.0,51.0,53.0,63,4160.0,square2,f,0.2002,1,N,5.0
NS5,94.0,41.0,60.0,50.0,58.0,50,4210.0,square3,j,0.0987,2,N,5.0
NS5,95.0,36.0,55.0,53.0,52.0,52,4262.0,square4,r,0.131,3,N,5.0
NS5,96.0,36.0,56.0,55.0,56.0,36,4298.0,square1,i,0.2219,0,N,5.0
NS5,97.0,28.0,52.0,57.0,53.0,52,4350.0,square2,f,0.1277,1,N,5.0
NS5,98.0,29.0,53.0,53.0,43.0,53,4403.0,square2,f,0.1679,1,N,5.0
NS5,99.0,25.0,55.0,53.0,46.0,55,4458.0,square2,f,0.1162,1,N,5.0
