block,Trial,square1,square2,square3,square4,currPoints,totalPoints,square,choiceKey.keys,choiceKey.rt,armNum,blockType,blockNum
prac,0.0,100.0,0.0,0.0,0.0,0,0.0,square2,,,1,p,0.0
prac,1.0,100.0,0.0,0.0,0.0,0,0.0,square3,,,2,p,0.0
prac,2.0,100.0,0.0,0.0,0.0,100,100.0,square1,,,0,p,0.0
prac,3.0,100.0,0.0,0.0,0.0,100,200.0,square1,,,0,p,0.0
prac,4.0,100.0,0.0,0.0,0.0,100,300.0,square1,,,0,p,0.0
prac,5.0,100.0,0.0,0.0,0.0,100,400.0,square1,,,0,p,0.0
prac,6.0,100.0,0.0,0.0,0.0,100,500.0,square1,,,0,p,0.0
prac,7.0,100.0,0.0,0.0,0.0,100,600.0,square1,,,0,p,0.0
prac,8.0,100.0,0.0,0.0,0.0,100,700.0,square1,,,0,p,0.0
prac,9.0,100.0,0.0,0.0,0.0,100,800.0,square1,,,0,p,0.0
S12,0.0,38.0,42.0,30.0,42.0,30,30.0,square3,i,0.613,2,S,12.0
S12,1.0,30.0,42.0,28.0,37.0,37,67.0,square4,j,0.347,3,S,12.0
S12,2.0,34.0,41.0,38.0,43.0,34,101.0,square1,f,0.682,0,S,12.0
S12,3.0,38.0,51.0,38.0,38.0,51,152.0,square2,r,0.367,1,S,12.0
S12,4.0,32.0,37.0,33.0,45.0,37,189.0,square2,r,0.25,1,S,12.0
S12,5.0,38.0,52.0,36.0,35.0,36,225.0,square3,i,0.683,2,S,12.0
S12,6.0,30.0,43.0,30.0,38.0,43,268.0,square2,r,0.731,1,S,12.0
S12,7.0,38.0,39.0,30.0,39.0,39,307.0,square2,r,0.249,1,S,12.0
S12,8.0,37.0,49.0,35.0,38.0,49,356.0,square2,r,0.216,1,S,12.0
S12,9.0,37.0,44.0,29.0,38.0,44,400.0,square2,r,0.252,1,S,12.0
S12,10.0,35.0,42.0,30.0,45.0,42,442.0,square2,r,0.199,1,S,12.0
S12,11.0,34.0,45.0,36.0,32.0,45,487.0,square2,r,0.061,1,S,12.0
S12,12.0,33.0,45.0,35.0,42.0,45,532.0,square2,r,0.098,1,S,12.0
S12,13.0,36.0,36.0,29.0,40.0,36,568.0,square2,r,0.522,1,S,12.0
S12,14.0,36.0,49.0,32.0,42.0,42,610.0,square4,j,0.788,3,S,12.0
S12,15.0,35.0,43.0,35.0,46.0,43,653.0,square2,r,0.471,1,S,12.0
S12,16.0,39.0,48.0,41.0,43.0,48,701.0,square2,r,0.239,1,S,12.0
S12,17.0,35.0,47.0,27.0,38.0,47,748.0,square2,r,0.35,1,S,12.0
S12,18.0,37.0,51.0,33.0,33.0,51,799.0,square2,r,0.434,1,S,12.0
S12,19.0,41.0,42.0,33.0,36.0,42,841.0,square2,r,0.153,1,S,12.0
S12,20.0,34.0,44.0,26.0,41.0,44,885.0,square2,r,0.201,1,S,12.0
S12,21.0,35.0,37.0,29.0,35.0,37,922.0,square2,r,0.112,1,S,12.0
S12,22.0,37.0,48.0,31.0,41.0,48,970.0,square2,r,1.398,1,S,12.0
S12,23.0,36.0,43.0,27.0,45.0,36,1006.0,square1,f,0.382,0,S,12.0
S12,24.0,39.0,48.0,38.0,38.0,38,1044.0,square4,j,0.318,3,S,12.0
S12,25.0,31.0,43.0,30.0,40.0,30,1074.0,square3,i,0.014,2,S,12.0
S12,26.0,35.0,48.0,34.0,33.0,48,1122.0,square2,r,0.268,1,S,12.0
S12,27.0,46.0,46.0,28.0,38.0,46,1168.0,square2,r,0.201,1,S,12.0
S12,28.0,32.0,37.0,32.0,40.0,37,1205.0,square2,r,0.201,1,S,12.0
S12,29.0,38.0,41.0,32.0,44.0,41,1246.0,square2,r,0.066,1,S,12.0
S12,30.0,32.0,48.0,29.0,42.0,48,1294.0,square2,r,0.279,1,S,12.0
S12,31.0,34.0,46.0,30.0,42.0,46,1340.0,square2,r,0.317,1,S,12.0
S12,32.0,39.0,43.0,41.0,40.0,43,1383.0,square2,r,0.195,1,S,12.0
S12,33.0,36.0,47.0,33.0,46.0,47,1430.0,square2,r,0.171,1,S,12.0
S12,34.0,36.0,41.0,34.0,41.0,41,1471.0,square2,r,0.152,1,S,12.0
S12,35.0,34.0,42.0,31.0,43.0,42,1513.0,square2,r,0.031,1,S,12.0
S12,36.0,39.0,43.0,26.0,33.0,43,1556.0,square2,r,0.067,1,S,12.0
S12,37.0,39.0,49.0,30.0,42.0,49,1605.0,square2,r,0.35,1,S,12.0
S12,38.0,33.0,47.0,36.0,41.0,47,1652.0,square2,r,0.161,1,S,12.0
S12,39.0,29.0,46.0,35.0,36.0,46,1698.0,square2,r,0.215,1,S,12.0
S12,40.0,39.0,39.0,29.0,36.0,39,1737.0,square2,r,0.449,1,S,12.0
S12,41.0,33.0,44.0,31.0,40.0,44,1781.0,square2,r,0.419,1,S,12.0
S12,42.0,34.0,46.0,25.0,37.0,46,1827.0,square2,r,0.485,1,S,12.0
S12,43.0,37.0,42.0,30.0,42.0,42,1869.0,square2,r,0.229,1,S,12.0
S12,44.0,33.0,49.0,36.0,39.0,49,1918.0,square2,r,0.232,1,S,12.0
S12,45.0,35.0,40.0,30.0,47.0,40,1958.0,square2,r,0.245,1,S,12.0
S12,46.0,40.0,41.0,29.0,35.0,41,1999.0,square2,r,0.081,1,S,12.0
S12,47.0,32.0,42.0,28.0,43.0,42,2041.0,square2,r,0.071,1,S,12.0
S12,48.0,43.0,47.0,31.0,38.0,47,2088.0,square2,r,0.233,1,S,12.0
S12,49.0,37.0,41.0,35.0,40.0,41,2129.0,square2,r,0.067,1,S,12.0
S9,0.0,36.0,36.0,32.0,32.0,32,32.0,square4,r,0.516,3,S,9.0
S9,1.0,40.0,29.0,36.0,24.0,29,61.0,square2,f,0.178,1,S,9.0
S9,2.0,31.0,43.0,22.0,29.0,31,92.0,square1,i,0.424,0,S,9.0
S9,3.0,41.0,33.0,28.0,27.0,28,120.0,square3,j,0.135,2,S,9.0
S9,4.0,34.0,29.0,32.0,31.0,31,151.0,square4,r,0.479,3,S,9.0
S9,5.0,41.0,32.0,22.0,29.0,32,183.0,square2,f,0.283,1,S,9.0
S9,6.0,44.0,30.0,21.0,28.0,44,227.0,square1,i,0.34,0,S,9.0
S9,7.0,39.0,37.0,26.0,24.0,26,253.0,square3,j,0.233,2,S,9.0
S9,8.0,41.0,33.0,23.0,20.0,41,294.0,square1,i,0.282,0,S,9.0
S9,9.0,30.0,35.0,24.0,27.0,30,324.0,square1,i,0.2,0,S,9.0
S9,10.0,41.0,29.0,23.0,28.0,28,352.0,square4,r,0.1,3,S,9.0
S9,11.0,37.0,38.0,22.0,33.0,37,389.0,square1,i,0.006,0,S,9.0
S9,12.0,35.0,31.0,27.0,32.0,35,424.0,square1,i,0.036,0,S,9.0
S9,13.0,38.0,37.0,30.0,29.0,38,462.0,square1,i,0.151,0,S,9.0
S9,14.0,36.0,38.0,30.0,37.0,36,498.0,square1,i,0.264,0,S,9.0
S9,15.0,40.0,29.0,27.0,24.0,40,538.0,square1,i,0.114,0,S,9.0
S9,16.0,33.0,37.0,29.0,28.0,33,571.0,square1,i,0.001,0,S,9.0
S9,17.0,41.0,32.0,36.0,31.0,41,612.0,square1,i,0.124,0,S,9.0
S9,18.0,39.0,26.0,16.0,35.0,39,651.0,square1,i,0.15,0,S,9.0
S9,19.0,35.0,30.0,23.0,27.0,35,686.0,square1,i,0.148,0,S,9.0
S9,20.0,39.0,34.0,23.0,29.0,39,725.0,square1,i,0.182,0,S,9.0
S9,21.0,35.0,37.0,28.0,31.0,35,760.0,square1,i,0.03,0,S,9.0
S9,22.0,37.0,30.0,23.0,38.0,37,797.0,square1,i,0.946,0,S,9.0
S9,23.0,37.0,34.0,27.0,34.0,37,834.0,square1,i,0.335,0,S,9.0
S9,24.0,31.0,34.0,26.0,27.0,31,865.0,square1,i,0.31,0,S,9.0
S9,25.0,38.0,40.0,29.0,24.0,38,903.0,square1,i,0.287,0,S,9.0
S9,26.0,43.0,31.0,21.0,24.0,43,946.0,square1,i,0.13,0,S,9.0
S9,27.0,30.0,31.0,23.0,28.0,99999,946.0,invalid,,,-1,S,9.0
S9,28.0,44.0,32.0,31.0,32.0,99999,946.0,invalid,,,-1,S,9.0
S9,29.0,36.0,38.0,22.0,22.0,36,982.0,square1,i,0.485,0,S,9.0
S9,30.0,41.0,30.0,26.0,29.0,41,1023.0,square1,i,0.468,0,S,9.0
S9,31.0,39.0,37.0,30.0,32.0,39,1062.0,square1,i,0.437,0,S,9.0
S9,32.0,35.0,39.0,28.0,31.0,35,1097.0,square1,i,0.534,0,S,9.0
S9,33.0,37.0,39.0,29.0,32.0,37,1134.0,square1,i,0.315,0,S,9.0
S9,34.0,46.0,33.0,21.0,25.0,25,1159.0,square4,r,0.0,3,S,9.0
S9,35.0,38.0,33.0,28.0,28.0,33,1192.0,square2,f,0.314,1,S,9.0
S9,36.0,40.0,37.0,21.0,32.0,40,1232.0,square1,i,0.134,0,S,9.0
S9,37.0,38.0,43.0,23.0,37.0,38,1270.0,square1,i,0.166,0,S,9.0
S9,38.0,36.0,31.0,29.0,29.0,36,1306.0,square1,i,1.728,0,S,9.0
S9,39.0,41.0,29.0,26.0,28.0,99999,1306.0,invalid,,,-1,S,9.0
S9,40.0,32.0,36.0,26.0,28.0,32,1338.0,square1,i,0.698,0,S,9.0
S9,41.0,40.0,37.0,35.0,28.0,40,1378.0,square1,i,0.199,0,S,9.0
S9,42.0,43.0,32.0,26.0,37.0,43,1421.0,square1,i,0.232,0,S,9.0
S9,43.0,40.0,31.0,23.0,31.0,40,1461.0,square1,i,0.099,0,S,9.0
S9,44.0,42.0,38.0,24.0,40.0,42,1503.0,square1,i,0.066,0,S,9.0
S9,45.0,36.0,35.0,30.0,33.0,36,1539.0,square1,i,0.028,0,S,9.0
S9,46.0,38.0,30.0,33.0,26.0,38,1577.0,square1,i,0.029,0,S,9.0
S9,47.0,39.0,37.0,25.0,26.0,39,1616.0,square1,i,0.903,0,S,9.0
S9,48.0,36.0,35.0,26.0,27.0,36,1652.0,square1,i,0.01,0,S,9.0
S9,49.0,40.0,32.0,24.0,28.0,40,1692.0,square1,i,0.0,0,S,9.0
S2,0.0,62.0,57.0,71.0,74.0,99999,0.0,invalid,,,-1,S,2.0
S2,1.0,64.0,59.0,72.0,67.0,72,72.0,square3,r,0.598,2,S,2.0
S2,2.0,68.0,57.0,75.0,68.0,57,129.0,square2,i,0.417,1,S,2.0
S2,3.0,69.0,57.0,80.0,70.0,70,199.0,square4,f,0.218,3,S,2.0
S2,4.0,66.0,60.0,74.0,68.0,66,265.0,square1,j,0.003,0,S,2.0
S2,5.0,63.0,62.0,77.0,72.0,77,342.0,square3,r,0.221,2,S,2.0
S2,6.0,69.0,61.0,75.0,74.0,61,403.0,square2,i,0.433,1,S,2.0
S2,7.0,74.0,66.0,79.0,72.0,79,482.0,square3,r,0.063,2,S,2.0
S2,8.0,81.0,65.0,76.0,72.0,76,558.0,square3,r,0.115,2,S,2.0
S2,9.0,70.0,66.0,78.0,70.0,78,636.0,square3,r,0.129,2,S,2.0
S2,10.0,70.0,72.0,70.0,74.0,70,706.0,square3,r,0.19,2,S,2.0
S2,11.0,64.0,66.0,72.0,67.0,72,778.0,square3,r,0.1,2,S,2.0
S2,12.0,66.0,57.0,70.0,67.0,70,848.0,square3,r,0.249,2,S,2.0
S2,13.0,68.0,68.0,71.0,73.0,71,919.0,square3,r,0.001,2,S,2.0
S2,14.0,70.0,63.0,77.0,71.0,77,996.0,square3,r,0.034,2,S,2.0
S2,15.0,64.0,66.0,75.0,66.0,75,1071.0,square3,r,0.003,2,S,2.0
S2,16.0,67.0,61.0,73.0,70.0,73,1144.0,square3,r,0.385,2,S,2.0
S2,17.0,65.0,58.0,71.0,75.0,58,1202.0,square2,i,0.163,1,S,2.0
S2,18.0,72.0,64.0,81.0,61.0,81,1283.0,square3,r,0.204,2,S,2.0
S2,19.0,60.0,63.0,72.0,65.0,72,1355.0,square3,r,0.132,2,S,2.0
S2,20.0,68.0,56.0,71.0,70.0,71,1426.0,square3,r,0.3,2,S,2.0
S2,21.0,65.0,65.0,74.0,71.0,74,1500.0,square3,r,0.25,2,S,2.0
S2,22.0,69.0,62.0,77.0,72.0,77,1577.0,square3,r,0.088,2,S,2.0
S2,23.0,64.0,71.0,74.0,65.0,74,1651.0,square3,r,0.066,2,S,2.0
S2,24.0,66.0,62.0,78.0,70.0,78,1729.0,square3,r,0.002,2,S,2.0
S2,25.0,67.0,69.0,76.0,66.0,76,1805.0,square3,r,0.191,2,S,2.0
S2,26.0,65.0,63.0,74.0,69.0,74,1879.0,square3,r,0.0,2,S,2.0
S2,27.0,68.0,64.0,67.0,68.0,67,1946.0,square3,r,0.15,2,S,2.0
S2,28.0,61.0,52.0,71.0,68.0,71,2017.0,square3,r,0.006,2,S,2.0
S2,29.0,67.0,64.0,73.0,69.0,73,2090.0,square3,r,0.001,2,S,2.0
S2,30.0,67.0,53.0,77.0,67.0,77,2167.0,square3,r,0.001,2,S,2.0
S2,31.0,67.0,69.0,69.0,68.0,69,2236.0,square3,r,0.009,2,S,2.0
S2,32.0,71.0,63.0,73.0,70.0,73,2309.0,square3,r,0.066,2,S,2.0
S2,33.0,61.0,65.0,68.0,71.0,68,2377.0,square3,r,0.351,2,S,2.0
S2,34.0,66.0,55.0,78.0,68.0,78,2455.0,square3,r,0.117,2,S,2.0
S2,35.0,60.0,57.0,66.0,66.0,66,2521.0,square3,r,0.102,2,S,2.0
S2,36.0,64.0,63.0,73.0,72.0,73,2594.0,square3,r,0.2,2,S,2.0
S2,37.0,65.0,62.0,75.0,68.0,75,2669.0,square3,r,0.045,2,S,2.0
S2,38.0,69.0,57.0,71.0,62.0,71,2740.0,square3,r,0.029,2,S,2.0
S2,39.0,72.0,66.0,74.0,74.0,74,2814.0,square3,r,0.201,2,S,2.0
S2,40.0,66.0,63.0,76.0,59.0,76,2890.0,square3,r,0.167,2,S,2.0
S2,41.0,74.0,64.0,67.0,76.0,67,2957.0,square3,r,0.112,2,S,2.0
S2,42.0,62.0,67.0,72.0,68.0,72,3029.0,square3,r,0.055,2,S,2.0
S2,43.0,69.0,63.0,75.0,71.0,75,3104.0,square3,r,0.003,2,S,2.0
S2,44.0,72.0,60.0,74.0,67.0,74,3178.0,square3,r,0.098,2,S,2.0
S2,45.0,69.0,63.0,76.0,73.0,76,3254.0,square3,r,0.18,2,S,2.0
S2,46.0,64.0,71.0,75.0,72.0,75,3329.0,square3,r,0.0,2,S,2.0
S2,47.0,75.0,62.0,75.0,69.0,75,3404.0,square3,r,0.198,2,S,2.0
S2,48.0,66.0,65.0,74.0,68.0,74,3478.0,square3,r,0.05,2,S,2.0
S2,49.0,67.0,64.0,72.0,76.0,72,3550.0,square3,r,0.0,2,S,2.0
S6,0.0,40.0,29.0,39.0,26.0,29,29.0,square2,r,0.449,1,S,6.0
S6,1.0,34.0,40.0,31.0,25.0,34,63.0,square1,i,0.065,0,S,6.0
S6,2.0,37.0,31.0,25.0,30.0,25,88.0,square3,f,0.148,2,S,6.0
S6,3.0,39.0,37.0,30.0,27.0,27,115.0,square4,j,0.07,3,S,6.0
S6,4.0,42.0,40.0,28.0,32.0,42,157.0,square1,i,0.014,0,S,6.0
S6,5.0,35.0,35.0,39.0,29.0,35,192.0,square2,r,0.365,1,S,6.0
S6,6.0,48.0,30.0,37.0,33.0,30,222.0,square2,r,0.284,1,S,6.0
S6,7.0,47.0,34.0,31.0,29.0,47,269.0,square1,i,0.183,0,S,6.0
S6,8.0,43.0,35.0,30.0,25.0,43,312.0,square1,i,0.062,0,S,6.0
S6,9.0,36.0,38.0,35.0,35.0,36,348.0,square1,i,0.17,0,S,6.0
S6,10.0,38.0,35.0,31.0,21.0,21,369.0,square4,j,0.283,3,S,6.0
S6,11.0,30.0,36.0,31.0,20.0,30,399.0,square1,i,0.246,0,S,6.0
S6,12.0,37.0,40.0,33.0,22.0,40,439.0,square2,r,0.117,1,S,6.0
S6,13.0,32.0,41.0,35.0,29.0,32,471.0,square1,i,0.419,0,S,6.0
S6,14.0,41.0,29.0,30.0,32.0,41,512.0,square1,i,0.34,0,S,6.0
S6,15.0,43.0,37.0,31.0,27.0,37,549.0,square2,r,0.062,1,S,6.0
S6,16.0,34.0,34.0,35.0,31.0,34,583.0,square2,r,0.15,1,S,6.0
S6,17.0,47.0,40.0,29.0,28.0,40,623.0,square2,r,0.185,1,S,6.0
S6,18.0,37.0,38.0,34.0,35.0,37,660.0,square1,i,0.152,0,S,6.0
S6,19.0,36.0,39.0,31.0,26.0,36,696.0,square1,i,0.919,0,S,6.0
S6,20.0,44.0,40.0,31.0,25.0,44,740.0,square1,i,0.018,0,S,6.0
S6,21.0,39.0,41.0,35.0,24.0,39,779.0,square1,i,0.2,0,S,6.0
S6,22.0,41.0,38.0,41.0,31.0,41,820.0,square3,f,0.064,2,S,6.0
S6,23.0,37.0,31.0,30.0,32.0,37,857.0,square1,i,0.047,0,S,6.0
S6,24.0,48.0,34.0,34.0,21.0,34,891.0,square3,f,0.097,2,S,6.0
S6,25.0,42.0,45.0,26.0,29.0,42,933.0,square1,i,0.05,0,S,6.0
S6,26.0,40.0,39.0,36.0,28.0,40,973.0,square1,i,0.067,0,S,6.0
S6,27.0,42.0,33.0,29.0,29.0,42,1015.0,square1,i,0.169,0,S,6.0
S6,28.0,41.0,30.0,29.0,29.0,29,1044.0,square3,f,0.181,2,S,6.0
S6,29.0,42.0,40.0,32.0,27.0,32,1076.0,square3,f,0.215,2,S,6.0
S6,30.0,42.0,36.0,30.0,26.0,36,1112.0,square2,r,0.085,1,S,6.0
S6,31.0,42.0,34.0,35.0,29.0,34,1146.0,square2,r,0.001,1,S,6.0
S6,32.0,35.0,36.0,31.0,23.0,35,1181.0,square1,i,0.083,0,S,6.0
S6,33.0,35.0,31.0,35.0,30.0,35,1216.0,square1,i,0.097,0,S,6.0
S6,34.0,40.0,38.0,31.0,27.0,40,1256.0,square1,i,0.531,0,S,6.0
S6,35.0,42.0,37.0,34.0,34.0,42,1298.0,square1,i,0.138,0,S,6.0
S6,36.0,37.0,46.0,31.0,34.0,37,1335.0,square1,i,0.232,0,S,6.0
S6,37.0,38.0,40.0,30.0,26.0,38,1373.0,square1,i,0.17,0,S,6.0
S6,38.0,36.0,34.0,31.0,33.0,36,1409.0,square1,i,0.202,0,S,6.0
S6,39.0,44.0,37.0,33.0,31.0,33,1442.0,square3,f,1.356,2,S,6.0
S6,40.0,40.0,38.0,31.0,25.0,38,1480.0,square2,r,0.167,1,S,6.0
S6,41.0,49.0,35.0,35.0,28.0,49,1529.0,square1,i,0.221,0,S,6.0
S6,42.0,44.0,40.0,32.0,28.0,44,1573.0,square1,i,0.031,0,S,6.0
S6,43.0,43.0,36.0,33.0,26.0,43,1616.0,square1,i,0.115,0,S,6.0
S6,44.0,38.0,33.0,34.0,26.0,38,1654.0,square1,i,0.064,0,S,6.0
S6,45.0,32.0,35.0,30.0,28.0,32,1686.0,square1,i,0.061,0,S,6.0
S6,46.0,38.0,36.0,34.0,30.0,38,1724.0,square1,i,0.139,0,S,6.0
S6,47.0,44.0,35.0,32.0,31.0,44,1768.0,square1,i,0.016,0,S,6.0
S6,48.0,40.0,40.0,31.0,33.0,40,1808.0,square1,i,0.049,0,S,6.0
S6,49.0,41.0,29.0,29.0,29.0,41,1849.0,square1,i,0.072,0,S,6.0
S4,0.0,18.0,16.0,34.0,20.0,20,20.0,square4,r,0.445,3,S,4.0
S4,1.0,33.0,26.0,26.0,23.0,26,46.0,square2,i,0.168,1,S,4.0
S4,2.0,35.0,15.0,33.0,22.0,22,68.0,square4,r,0.332,3,S,4.0
S4,3.0,28.0,19.0,27.0,27.0,19,87.0,square2,i,0.001,1,S,4.0
S4,4.0,27.0,16.0,25.0,28.0,27,114.0,square1,f,0.05,0,S,4.0
S4,5.0,23.0,22.0,31.0,24.0,31,145.0,square3,j,0.369,2,S,4.0
S4,6.0,25.0,20.0,34.0,23.0,25,170.0,square1,f,0.216,0,S,4.0
S4,7.0,21.0,22.0,30.0,21.0,21,191.0,square1,f,0.205,0,S,4.0
S4,8.0,33.0,24.0,33.0,17.0,33,224.0,square3,j,0.188,2,S,4.0
S4,9.0,24.0,18.0,31.0,28.0,31,255.0,square3,j,0.053,2,S,4.0
S4,10.0,31.0,26.0,35.0,20.0,35,290.0,square3,j,0.084,2,S,4.0
S4,11.0,25.0,15.0,31.0,25.0,15,305.0,square2,i,0.083,1,S,4.0
S4,12.0,24.0,16.0,29.0,22.0,16,321.0,square2,i,0.317,1,S,4.0
S4,13.0,28.0,23.0,25.0,17.0,17,338.0,square4,r,0.219,3,S,4.0
S4,14.0,22.0,23.0,21.0,23.0,23,361.0,square4,r,0.153,3,S,4.0
S4,15.0,25.0,19.0,28.0,25.0,28,389.0,square3,j,0.106,2,S,4.0
S4,16.0,26.0,17.0,30.0,21.0,30,419.0,square3,j,0.14,2,S,4.0
S4,17.0,22.0,21.0,29.0,22.0,29,448.0,square3,j,0.132,2,S,4.0
S4,18.0,28.0,22.0,32.0,22.0,32,480.0,square3,j,0.1,2,S,4.0
S4,19.0,26.0,19.0,31.0,26.0,31,511.0,square3,j,0.15,2,S,4.0
S4,20.0,28.0,18.0,28.0,25.0,28,539.0,square3,j,0.071,2,S,4.0
S4,21.0,33.0,26.0,21.0,29.0,21,560.0,square3,j,0.037,2,S,4.0
S4,22.0,31.0,19.0,29.0,20.0,29,589.0,square3,j,0.129,2,S,4.0
S4,23.0,27.0,21.0,36.0,26.0,36,625.0,square3,j,0.132,2,S,4.0
S4,24.0,28.0,15.0,32.0,21.0,32,657.0,square3,j,0.203,2,S,4.0
S4,25.0,27.0,18.0,28.0,25.0,28,685.0,square3,j,0.031,2,S,4.0
S4,26.0,26.0,20.0,27.0,14.0,27,712.0,square3,j,0.062,2,S,4.0
S4,27.0,28.0,19.0,36.0,18.0,36,748.0,square3,j,0.112,2,S,4.0
S4,28.0,28.0,19.0,28.0,23.0,28,776.0,square3,j,0.103,2,S,4.0
S4,29.0,25.0,22.0,29.0,23.0,29,805.0,square3,j,0.116,2,S,4.0
S4,30.0,26.0,16.0,30.0,20.0,30,835.0,square3,j,0.082,2,S,4.0
S4,31.0,23.0,25.0,26.0,30.0,26,861.0,square3,j,0.184,2,S,4.0
S4,32.0,21.0,26.0,22.0,23.0,22,883.0,square3,j,0.368,2,S,4.0
S4,33.0,25.0,22.0,24.0,17.0,24,907.0,square3,j,0.132,2,S,4.0
S4,34.0,30.0,22.0,33.0,24.0,33,940.0,square3,j,0.218,2,S,4.0
S4,35.0,23.0,21.0,35.0,26.0,35,975.0,square3,j,0.001,2,S,4.0
S4,36.0,19.0,21.0,33.0,24.0,33,1008.0,square3,j,0.136,2,S,4.0
S4,37.0,20.0,17.0,26.0,26.0,26,1034.0,square3,j,0.164,2,S,4.0
S4,38.0,28.0,20.0,28.0,26.0,28,1062.0,square3,j,0.05,2,S,4.0
S4,39.0,28.0,23.0,40.0,27.0,40,1102.0,square3,j,0.048,2,S,4.0
S4,40.0,25.0,24.0,32.0,22.0,32,1134.0,square3,j,0.029,2,S,4.0
S4,41.0,23.0,23.0,26.0,17.0,26,1160.0,square3,j,0.03,2,S,4.0
S4,42.0,26.0,18.0,33.0,22.0,33,1193.0,square3,j,0.001,2,S,4.0
S4,43.0,22.0,21.0,36.0,25.0,21,1214.0,square2,i,0.147,1,S,4.0
S4,44.0,21.0,18.0,33.0,14.0,33,1247.0,square3,j,0.131,2,S,4.0
S4,45.0,29.0,19.0,30.0,29.0,30,1277.0,square3,j,0.116,2,S,4.0
S4,46.0,21.0,16.0,22.0,23.0,21,1298.0,square1,f,0.062,0,S,4.0
S4,47.0,22.0,18.0,28.0,22.0,28,1326.0,square3,j,0.061,2,S,4.0
S4,48.0,33.0,21.0,32.0,26.0,32,1358.0,square3,j,0.132,2,S,4.0
S4,49.0,23.0,17.0,20.0,21.0,20,1378.0,square3,j,0.298,2,S,4.0
S10,0.0,72.0,76.0,80.0,64.0,72,72.0,square1,r,0.765,0,S,10.0
S10,1.0,76.0,75.0,74.0,65.0,65,137.0,square4,i,0.187,3,S,10.0
S10,2.0,70.0,72.0,79.0,74.0,70,207.0,square1,r,0.432,0,S,10.0
S10,3.0,69.0,77.0,76.0,68.0,69,276.0,square1,r,0.266,0,S,10.0
S10,4.0,72.0,79.0,77.0,70.0,70,346.0,square4,i,0.315,3,S,10.0
S10,5.0,68.0,74.0,72.0,64.0,64,410.0,square4,i,0.202,3,S,10.0
S10,6.0,70.0,77.0,72.0,62.0,62,472.0,square4,i,0.019,3,S,10.0
S10,7.0,78.0,81.0,80.0,74.0,81,553.0,square2,j,0.315,1,S,10.0
S10,8.0,78.0,78.0,82.0,66.0,82,635.0,square3,f,0.264,2,S,10.0
S10,9.0,69.0,76.0,77.0,65.0,77,712.0,square3,f,0.38,2,S,10.0
S10,10.0,72.0,78.0,72.0,75.0,78,790.0,square2,j,0.265,1,S,10.0
S10,11.0,71.0,76.0,78.0,66.0,78,868.0,square3,f,0.68,2,S,10.0
S10,12.0,73.0,83.0,79.0,69.0,83,951.0,square2,j,0.182,1,S,10.0
S10,13.0,68.0,77.0,65.0,65.0,65,1016.0,square3,f,0.403,2,S,10.0
S10,14.0,69.0,84.0,79.0,65.0,84,1100.0,square2,j,0.462,1,S,10.0
S10,15.0,72.0,84.0,70.0,71.0,84,1184.0,square2,j,0.021,1,S,10.0
S10,16.0,79.0,80.0,82.0,67.0,80,1264.0,square2,j,0.18,1,S,10.0
S10,17.0,69.0,83.0,75.0,70.0,83,1347.0,square2,j,0.117,1,S,10.0
S10,18.0,69.0,75.0,69.0,68.0,69,1416.0,square1,r,0.081,0,S,10.0
S10,19.0,70.0,83.0,73.0,66.0,66,1482.0,square4,i,0.051,3,S,10.0
S10,20.0,69.0,83.0,75.0,66.0,75,1557.0,square3,f,0.022,2,S,10.0
S10,21.0,77.0,70.0,75.0,70.0,70,1627.0,square2,j,0.139,1,S,10.0
S10,22.0,73.0,77.0,81.0,69.0,81,1708.0,square3,f,0.334,2,S,10.0
S10,23.0,73.0,78.0,70.0,65.0,78,1786.0,square2,j,0.234,1,S,10.0
S10,24.0,70.0,80.0,75.0,66.0,80,1866.0,square2,j,0.035,1,S,10.0
S10,25.0,70.0,80.0,73.0,72.0,73,1939.0,square3,f,0.188,2,S,10.0
S10,26.0,73.0,75.0,73.0,75.0,73,2012.0,square3,f,0.0,2,S,10.0
S10,27.0,77.0,81.0,83.0,66.0,83,2095.0,square3,f,0.032,2,S,10.0
S10,28.0,73.0,79.0,79.0,73.0,79,2174.0,square2,j,0.155,1,S,10.0
S10,29.0,73.0,79.0,72.0,69.0,79,2253.0,square2,j,0.154,1,S,10.0
S10,30.0,71.0,85.0,79.0,69.0,85,2338.0,square2,j,0.03,1,S,10.0
S10,31.0,71.0,85.0,83.0,66.0,85,2423.0,square2,j,0.019,1,S,10.0
S10,32.0,78.0,79.0,77.0,65.0,79,2502.0,square2,j,0.0,1,S,10.0
S10,33.0,83.0,79.0,72.0,68.0,79,2581.0,square2,j,0.189,1,S,10.0
S10,34.0,68.0,74.0,79.0,72.0,74,2655.0,square2,j,0.18,1,S,10.0
S10,35.0,70.0,83.0,79.0,67.0,83,2738.0,square2,j,0.217,1,S,10.0
S10,36.0,67.0,76.0,75.0,72.0,76,2814.0,square2,j,0.189,1,S,10.0
S10,37.0,76.0,82.0,79.0,60.0,82,2896.0,square2,j,0.032,1,S,10.0
S10,38.0,72.0,75.0,69.0,68.0,75,2971.0,square2,j,0.012,1,S,10.0
S10,39.0,73.0,78.0,76.0,70.0,78,3049.0,square2,j,0.2,1,S,10.0
S10,40.0,76.0,77.0,66.0,60.0,77,3126.0,square2,j,0.0,1,S,10.0
S10,41.0,74.0,83.0,73.0,67.0,83,3209.0,square2,j,0.186,1,S,10.0
S10,42.0,72.0,69.0,80.0,63.0,69,3278.0,square2,j,0.001,1,S,10.0
S10,43.0,69.0,74.0,72.0,68.0,74,3352.0,square2,j,0.182,1,S,10.0
S10,44.0,67.0,76.0,70.0,65.0,76,3428.0,square2,j,0.11,1,S,10.0
S10,45.0,76.0,81.0,74.0,72.0,81,3509.0,square2,j,0.087,1,S,10.0
S10,46.0,76.0,79.0,76.0,66.0,79,3588.0,square2,j,0.13,1,S,10.0
S10,47.0,67.0,81.0,84.0,60.0,81,3669.0,square2,j,0.113,1,S,10.0
S10,48.0,73.0,83.0,75.0,66.0,83,3752.0,square2,j,0.086,1,S,10.0
S10,49.0,66.0,77.0,74.0,71.0,77,3829.0,square2,j,0.239,1,S,10.0
V10,0.0,28.0,21.0,37.0,46.0,46,46.0,square4,r,0.663,3,V,10.0
V10,1.0,26.0,19.0,41.0,49.0,19,65.0,square2,i,0.23,1,V,10.0
V10,2.0,29.0,20.0,43.0,48.0,29,94.0,square1,f,0.225,0,V,10.0
V10,3.0,27.0,27.0,37.0,44.0,37,131.0,square3,j,0.089,2,V,10.0
V10,4.0,28.0,16.0,36.0,47.0,47,178.0,square4,r,0.003,3,V,10.0
V10,5.0,33.0,25.0,42.0,54.0,54,232.0,square4,r,0.246,3,V,10.0
V10,6.0,28.0,19.0,35.0,45.0,45,277.0,square4,r,0.412,3,V,10.0
V10,7.0,30.0,24.0,35.0,49.0,49,326.0,square4,r,0.0,3,V,10.0
V10,8.0,37.0,29.0,41.0,47.0,41,367.0,square3,j,0.296,2,V,10.0
V10,9.0,28.0,21.0,41.0,48.0,48,415.0,square4,r,0.202,3,V,10.0
V10,10.0,27.0,22.0,39.0,42.0,42,457.0,square4,r,0.179,3,V,10.0
V10,11.0,32.0,16.0,41.0,48.0,48,505.0,square4,r,0.067,3,V,10.0
V10,12.0,34.0,15.0,33.0,49.0,49,554.0,square4,r,0.191,3,V,10.0
V10,13.0,36.0,19.0,41.0,45.0,45,599.0,square4,r,0.203,3,V,10.0
V10,14.0,28.0,23.0,35.0,53.0,53,652.0,square4,r,0.081,3,V,10.0
V10,15.0,26.0,28.0,40.0,50.0,50,702.0,square4,r,0.05,3,V,10.0
V10,16.0,30.0,25.0,42.0,47.0,47,749.0,square4,r,0.098,3,V,10.0
V10,17.0,31.0,19.0,38.0,50.0,50,799.0,square4,r,0.012,3,V,10.0
V10,18.0,34.0,21.0,35.0,48.0,48,847.0,square4,r,0.099,3,V,10.0
V10,19.0,31.0,24.0,39.0,46.0,46,893.0,square4,r,0.08,3,V,10.0
V10,20.0,28.0,22.0,42.0,47.0,47,940.0,square4,r,0.063,3,V,10.0
V10,21.0,24.0,20.0,41.0,47.0,47,987.0,square4,r,0.116,3,V,10.0
V10,22.0,32.0,22.0,34.0,44.0,44,1031.0,square4,r,0.044,3,V,10.0
V10,23.0,29.0,23.0,37.0,47.0,47,1078.0,square4,r,0.028,3,V,10.0
V10,24.0,25.0,25.0,38.0,46.0,46,1124.0,square4,r,0.148,3,V,10.0
V10,25.0,30.0,24.0,41.0,45.0,45,1169.0,square4,r,0.147,3,V,10.0
V10,26.0,32.0,17.0,38.0,49.0,38,1207.0,square3,j,0.115,2,V,10.0
V10,27.0,34.0,21.0,38.0,47.0,47,1254.0,square4,r,0.035,3,V,10.0
V10,28.0,29.0,21.0,37.0,45.0,45,1299.0,square4,r,0.037,3,V,10.0
V10,29.0,30.0,20.0,31.0,47.0,47,1346.0,square4,r,0.069,3,V,10.0
V10,30.0,28.0,21.0,35.0,44.0,44,1390.0,square4,r,0.148,3,V,10.0
V10,31.0,36.0,25.0,14.0,8.0,8,1398.0,square4,r,0.048,3,V,10.0
V10,32.0,38.0,27.0,19.0,11.0,19,1417.0,square3,j,1.08,2,V,10.0
V10,33.0,39.0,21.0,20.0,13.0,21,1438.0,square2,i,0.384,1,V,10.0
V10,34.0,34.0,24.0,20.0,10.0,34,1472.0,square1,f,0.303,0,V,10.0
V10,35.0,44.0,29.0,17.0,11.0,11,1483.0,square4,r,0.485,3,V,10.0
V10,36.0,33.0,30.0,17.0,9.0,17,1500.0,square3,j,0.133,2,V,10.0
V10,37.0,31.0,27.0,12.0,6.0,27,1527.0,square2,i,0.047,1,V,10.0
V10,38.0,34.0,29.0,15.0,10.0,34,1561.0,square1,f,0.717,0,V,10.0
V10,39.0,35.0,21.0,19.0,5.0,21,1582.0,square2,i,0.149,1,V,10.0
V10,40.0,32.0,26.0,18.0,6.0,32,1614.0,square1,f,0.218,0,V,10.0
V10,41.0,34.0,32.0,13.0,9.0,34,1648.0,square1,f,0.029,0,V,10.0
V10,42.0,35.0,30.0,16.0,8.0,35,1683.0,square1,f,0.084,0,V,10.0
V10,43.0,38.0,32.0,16.0,8.0,38,1721.0,square1,f,0.104,0,V,10.0
V10,44.0,34.0,20.0,18.0,3.0,34,1755.0,square1,f,0.015,0,V,10.0
V10,45.0,38.0,22.0,23.0,9.0,38,1793.0,square1,f,0.096,0,V,10.0
V10,46.0,36.0,28.0,16.0,10.0,36,1829.0,square1,f,0.249,0,V,10.0
V10,47.0,36.0,27.0,13.0,8.0,36,1865.0,square1,f,0.095,0,V,10.0
V10,48.0,35.0,27.0,14.0,12.0,35,1900.0,square1,f,0.284,0,V,10.0
V10,49.0,33.0,28.0,16.0,10.0,33,1933.0,square1,f,0.146,0,V,10.0
V10,50.0,31.0,29.0,19.0,8.0,31,1964.0,square1,f,0.15,0,V,10.0
V10,51.0,32.0,21.0,20.0,12.0,32,1996.0,square1,f,0.217,0,V,10.0
V10,52.0,29.0,25.0,21.0,10.0,29,2025.0,square1,f,0.028,0,V,10.0
V10,53.0,39.0,29.0,23.0,2.0,39,2064.0,square1,f,0.13,0,V,10.0
V10,54.0,33.0,28.0,19.0,7.0,33,2097.0,square1,f,0.083,0,V,10.0
V10,55.0,34.0,24.0,15.0,8.0,34,2131.0,square1,f,0.217,0,V,10.0
V10,56.0,35.0,20.0,21.0,9.0,35,2166.0,square1,f,0.056,0,V,10.0
V10,57.0,33.0,27.0,19.0,7.0,33,2199.0,square1,f,0.019,0,V,10.0
V10,58.0,38.0,24.0,16.0,7.0,38,2237.0,square1,f,0.22,0,V,10.0
V10,59.0,34.0,29.0,15.0,5.0,34,2271.0,square1,f,0.214,0,V,10.0
V10,60.0,34.0,22.0,19.0,9.0,34,2305.0,square1,f,0.167,0,V,10.0
V10,61.0,39.0,31.0,20.0,10.0,39,2344.0,square1,f,0.119,0,V,10.0
V10,62.0,35.0,24.0,18.0,6.0,35,2379.0,square1,f,0.238,0,V,10.0
V10,63.0,35.0,26.0,18.0,9.0,35,2414.0,square1,f,0.269,0,V,10.0
V10,64.0,31.0,55.0,23.0,23.0,31,2445.0,square1,f,0.003,0,V,10.0
V10,65.0,35.0,50.0,22.0,27.0,35,2480.0,square1,f,0.02,0,V,10.0
V10,66.0,35.0,53.0,25.0,29.0,35,2515.0,square1,f,0.435,0,V,10.0
V10,67.0,38.0,44.0,17.0,29.0,38,2553.0,square1,f,0.0,0,V,10.0
V10,68.0,36.0,48.0,22.0,27.0,48,2601.0,square2,i,0.047,1,V,10.0
V10,69.0,41.0,53.0,17.0,28.0,28,2629.0,square4,r,0.634,3,V,10.0
V10,70.0,40.0,48.0,23.0,28.0,23,2652.0,square3,j,0.051,2,V,10.0
V10,71.0,39.0,43.0,24.0,20.0,39,2691.0,square1,f,0.106,0,V,10.0
V10,72.0,36.0,49.0,19.0,25.0,49,2740.0,square2,i,0.147,1,V,10.0
V10,73.0,39.0,49.0,23.0,32.0,49,2789.0,square2,i,0.184,1,V,10.0
V10,74.0,36.0,44.0,17.0,29.0,44,2833.0,square2,i,0.153,1,V,10.0
V10,75.0,37.0,46.0,20.0,30.0,46,2879.0,square2,i,0.164,1,V,10.0
V10,76.0,38.0,47.0,23.0,30.0,47,2926.0,square2,i,0.053,1,V,10.0
V10,77.0,36.0,49.0,22.0,32.0,49,2975.0,square2,i,0.001,1,V,10.0
V10,78.0,41.0,44.0,19.0,27.0,44,3019.0,square2,i,0.201,1,V,10.0
V10,79.0,41.0,48.0,22.0,27.0,48,3067.0,square2,i,0.201,1,V,10.0
V10,80.0,34.0,44.0,26.0,29.0,44,3111.0,square2,i,0.099,1,V,10.0
V10,81.0,38.0,47.0,18.0,29.0,47,3158.0,square2,i,0.047,1,V,10.0
V10,82.0,43.0,43.0,23.0,28.0,43,3201.0,square2,i,0.113,1,V,10.0
V10,83.0,34.0,51.0,23.0,26.0,51,3252.0,square2,i,0.03,1,V,10.0
V10,84.0,36.0,46.0,18.0,25.0,46,3298.0,square2,i,0.078,1,V,10.0
V10,85.0,39.0,46.0,25.0,26.0,46,3344.0,square2,i,0.002,1,V,10.0
V10,86.0,39.0,50.0,27.0,27.0,50,3394.0,square2,i,0.117,1,V,10.0
V10,87.0,38.0,46.0,20.0,30.0,46,3440.0,square2,i,0.064,1,V,10.0
V10,88.0,37.0,49.0,22.0,28.0,49,3489.0,square2,i,0.08,1,V,10.0
V10,89.0,34.0,51.0,25.0,26.0,51,3540.0,square2,i,0.121,1,V,10.0
V10,90.0,41.0,49.0,22.0,29.0,49,3589.0,square2,i,0.081,1,V,10.0
V10,91.0,37.0,45.0,26.0,32.0,45,3634.0,square2,i,0.029,1,V,10.0
V10,92.0,42.0,42.0,27.0,28.0,42,3676.0,square2,i,0.319,1,V,10.0
V10,93.0,41.0,48.0,19.0,36.0,48,3724.0,square2,i,0.149,1,V,10.0
V10,94.0,43.0,49.0,23.0,31.0,43,3767.0,square1,f,0.068,0,V,10.0
V10,95.0,39.0,46.0,18.0,27.0,46,3813.0,square2,i,0.001,1,V,10.0
V10,96.0,37.0,48.0,24.0,27.0,48,3861.0,square2,i,0.055,1,V,10.0
V10,97.0,42.0,50.0,23.0,31.0,50,3911.0,square2,i,0.081,1,V,10.0
V10,98.0,33.0,47.0,25.0,32.0,47,3958.0,square2,i,0.005,1,V,10.0
V10,99.0,39.0,48.0,23.0,32.0,48,4006.0,square2,i,0.01,1,V,10.0
V9,0.0,20.0,29.0,37.0,45.0,45,45.0,square4,j,1.6,3,V,9.0
V9,1.0,21.0,32.0,39.0,45.0,45,90.0,square4,j,0.265,3,V,9.0
V9,2.0,16.0,27.0,41.0,48.0,27,117.0,square2,f,0.314,1,V,9.0
V9,3.0,20.0,30.0,42.0,50.0,42,159.0,square3,i,0.155,2,V,9.0
V9,4.0,22.0,34.0,37.0,47.0,22,181.0,square1,r,0.166,0,V,9.0
V9,5.0,17.0,32.0,38.0,49.0,38,219.0,square3,i,0.01,2,V,9.0
V9,6.0,17.0,25.0,39.0,47.0,47,266.0,square4,j,0.151,3,V,9.0
V9,7.0,22.0,28.0,33.0,48.0,48,314.0,square4,j,0.02,3,V,9.0
V9,8.0,20.0,24.0,34.0,41.0,41,355.0,square4,j,0.001,3,V,9.0
V9,9.0,20.0,33.0,30.0,51.0,51,406.0,square4,j,0.055,3,V,9.0
V9,10.0,21.0,35.0,38.0,50.0,50,456.0,square4,j,0.198,3,V,9.0
V9,11.0,19.0,29.0,44.0,45.0,45,501.0,square4,j,0.009,3,V,9.0
V9,12.0,27.0,24.0,38.0,54.0,54,555.0,square4,j,0.111,3,V,9.0
V9,13.0,15.0,26.0,37.0,50.0,50,605.0,square4,j,0.001,3,V,9.0
V9,14.0,24.0,26.0,39.0,42.0,42,647.0,square4,j,0.136,3,V,9.0
V9,15.0,26.0,27.0,43.0,49.0,49,696.0,square4,j,0.152,3,V,9.0
V9,16.0,19.0,30.0,42.0,49.0,49,745.0,square4,j,0.265,3,V,9.0
V9,17.0,21.0,30.0,34.0,49.0,49,794.0,square4,j,0.186,3,V,9.0
V9,18.0,25.0,33.0,41.0,51.0,51,845.0,square4,j,0.012,3,V,9.0
V9,19.0,17.0,31.0,41.0,45.0,45,890.0,square4,j,0.064,3,V,9.0
V9,20.0,19.0,31.0,34.0,49.0,49,939.0,square4,j,0.183,3,V,9.0
V9,21.0,23.0,29.0,37.0,48.0,48,987.0,square4,j,0.044,3,V,9.0
V9,22.0,15.0,32.0,36.0,48.0,48,1035.0,square4,j,0.184,3,V,9.0
V9,23.0,25.0,33.0,39.0,47.0,47,1082.0,square4,j,0.15,3,V,9.0
V9,24.0,21.0,30.0,38.0,52.0,30,1112.0,square2,f,0.096,1,V,9.0
V9,25.0,25.0,29.0,42.0,48.0,42,1154.0,square3,i,0.012,2,V,9.0
V9,26.0,22.0,29.0,39.0,47.0,47,1201.0,square4,j,0.098,3,V,9.0
V9,27.0,17.0,31.0,45.0,41.0,41,1242.0,square4,j,0.028,3,V,9.0
V9,28.0,29.0,28.0,43.0,43.0,43,1285.0,square4,j,0.203,3,V,9.0
V9,29.0,20.0,31.0,43.0,49.0,49,1334.0,square4,j,0.136,3,V,9.0
V9,30.0,23.0,33.0,39.0,48.0,48,1382.0,square4,j,0.162,3,V,9.0
V9,31.0,20.0,27.0,38.0,53.0,53,1435.0,square4,j,0.01,3,V,9.0
V9,32.0,23.0,29.0,37.0,49.0,49,1484.0,square4,j,0.114,3,V,9.0
V9,33.0,24.0,33.0,37.0,49.0,49,1533.0,square4,j,0.054,3,V,9.0
V9,34.0,43.0,58.0,48.0,30.0,30,1563.0,square4,j,0.022,3,V,9.0
V9,35.0,48.0,59.0,45.0,34.0,34,1597.0,square4,j,0.654,3,V,9.0
V9,36.0,39.0,56.0,54.0,32.0,54,1651.0,square3,i,0.105,2,V,9.0
V9,37.0,40.0,57.0,50.0,35.0,57,1708.0,square2,f,0.056,1,V,9.0
V9,38.0,49.0,62.0,51.0,33.0,51,1759.0,square3,i,0.364,2,V,9.0
V9,39.0,45.0,61.0,48.0,34.0,48,1807.0,square3,i,0.217,2,V,9.0
V9,40.0,40.0,65.0,51.0,29.0,65,1872.0,square2,f,0.001,1,V,9.0
V9,41.0,44.0,57.0,50.0,38.0,57,1929.0,square2,f,0.047,1,V,9.0
V9,42.0,40.0,57.0,49.0,33.0,40,1969.0,square1,r,0.015,0,V,9.0
V9,43.0,42.0,64.0,54.0,35.0,64,2033.0,square2,f,0.064,1,V,9.0
V9,44.0,44.0,55.0,49.0,39.0,55,2088.0,square2,f,0.029,1,V,9.0
V9,45.0,37.0,66.0,51.0,35.0,66,2154.0,square2,f,0.03,1,V,9.0
V9,46.0,40.0,59.0,51.0,32.0,59,2213.0,square2,f,0.134,1,V,9.0
V9,47.0,38.0,62.0,57.0,31.0,62,2275.0,square2,f,0.163,1,V,9.0
V9,48.0,43.0,61.0,54.0,34.0,61,2336.0,square2,f,0.05,1,V,9.0
V9,49.0,43.0,61.0,49.0,40.0,61,2397.0,square2,f,0.201,1,V,9.0
V9,50.0,37.0,58.0,51.0,32.0,58,2455.0,square2,f,0.169,1,V,9.0
V9,51.0,44.0,63.0,48.0,39.0,63,2518.0,square2,f,0.062,1,V,9.0
V9,52.0,35.0,65.0,48.0,30.0,65,2583.0,square2,f,0.053,1,V,9.0
V9,53.0,43.0,59.0,48.0,39.0,59,2642.0,square2,f,0.231,1,V,9.0
V9,54.0,43.0,59.0,52.0,30.0,59,2701.0,square2,f,0.121,1,V,9.0
V9,55.0,41.0,58.0,51.0,34.0,58,2759.0,square2,f,0.117,1,V,9.0
V9,56.0,44.0,63.0,50.0,33.0,63,2822.0,square2,f,0.133,1,V,9.0
V9,57.0,42.0,60.0,49.0,32.0,60,2882.0,square2,f,0.145,1,V,9.0
V9,58.0,44.0,62.0,57.0,30.0,62,2944.0,square2,f,0.166,1,V,9.0
V9,59.0,45.0,61.0,45.0,31.0,61,3005.0,square2,f,0.155,1,V,9.0
V9,60.0,43.0,63.0,53.0,33.0,63,3068.0,square2,f,0.08,1,V,9.0
V9,61.0,39.0,56.0,55.0,31.0,56,3124.0,square2,f,0.003,1,V,9.0
V9,62.0,39.0,61.0,50.0,34.0,61,3185.0,square2,f,0.099,1,V,9.0
V9,63.0,44.0,57.0,48.0,36.0,57,3242.0,square2,f,0.185,1,V,9.0
V9,64.0,40.0,60.0,58.0,35.0,60,3302.0,square2,f,0.081,1,V,9.0
V9,65.0,42.0,60.0,54.0,38.0,60,3362.0,square2,f,0.224,1,V,9.0
V9,66.0,41.0,60.0,54.0,37.0,60,3422.0,square2,f,0.153,1,V,9.0
V9,67.0,43.0,61.0,54.0,40.0,61,3483.0,square2,f,0.028,1,V,9.0
V9,68.0,45.0,40.0,26.0,18.0,26,3509.0,square3,i,0.35,2,V,9.0
V9,69.0,50.0,41.0,29.0,20.0,50,3559.0,square1,r,0.037,0,V,9.0
V9,70.0,43.0,36.0,27.0,15.0,36,3595.0,square2,f,0.366,1,V,9.0
V9,71.0,44.0,40.0,28.0,18.0,40,3635.0,square2,f,0.266,1,V,9.0
V9,72.0,42.0,38.0,27.0,18.0,42,3677.0,square1,r,0.0,0,V,9.0
V9,73.0,46.0,33.0,25.0,19.0,33,3710.0,square2,f,0.345,1,V,9.0
V9,74.0,47.0,40.0,28.0,20.0,40,3750.0,square2,f,0.242,1,V,9.0
V9,75.0,39.0,39.0,27.0,25.0,39,3789.0,square1,r,0.118,0,V,9.0
V9,76.0,50.0,31.0,29.0,23.0,50,3839.0,square1,r,0.182,0,V,9.0
V9,77.0,44.0,37.0,28.0,13.0,44,3883.0,square1,r,0.144,0,V,9.0
V9,78.0,43.0,36.0,23.0,17.0,36,3919.0,square2,f,0.047,1,V,9.0
V9,79.0,42.0,36.0,28.0,24.0,36,3955.0,square2,f,0.064,1,V,9.0
V9,80.0,47.0,35.0,30.0,14.0,14,3969.0,square4,j,0.249,3,V,9.0
V9,81.0,46.0,33.0,29.0,18.0,18,3987.0,square4,j,0.088,3,V,9.0
V9,82.0,46.0,35.0,28.0,18.0,28,4015.0,square3,i,0.069,2,V,9.0
V9,83.0,47.0,41.0,32.0,15.0,32,4047.0,square3,i,0.13,2,V,9.0
V9,84.0,45.0,38.0,31.0,18.0,38,4085.0,square2,f,0.149,1,V,9.0
V9,85.0,42.0,35.0,30.0,21.0,35,4120.0,square2,f,0.044,1,V,9.0
V9,86.0,49.0,39.0,23.0,18.0,49,4169.0,square1,r,0.001,0,V,9.0
V9,87.0,49.0,39.0,27.0,16.0,49,4218.0,square1,r,0.167,0,V,9.0
V9,88.0,45.0,38.0,25.0,14.0,45,4263.0,square1,r,0.03,0,V,9.0
V9,89.0,45.0,32.0,28.0,19.0,45,4308.0,square1,r,0.096,0,V,9.0
V9,90.0,44.0,35.0,29.0,20.0,44,4352.0,square1,r,0.046,0,V,9.0
V9,91.0,42.0,38.0,32.0,16.0,42,4394.0,square1,r,0.1,0,V,9.0
V9,92.0,45.0,36.0,23.0,20.0,45,4439.0,square1,r,0.013,0,V,9.0
V9,93.0,45.0,35.0,26.0,18.0,45,4484.0,square1,r,0.004,0,V,9.0
V9,94.0,44.0,37.0,27.0,13.0,44,4528.0,square1,r,0.066,0,V,9.0
V9,95.0,46.0,36.0,25.0,20.0,46,4574.0,square1,r,0.105,0,V,9.0
V9,96.0,43.0,39.0,27.0,16.0,43,4617.0,square1,r,0.063,0,V,9.0
V9,97.0,48.0,39.0,30.0,16.0,48,4665.0,square1,r,0.131,0,V,9.0
V9,98.0,49.0,40.0,26.0,20.0,49,4714.0,square1,r,0.165,0,V,9.0
V9,99.0,49.0,41.0,27.0,18.0,49,4763.0,square1,r,0.183,0,V,9.0
V12,0.0,47.0,30.0,38.0,55.0,55,55.0,square4,r,0.913,3,V,12.0
V12,1.0,46.0,33.0,39.0,57.0,33,88.0,square2,i,0.031,1,V,12.0
V12,2.0,51.0,29.0,42.0,52.0,51,139.0,square1,f,0.084,0,V,12.0
V12,3.0,52.0,30.0,38.0,62.0,52,191.0,square1,f,0.038,0,V,12.0
V12,4.0,48.0,30.0,39.0,62.0,48,239.0,square1,f,0.095,0,V,12.0
V12,5.0,55.0,34.0,43.0,61.0,61,300.0,square4,r,0.186,3,V,12.0
V12,6.0,45.0,35.0,42.0,56.0,56,356.0,square4,r,0.153,3,V,12.0
V12,7.0,48.0,29.0,35.0,57.0,57,413.0,square4,r,0.181,3,V,12.0
V12,8.0,46.0,33.0,38.0,59.0,38,451.0,square3,j,0.129,2,V,12.0
V12,9.0,44.0,31.0,42.0,56.0,42,493.0,square3,j,0.046,2,V,12.0
V12,10.0,48.0,34.0,45.0,55.0,45,538.0,square3,j,0.101,2,V,12.0
V12,11.0,45.0,32.0,41.0,55.0,32,570.0,square2,i,0.317,1,V,12.0
V12,12.0,52.0,26.0,42.0,57.0,57,627.0,square4,r,0.013,3,V,12.0
V12,13.0,56.0,31.0,41.0,54.0,54,681.0,square4,r,0.029,3,V,12.0
V12,14.0,44.0,34.0,40.0,64.0,64,745.0,square4,r,0.084,3,V,12.0
V12,15.0,48.0,32.0,39.0,61.0,48,793.0,square1,f,0.149,0,V,12.0
V12,16.0,49.0,33.0,37.0,58.0,49,842.0,square1,f,0.004,0,V,12.0
V12,17.0,45.0,33.0,43.0,57.0,57,899.0,square4,r,0.135,3,V,12.0
V12,18.0,45.0,28.0,40.0,58.0,58,957.0,square4,r,0.0,3,V,12.0
V12,19.0,42.0,33.0,43.0,59.0,59,1016.0,square4,r,0.001,3,V,12.0
V12,20.0,46.0,30.0,38.0,62.0,62,1078.0,square4,r,0.084,3,V,12.0
V12,21.0,46.0,35.0,40.0,55.0,55,1133.0,square4,r,0.082,3,V,12.0
V12,22.0,46.0,34.0,36.0,63.0,63,1196.0,square4,r,0.12,3,V,12.0
V12,23.0,54.0,34.0,42.0,56.0,56,1252.0,square4,r,0.067,3,V,12.0
V12,24.0,44.0,30.0,41.0,59.0,59,1311.0,square4,r,0.063,3,V,12.0
V12,25.0,49.0,33.0,37.0,64.0,64,1375.0,square4,r,0.105,3,V,12.0
V12,26.0,52.0,34.0,39.0,57.0,57,1432.0,square4,r,0.112,3,V,12.0
V12,27.0,50.0,26.0,37.0,55.0,55,1487.0,square4,r,0.07,3,V,12.0
V12,28.0,41.0,29.0,46.0,21.0,21,1508.0,square4,r,0.213,3,V,12.0
V12,29.0,41.0,28.0,51.0,20.0,41,1549.0,square1,f,0.746,0,V,12.0
V12,30.0,32.0,31.0,46.0,22.0,31,1580.0,square2,i,0.23,1,V,12.0
V12,31.0,38.0,28.0,45.0,22.0,45,1625.0,square3,j,0.199,2,V,12.0
V12,32.0,35.0,27.0,44.0,16.0,35,1660.0,square1,f,0.268,0,V,12.0
V12,33.0,39.0,29.0,49.0,21.0,39,1699.0,square1,f,0.183,0,V,12.0
V12,34.0,39.0,28.0,49.0,15.0,49,1748.0,square3,j,0.261,2,V,12.0
V12,35.0,36.0,29.0,50.0,17.0,50,1798.0,square3,j,0.002,2,V,12.0
V12,36.0,41.0,28.0,48.0,12.0,28,1826.0,square2,i,0.012,1,V,12.0
V12,37.0,34.0,29.0,46.0,25.0,29,1855.0,square2,i,0.0,1,V,12.0
V12,38.0,38.0,28.0,51.0,19.0,19,1874.0,square4,r,0.201,3,V,12.0
V12,39.0,39.0,31.0,45.0,13.0,13,1887.0,square4,r,0.732,3,V,12.0
V12,40.0,35.0,28.0,46.0,26.0,46,1933.0,square3,j,0.0,2,V,12.0
V12,41.0,38.0,27.0,46.0,20.0,46,1979.0,square3,j,0.015,2,V,12.0
V12,42.0,40.0,26.0,50.0,23.0,50,2029.0,square3,j,0.113,2,V,12.0
V12,43.0,33.0,30.0,45.0,18.0,45,2074.0,square3,j,0.151,2,V,12.0
V12,44.0,39.0,31.0,46.0,22.0,46,2120.0,square3,j,0.151,2,V,12.0
V12,45.0,32.0,26.0,42.0,20.0,42,2162.0,square3,j,0.146,2,V,12.0
V12,46.0,36.0,29.0,43.0,24.0,43,2205.0,square3,j,0.034,2,V,12.0
V12,47.0,37.0,30.0,46.0,21.0,46,2251.0,square3,j,0.027,2,V,12.0
V12,48.0,37.0,27.0,44.0,19.0,44,2295.0,square3,j,0.201,2,V,12.0
V12,49.0,36.0,33.0,55.0,16.0,55,2350.0,square3,j,0.001,2,V,12.0
V12,50.0,45.0,28.0,44.0,18.0,44,2394.0,square3,j,0.043,2,V,12.0
V12,51.0,35.0,32.0,49.0,19.0,49,2443.0,square3,j,0.014,2,V,12.0
V12,52.0,36.0,56.0,31.0,52.0,31,2474.0,square3,j,0.224,2,V,12.0
V12,53.0,36.0,57.0,29.0,45.0,29,2503.0,square3,j,0.333,2,V,12.0
V12,54.0,38.0,61.0,28.0,51.0,38,2541.0,square1,f,0.083,0,V,12.0
V12,55.0,35.0,60.0,29.0,47.0,60,2601.0,square2,i,0.062,1,V,12.0
V12,56.0,34.0,62.0,29.0,46.0,62,2663.0,square2,i,0.073,1,V,12.0
V12,57.0,43.0,57.0,32.0,46.0,57,2720.0,square2,i,0.063,1,V,12.0
V12,58.0,40.0,59.0,32.0,50.0,59,2779.0,square2,i,0.081,1,V,12.0
V12,59.0,41.0,62.0,33.0,48.0,62,2841.0,square2,i,0.0,1,V,12.0
V12,60.0,36.0,61.0,32.0,49.0,61,2902.0,square2,i,0.131,1,V,12.0
V12,61.0,39.0,56.0,32.0,44.0,44,2946.0,square4,r,0.073,3,V,12.0
V12,62.0,39.0,57.0,30.0,46.0,46,2992.0,square4,r,0.096,3,V,12.0
V12,63.0,42.0,53.0,29.0,46.0,53,3045.0,square2,i,0.001,1,V,12.0
V12,64.0,35.0,57.0,32.0,50.0,57,3102.0,square2,i,0.12,1,V,12.0
V12,65.0,44.0,58.0,32.0,49.0,58,3160.0,square2,i,0.06,1,V,12.0
V12,66.0,44.0,56.0,29.0,52.0,56,3216.0,square2,i,0.001,1,V,12.0
V12,67.0,41.0,60.0,30.0,49.0,60,3276.0,square2,i,0.202,1,V,12.0
V12,68.0,42.0,58.0,32.0,45.0,58,3334.0,square2,i,0.168,1,V,12.0
V12,69.0,36.0,60.0,33.0,50.0,60,3394.0,square2,i,0.307,1,V,12.0
V12,70.0,36.0,57.0,27.0,46.0,57,3451.0,square2,i,0.147,1,V,12.0
V12,71.0,41.0,59.0,32.0,48.0,59,3510.0,square2,i,0.129,1,V,12.0
V12,72.0,34.0,59.0,31.0,49.0,59,3569.0,square2,i,0.139,1,V,12.0
V12,73.0,71.0,53.0,65.0,49.0,53,3622.0,square2,i,0.251,1,V,12.0
V12,74.0,69.0,49.0,63.0,45.0,49,3671.0,square2,i,0.162,1,V,12.0
V12,75.0,72.0,51.0,56.0,46.0,51,3722.0,square2,i,0.114,1,V,12.0
V12,76.0,72.0,48.0,58.0,43.0,48,3770.0,square2,i,0.188,1,V,12.0
V12,77.0,74.0,57.0,59.0,44.0,57,3827.0,square2,i,0.018,1,V,12.0
V12,78.0,69.0,55.0,63.0,50.0,55,3882.0,square2,i,0.048,1,V,12.0
V12,79.0,73.0,53.0,58.0,43.0,53,3935.0,square2,i,0.184,1,V,12.0
V12,80.0,71.0,47.0,65.0,40.0,47,3982.0,square2,i,0.216,1,V,12.0
V12,81.0,66.0,49.0,57.0,40.0,49,4031.0,square2,i,0.146,1,V,12.0
V12,82.0,71.0,53.0,57.0,48.0,53,4084.0,square2,i,0.148,1,V,12.0
V12,83.0,70.0,50.0,56.0,49.0,50,4134.0,square2,i,0.231,1,V,12.0
V12,84.0,69.0,45.0,64.0,43.0,45,4179.0,square2,i,0.215,1,V,12.0
V12,85.0,64.0,48.0,54.0,42.0,48,4227.0,square2,i,0.145,1,V,12.0
V12,86.0,71.0,49.0,63.0,44.0,49,4276.0,square2,i,0.246,1,V,12.0
V12,87.0,72.0,52.0,55.0,42.0,52,4328.0,square2,i,0.215,1,V,12.0
V12,88.0,64.0,48.0,59.0,44.0,48,4376.0,square2,i,0.229,1,V,12.0
V12,89.0,69.0,48.0,62.0,45.0,48,4424.0,square2,i,0.025,1,V,12.0
V12,90.0,68.0,56.0,60.0,42.0,56,4480.0,square2,i,0.038,1,V,12.0
V12,91.0,69.0,52.0,62.0,45.0,52,4532.0,square2,i,0.0,1,V,12.0
V12,92.0,65.0,50.0,64.0,47.0,50,4582.0,square2,i,0.014,1,V,12.0
V12,93.0,68.0,51.0,62.0,43.0,51,4633.0,square2,i,0.336,1,V,12.0
V12,94.0,68.0,52.0,60.0,38.0,52,4685.0,square2,i,0.15,1,V,12.0
V12,95.0,71.0,52.0,58.0,47.0,52,4737.0,square2,i,0.089,1,V,12.0
V12,96.0,66.0,49.0,59.0,44.0,49,4786.0,square2,i,0.065,1,V,12.0
V12,97.0,74.0,47.0,54.0,47.0,47,4833.0,square2,i,0.216,1,V,12.0
V12,98.0,68.0,43.0,64.0,41.0,41,4874.0,square4,r,0.082,3,V,12.0
V12,99.0,71.0,53.0,62.0,44.0,71,4945.0,square1,f,0.027,0,V,12.0
