block,Trial,square1,square2,square3,square4,currPoints,totalPoints,square,choiceKey.keys,choiceKey.rt,armNum,blockType,blockNum
prac,0.0,100.0,0.0,0.0,0.0,0,0.0,square3,,,2,p,0.0
prac,1.0,100.0,0.0,0.0,0.0,100,100.0,square1,,,0,p,0.0
prac,2.0,100.0,0.0,0.0,0.0,0,100.0,square2,,,1,p,0.0
prac,3.0,100.0,0.0,0.0,0.0,100,200.0,square1,,,0,p,0.0
prac,4.0,100.0,0.0,0.0,0.0,0,200.0,square4,,,3,p,0.0
prac,5.0,100.0,0.0,0.0,0.0,0,200.0,square3,,,2,p,0.0
prac,6.0,100.0,0.0,0.0,0.0,0,200.0,square2,,,1,p,0.0
prac,7.0,100.0,0.0,0.0,0.0,100,300.0,square1,,,0,p,0.0
prac,8.0,100.0,0.0,0.0,0.0,99999,300.0,invalid,,,-1,p,0.0
prac,9.0,100.0,0.0,0.0,0.0,99999,300.0,invalid,,,-1,p,0.0
V12,0.0,47.0,30.0,38.0,55.0,30,30.0,square2,f,1.3235,1,V,12.0
V12,1.0,46.0,33.0,39.0,57.0,39,69.0,square3,i,1.3337,2,V,12.0
V12,2.0,51.0,29.0,42.0,52.0,51,120.0,square1,r,0.9673,0,V,12.0
V12,3.0,52.0,30.0,38.0,62.0,62,182.0,square4,j,0.871,3,V,12.0
V12,4.0,48.0,30.0,39.0,62.0,48,230.0,square1,r,0.7066,0,V,12.0
V12,5.0,55.0,34.0,43.0,61.0,55,285.0,square1,r,1.2724,0,V,12.0
V12,6.0,45.0,35.0,42.0,56.0,45,330.0,square1,r,1.2126,0,V,12.0
V12,7.0,48.0,29.0,35.0,57.0,48,378.0,square1,r,1.2026,0,V,12.0
V12,8.0,46.0,33.0,38.0,59.0,38,416.0,square3,i,0.2742,2,V,12.0
V12,9.0,44.0,31.0,42.0,56.0,31,447.0,square2,f,0.2003,1,V,12.0
V12,10.0,48.0,34.0,45.0,55.0,48,495.0,square1,r,0.2175,0,V,12.0
V12,11.0,45.0,32.0,41.0,55.0,45,540.0,square1,r,0.2845,0,V,12.0
V12,12.0,52.0,26.0,42.0,57.0,26,566.0,square2,f,0.9086,1,V,12.0
V12,13.0,56.0,31.0,41.0,54.0,41,607.0,square3,i,0.5289,2,V,12.0
V12,14.0,44.0,34.0,40.0,64.0,44,651.0,square1,r,0.3225,0,V,12.0
V12,15.0,48.0,32.0,39.0,61.0,48,699.0,square1,r,0.6839,0,V,12.0
V12,16.0,49.0,33.0,37.0,58.0,49,748.0,square1,r,0.6115,0,V,12.0
V12,17.0,45.0,33.0,43.0,57.0,45,793.0,square1,r,0.3627,0,V,12.0
V12,18.0,45.0,28.0,40.0,58.0,45,838.0,square1,r,0.6264,0,V,12.0
V12,19.0,42.0,33.0,43.0,59.0,42,880.0,square1,r,0.3957,0,V,12.0
V12,20.0,46.0,30.0,38.0,62.0,46,926.0,square1,r,0.4187,0,V,12.0
V12,21.0,46.0,35.0,40.0,55.0,40,966.0,square3,i,1.6505,2,V,12.0
V12,22.0,46.0,34.0,36.0,63.0,63,1029.0,square4,j,0.4427,3,V,12.0
V12,23.0,54.0,34.0,42.0,56.0,56,1085.0,square4,j,0.3082,3,V,12.0
V12,24.0,44.0,30.0,41.0,59.0,59,1144.0,square4,j,0.3682,3,V,12.0
V12,25.0,49.0,33.0,37.0,64.0,64,1208.0,square4,j,0.3335,3,V,12.0
V12,26.0,52.0,34.0,39.0,57.0,57,1265.0,square4,j,0.2611,3,V,12.0
V12,27.0,50.0,26.0,37.0,55.0,55,1320.0,square4,j,0.2841,3,V,12.0
V12,28.0,41.0,29.0,46.0,21.0,41,1361.0,square1,r,0.5378,0,V,12.0
V12,29.0,41.0,28.0,51.0,20.0,20,1381.0,square4,j,0.313,3,V,12.0
V12,30.0,32.0,31.0,46.0,22.0,46,1427.0,square3,i,0.393,2,V,12.0
V12,31.0,38.0,28.0,45.0,22.0,28,1455.0,square2,f,0.8428,1,V,12.0
V12,32.0,35.0,27.0,44.0,16.0,44,1499.0,square3,i,0.2731,2,V,12.0
V12,33.0,39.0,29.0,49.0,21.0,49,1548.0,square3,i,0.3186,2,V,12.0
V12,34.0,39.0,28.0,49.0,15.0,39,1587.0,square1,r,0.5059,0,V,12.0
V12,35.0,36.0,29.0,50.0,17.0,50,1637.0,square3,i,0.3183,2,V,12.0
V12,36.0,41.0,28.0,48.0,12.0,48,1685.0,square3,i,0.3004,2,V,12.0
V12,37.0,34.0,29.0,46.0,25.0,46,1731.0,square3,i,0.4186,2,V,12.0
V12,38.0,38.0,28.0,51.0,19.0,19,1750.0,square4,j,0.4436,3,V,12.0
V12,39.0,39.0,31.0,45.0,13.0,45,1795.0,square3,i,0.3045,2,V,12.0
V12,40.0,35.0,28.0,46.0,26.0,46,1841.0,square3,i,0.3668,2,V,12.0
V12,41.0,38.0,27.0,46.0,20.0,38,1879.0,square1,r,0.3837,0,V,12.0
V12,42.0,40.0,26.0,50.0,23.0,50,1929.0,square3,i,0.2336,2,V,12.0
V12,43.0,33.0,30.0,45.0,18.0,45,1974.0,square3,i,0.362,2,V,12.0
V12,44.0,39.0,31.0,46.0,22.0,46,2020.0,square3,i,0.302,2,V,12.0
V12,45.0,32.0,26.0,42.0,20.0,42,2062.0,square3,i,0.0431,2,V,12.0
V12,46.0,36.0,29.0,43.0,24.0,43,2105.0,square3,i,0.2346,2,V,12.0
V12,47.0,37.0,30.0,46.0,21.0,46,2151.0,square3,i,0.2362,2,V,12.0
V12,48.0,37.0,27.0,44.0,19.0,44,2195.0,square3,i,0.2358,2,V,12.0
V12,49.0,36.0,33.0,55.0,16.0,55,2250.0,square3,i,0.2404,2,V,12.0
V12,50.0,45.0,28.0,44.0,18.0,44,2294.0,square3,i,0.2728,2,V,12.0
V12,51.0,35.0,32.0,49.0,19.0,32,2326.0,square2,f,0.4666,1,V,12.0
V12,52.0,36.0,56.0,31.0,52.0,31,2357.0,square3,i,0.5688,2,V,12.0
V12,53.0,36.0,57.0,29.0,45.0,45,2402.0,square4,j,0.2555,3,V,12.0
V12,54.0,38.0,61.0,28.0,51.0,38,2440.0,square1,r,0.4674,0,V,12.0
V12,55.0,35.0,60.0,29.0,47.0,47,2487.0,square4,j,0.2927,3,V,12.0
V12,56.0,34.0,62.0,29.0,46.0,46,2533.0,square4,j,0.3092,3,V,12.0
V12,57.0,43.0,57.0,32.0,46.0,46,2579.0,square4,j,0.2504,3,V,12.0
V12,58.0,40.0,59.0,32.0,50.0,50,2629.0,square4,j,0.2628,3,V,12.0
V12,59.0,41.0,62.0,33.0,48.0,48,2677.0,square4,j,0.2837,3,V,12.0
V12,60.0,36.0,61.0,32.0,49.0,49,2726.0,square4,j,0.8435,3,V,12.0
V12,61.0,39.0,56.0,32.0,44.0,44,2770.0,square4,j,0.2591,3,V,12.0
V12,62.0,39.0,57.0,30.0,46.0,46,2816.0,square4,j,0.3446,3,V,12.0
V12,63.0,42.0,53.0,29.0,46.0,99999,2816.0,invalid,,,-1,V,12.0
V12,64.0,35.0,57.0,32.0,50.0,32,2848.0,square3,i,0.4066,2,V,12.0
V12,65.0,44.0,58.0,32.0,49.0,49,2897.0,square4,j,0.4019,3,V,12.0
V12,66.0,44.0,56.0,29.0,52.0,52,2949.0,square4,j,0.4003,3,V,12.0
V12,67.0,41.0,60.0,30.0,49.0,49,2998.0,square4,j,0.5083,3,V,12.0
V12,68.0,42.0,58.0,32.0,45.0,45,3043.0,square4,j,0.2852,3,V,12.0
V12,69.0,36.0,60.0,33.0,50.0,36,3079.0,square1,r,0.1355,0,V,12.0
V12,70.0,36.0,57.0,27.0,46.0,57,3136.0,square2,f,0.3337,1,V,12.0
V12,71.0,41.0,59.0,32.0,48.0,59,3195.0,square2,f,0.3337,1,V,12.0
V12,72.0,34.0,59.0,31.0,49.0,59,3254.0,square2,f,0.2846,1,V,12.0
V12,73.0,71.0,53.0,65.0,49.0,53,3307.0,square2,f,0.275,1,V,12.0
V12,74.0,69.0,49.0,63.0,45.0,63,3370.0,square3,i,0.5882,2,V,12.0
V12,75.0,72.0,51.0,56.0,46.0,56,3426.0,square3,i,0.4333,2,V,12.0
V12,76.0,72.0,48.0,58.0,43.0,58,3484.0,square3,i,0.4331,2,V,12.0
V12,77.0,74.0,57.0,59.0,44.0,59,3543.0,square3,i,0.7192,2,V,12.0
V12,78.0,69.0,55.0,63.0,50.0,63,3606.0,square3,i,0.3219,2,V,12.0
V12,79.0,73.0,53.0,58.0,43.0,58,3664.0,square3,i,0.4115,2,V,12.0
V12,80.0,71.0,47.0,65.0,40.0,65,3729.0,square3,i,0.347,2,V,12.0
V12,81.0,66.0,49.0,57.0,40.0,57,3786.0,square3,i,0.2865,2,V,12.0
V12,82.0,71.0,53.0,57.0,48.0,57,3843.0,square3,i,0.3999,2,V,12.0
V12,83.0,70.0,50.0,56.0,49.0,56,3899.0,square3,i,0.3516,2,V,12.0
V12,84.0,69.0,45.0,64.0,43.0,45,3944.0,square2,f,0.9219,1,V,12.0
V12,85.0,64.0,48.0,54.0,42.0,64,4008.0,square1,r,0.5003,0,V,12.0
V12,86.0,71.0,49.0,63.0,44.0,71,4079.0,square1,r,0.2838,0,V,12.0
V12,87.0,72.0,52.0,55.0,42.0,72,4151.0,square1,r,0.3202,0,V,12.0
V12,88.0,64.0,48.0,59.0,44.0,64,4215.0,square1,r,0.3024,0,V,12.0
V12,89.0,69.0,48.0,62.0,45.0,69,4284.0,square1,r,0.3,0,V,12.0
V12,90.0,68.0,56.0,60.0,42.0,68,4352.0,square1,r,0.4171,0,V,12.0
V12,91.0,69.0,52.0,62.0,45.0,69,4421.0,square1,r,0.6007,0,V,12.0
V12,92.0,65.0,50.0,64.0,47.0,65,4486.0,square1,r,0.3439,0,V,12.0
V12,93.0,68.0,51.0,62.0,43.0,68,4554.0,square1,r,0.4674,0,V,12.0
V12,94.0,68.0,52.0,60.0,38.0,68,4622.0,square1,r,0.2405,0,V,12.0
V12,95.0,71.0,52.0,58.0,47.0,71,4693.0,square1,r,0.2681,0,V,12.0
V12,96.0,66.0,49.0,59.0,44.0,66,4759.0,square1,r,0.2903,0,V,12.0
V12,97.0,74.0,47.0,54.0,47.0,74,4833.0,square1,r,0.2731,0,V,12.0
V12,98.0,68.0,43.0,64.0,41.0,68,4901.0,square1,r,0.2523,0,V,12.0
V12,99.0,71.0,53.0,62.0,44.0,71,4972.0,square1,r,0.2049,0,V,12.0
V4,0.0,63.0,38.0,47.0,55.0,55,55.0,square4,i,1.1699,3,V,4.0
V4,1.0,66.0,42.0,43.0,59.0,59,114.0,square4,i,0.6714,3,V,4.0
V4,2.0,66.0,39.0,57.0,59.0,59,173.0,square4,i,0.3339,3,V,4.0
V4,3.0,66.0,37.0,51.0,59.0,59,232.0,square4,i,0.4201,3,V,4.0
V4,4.0,69.0,37.0,50.0,55.0,55,287.0,square4,i,0.3005,3,V,4.0
V4,5.0,64.0,44.0,46.0,62.0,62,349.0,square4,i,0.3193,3,V,4.0
V4,6.0,75.0,43.0,49.0,57.0,57,406.0,square4,i,0.3002,3,V,4.0
V4,7.0,62.0,41.0,52.0,59.0,59,465.0,square4,i,0.3338,3,V,4.0
V4,8.0,65.0,41.0,44.0,60.0,60,525.0,square4,i,0.3395,3,V,4.0
V4,9.0,68.0,35.0,44.0,64.0,64,589.0,square4,i,0.3345,3,V,4.0
V4,10.0,67.0,44.0,48.0,61.0,61,650.0,square4,i,0.3379,3,V,4.0
V4,11.0,61.0,40.0,48.0,56.0,56,706.0,square4,i,0.269,3,V,4.0
V4,12.0,68.0,41.0,49.0,55.0,49,755.0,square3,f,0.9619,2,V,4.0
V4,13.0,63.0,42.0,47.0,60.0,42,797.0,square2,r,0.305,1,V,4.0
V4,14.0,63.0,40.0,51.0,55.0,55,852.0,square4,i,0.3005,3,V,4.0
V4,15.0,62.0,41.0,52.0,62.0,62,914.0,square1,j,0.0008,0,V,4.0
V4,16.0,69.0,37.0,47.0,60.0,69,983.0,square1,j,0.2176,0,V,4.0
V4,17.0,66.0,40.0,48.0,56.0,66,1049.0,square1,j,0.2414,0,V,4.0
V4,18.0,67.0,43.0,47.0,59.0,67,1116.0,square1,j,0.3029,0,V,4.0
V4,19.0,64.0,42.0,51.0,59.0,64,1180.0,square1,j,0.1103,0,V,4.0
V4,20.0,67.0,40.0,47.0,58.0,67,1247.0,square1,j,0.3433,0,V,4.0
V4,21.0,60.0,41.0,50.0,59.0,60,1307.0,square1,j,0.0515,0,V,4.0
V4,22.0,66.0,43.0,54.0,55.0,66,1373.0,square1,j,0.2038,0,V,4.0
V4,23.0,67.0,37.0,50.0,62.0,67,1440.0,square1,j,0.1343,0,V,4.0
V4,24.0,67.0,37.0,49.0,60.0,67,1507.0,square1,j,0.2686,0,V,4.0
V4,25.0,67.0,39.0,55.0,52.0,67,1574.0,square1,j,0.1497,0,V,4.0
V4,26.0,64.0,39.0,51.0,63.0,64,1638.0,square1,j,0.1005,0,V,4.0
V4,27.0,68.0,36.0,55.0,60.0,68,1706.0,square1,j,0.2123,0,V,4.0
V4,28.0,67.0,40.0,46.0,54.0,67,1773.0,square1,j,0.389,0,V,4.0
V4,29.0,67.0,41.0,50.0,57.0,67,1840.0,square1,j,0.153,0,V,4.0
V4,30.0,66.0,39.0,49.0,53.0,66,1906.0,square1,j,0.0566,0,V,4.0
V4,31.0,70.0,38.0,48.0,58.0,70,1976.0,square1,j,0.217,0,V,4.0
V4,32.0,63.0,40.0,53.0,61.0,63,2039.0,square1,j,0.1343,0,V,4.0
V4,33.0,66.0,41.0,51.0,56.0,66,2105.0,square1,j,0.0502,0,V,4.0
V4,34.0,64.0,39.0,46.0,57.0,64,2169.0,square1,j,0.0835,0,V,4.0
V4,35.0,69.0,36.0,50.0,58.0,69,2238.0,square1,j,0.1503,0,V,4.0
V4,36.0,60.0,43.0,53.0,54.0,60,2298.0,square1,j,0.2118,0,V,4.0
V4,37.0,52.0,78.0,68.0,66.0,52,2350.0,square1,j,0.436,0,V,4.0
V4,38.0,44.0,81.0,68.0,62.0,81,2431.0,square2,r,0.3338,1,V,4.0
V4,39.0,59.0,71.0,70.0,63.0,71,2502.0,square2,r,0.4673,1,V,4.0
V4,40.0,53.0,77.0,73.0,59.0,77,2579.0,square2,r,0.2468,1,V,4.0
V4,41.0,53.0,76.0,74.0,66.0,76,2655.0,square2,r,0.1923,1,V,4.0
V4,42.0,51.0,79.0,73.0,59.0,79,2734.0,square2,r,0.1898,1,V,4.0
V4,43.0,48.0,76.0,68.0,65.0,76,2810.0,square2,r,0.1723,1,V,4.0
V4,44.0,57.0,83.0,78.0,63.0,83,2893.0,square2,r,0.1851,1,V,4.0
V4,45.0,54.0,74.0,69.0,61.0,74,2967.0,square2,r,0.2236,1,V,4.0
V4,46.0,53.0,85.0,66.0,62.0,85,3052.0,square2,r,0.2702,1,V,4.0
V4,47.0,56.0,83.0,68.0,57.0,83,3135.0,square2,r,0.247,1,V,4.0
V4,48.0,49.0,74.0,73.0,59.0,74,3209.0,square2,r,0.2837,1,V,4.0
V4,49.0,54.0,74.0,70.0,60.0,74,3283.0,square2,r,0.1864,1,V,4.0
V4,50.0,47.0,83.0,69.0,60.0,83,3366.0,square2,r,0.2674,1,V,4.0
V4,51.0,54.0,78.0,73.0,56.0,78,3444.0,square2,r,0.2689,1,V,4.0
V4,52.0,52.0,76.0,71.0,58.0,76,3520.0,square2,r,0.5348,1,V,4.0
V4,53.0,51.0,82.0,76.0,63.0,82,3602.0,square2,r,0.409,1,V,4.0
V4,54.0,57.0,76.0,69.0,64.0,76,3678.0,square2,r,0.2341,1,V,4.0
V4,55.0,49.0,75.0,68.0,59.0,75,3753.0,square2,r,0.3584,1,V,4.0
V4,56.0,55.0,81.0,66.0,65.0,81,3834.0,square2,r,0.4833,1,V,4.0
V4,57.0,58.0,80.0,72.0,63.0,80,3914.0,square2,r,0.2513,1,V,4.0
V4,58.0,49.0,81.0,66.0,62.0,81,3995.0,square2,r,0.2007,1,V,4.0
V4,59.0,57.0,78.0,73.0,59.0,78,4073.0,square2,r,0.2446,1,V,4.0
V4,60.0,48.0,79.0,66.0,59.0,79,4152.0,square2,r,0.1176,1,V,4.0
V4,61.0,53.0,80.0,72.0,60.0,80,4232.0,square2,r,0.8284,1,V,4.0
V4,62.0,53.0,79.0,70.0,61.0,79,4311.0,square2,r,0.2445,1,V,4.0
V4,63.0,81.0,66.0,90.0,66.0,66,4377.0,square2,r,0.2676,1,V,4.0
V4,64.0,80.0,64.0,85.0,76.0,64,4441.0,square2,r,0.0671,1,V,4.0
V4,65.0,77.0,61.0,92.0,74.0,61,4502.0,square2,r,0.0762,1,V,4.0
V4,66.0,89.0,65.0,91.0,73.0,73,4575.0,square4,i,0.1503,3,V,4.0
V4,67.0,86.0,64.0,92.0,70.0,70,4645.0,square4,i,0.2515,3,V,4.0
V4,68.0,82.0,60.0,91.0,77.0,77,4722.0,square4,i,0.1507,3,V,4.0
V4,69.0,78.0,69.0,90.0,70.0,70,4792.0,square4,i,0.2513,3,V,4.0
V4,70.0,85.0,64.0,95.0,73.0,64,4856.0,square2,r,0.4068,1,V,4.0
V4,71.0,85.0,61.0,88.0,69.0,88,4944.0,square3,f,0.2085,2,V,4.0
V4,72.0,86.0,63.0,87.0,75.0,87,5031.0,square3,f,0.2886,2,V,4.0
V4,73.0,86.0,69.0,92.0,70.0,92,5123.0,square3,f,0.2431,2,V,4.0
V4,74.0,81.0,62.0,90.0,69.0,90,5213.0,square3,f,0.2272,2,V,4.0
V4,75.0,83.0,66.0,88.0,74.0,88,5301.0,square3,f,0.2781,2,V,4.0
V4,76.0,80.0,64.0,92.0,75.0,80,5381.0,square1,j,0.2353,0,V,4.0
V4,77.0,81.0,65.0,91.0,74.0,74,5455.0,square4,i,0.109,3,V,4.0
V4,78.0,78.0,70.0,89.0,73.0,70,5525.0,square2,r,0.4455,1,V,4.0
V4,79.0,84.0,66.0,85.0,75.0,84,5609.0,square1,j,0.167,0,V,4.0
V4,80.0,83.0,65.0,93.0,74.0,83,5692.0,square1,j,0.3172,0,V,4.0
V4,81.0,86.0,59.0,91.0,74.0,86,5778.0,square1,j,0.237,0,V,4.0
V4,82.0,87.0,64.0,92.0,73.0,87,5865.0,square1,j,0.0009,0,V,4.0
V4,83.0,83.0,68.0,86.0,70.0,83,5948.0,square1,j,0.2175,0,V,4.0
V4,84.0,82.0,62.0,87.0,73.0,87,6035.0,square3,f,0.4767,2,V,4.0
V4,85.0,85.0,61.0,90.0,70.0,90,6125.0,square3,f,0.2443,2,V,4.0
V4,86.0,84.0,66.0,97.0,71.0,97,6222.0,square3,f,0.0341,2,V,4.0
V4,87.0,82.0,64.0,87.0,71.0,87,6309.0,square3,f,0.1851,2,V,4.0
V4,88.0,80.0,67.0,93.0,72.0,72,6381.0,square4,i,0.4942,3,V,4.0
V4,89.0,78.0,64.0,92.0,75.0,92,6473.0,square3,f,0.2793,2,V,4.0
V4,90.0,75.0,66.0,88.0,72.0,66,6539.0,square2,r,0.15,1,V,4.0
V4,91.0,82.0,59.0,91.0,76.0,91,6630.0,square3,f,0.0566,2,V,4.0
V4,92.0,84.0,62.0,91.0,70.0,91,6721.0,square3,f,0.3172,2,V,4.0
V4,93.0,80.0,61.0,94.0,76.0,80,6801.0,square1,j,0.1844,0,V,4.0
V4,94.0,83.0,64.0,88.0,72.0,88,6889.0,square3,f,0.1843,2,V,4.0
V4,95.0,82.0,60.0,94.0,69.0,94,6983.0,square3,f,0.3173,2,V,4.0
V4,96.0,84.0,63.0,92.0,72.0,92,7075.0,square3,f,0.3161,2,V,4.0
V4,97.0,84.0,62.0,85.0,70.0,85,7160.0,square3,f,0.3084,2,V,4.0
V4,98.0,81.0,64.0,93.0,72.0,81,7241.0,square1,j,0.3338,0,V,4.0
V4,99.0,80.0,61.0,92.0,75.0,75,7316.0,square4,i,0.2719,3,V,4.0
V8,0.0,49.0,55.0,64.0,74.0,64,64.0,square3,r,0.3789,2,V,8.0
V8,1.0,51.0,54.0,70.0,81.0,54,118.0,square2,i,0.3174,1,V,8.0
V8,2.0,46.0,62.0,70.0,77.0,46,164.0,square1,f,0.2006,0,V,8.0
V8,3.0,46.0,56.0,67.0,75.0,75,239.0,square4,j,0.0767,3,V,8.0
V8,4.0,50.0,59.0,67.0,83.0,83,322.0,square4,j,0.2428,3,V,8.0
V8,5.0,51.0,54.0,65.0,78.0,78,400.0,square4,j,0.1755,3,V,8.0
V8,6.0,45.0,57.0,66.0,80.0,80,480.0,square4,j,0.2167,3,V,8.0
V8,7.0,46.0,64.0,68.0,77.0,77,557.0,square4,j,0.2001,3,V,8.0
V8,8.0,50.0,57.0,66.0,73.0,73,630.0,square4,j,0.3172,3,V,8.0
V8,9.0,46.0,56.0,71.0,72.0,72,702.0,square4,j,0.2168,3,V,8.0
V8,10.0,56.0,58.0,67.0,75.0,75,777.0,square4,j,0.3001,3,V,8.0
V8,11.0,50.0,61.0,69.0,74.0,74,851.0,square4,j,0.5022,3,V,8.0
V8,12.0,59.0,59.0,69.0,77.0,59,910.0,square1,f,0.3104,0,V,8.0
V8,13.0,50.0,56.0,72.0,77.0,56,966.0,square2,i,0.2002,1,V,8.0
V8,14.0,48.0,55.0,65.0,80.0,65,1031.0,square3,r,0.7635,2,V,8.0
V8,15.0,48.0,58.0,65.0,76.0,76,1107.0,square4,j,0.4359,3,V,8.0
V8,16.0,49.0,58.0,67.0,75.0,75,1182.0,square4,j,0.4098,3,V,8.0
V8,17.0,51.0,56.0,68.0,76.0,76,1258.0,square4,j,0.5167,3,V,8.0
V8,18.0,52.0,63.0,69.0,80.0,80,1338.0,square4,j,0.3018,3,V,8.0
V8,19.0,54.0,54.0,71.0,79.0,79,1417.0,square4,j,0.3288,3,V,8.0
V8,20.0,48.0,53.0,62.0,77.0,77,1494.0,square4,j,0.2694,3,V,8.0
V8,21.0,44.0,61.0,66.0,77.0,77,1571.0,square4,j,0.3168,3,V,8.0
V8,22.0,52.0,58.0,64.0,78.0,78,1649.0,square4,j,0.284,3,V,8.0
V8,23.0,50.0,49.0,67.0,79.0,79,1728.0,square4,j,0.5289,3,V,8.0
V8,24.0,49.0,59.0,69.0,74.0,74,1802.0,square4,j,0.3007,3,V,8.0
V8,25.0,46.0,61.0,65.0,81.0,81,1883.0,square4,j,0.3012,3,V,8.0
V8,26.0,49.0,58.0,63.0,35.0,35,1918.0,square4,j,0.1093,3,V,8.0
V8,27.0,48.0,51.0,66.0,41.0,66,1984.0,square3,r,0.112,2,V,8.0
V8,28.0,46.0,55.0,65.0,38.0,55,2039.0,square2,i,0.9122,1,V,8.0
V8,29.0,47.0,58.0,69.0,40.0,47,2086.0,square1,f,0.087,0,V,8.0
V8,30.0,42.0,55.0,67.0,43.0,67,2153.0,square3,r,0.0007,2,V,8.0
V8,31.0,49.0,56.0,64.0,36.0,64,2217.0,square3,r,0.085,2,V,8.0
V8,32.0,49.0,55.0,69.0,38.0,69,2286.0,square3,r,0.3337,2,V,8.0
V8,33.0,44.0,52.0,65.0,48.0,65,2351.0,square3,r,0.0405,2,V,8.0
V8,34.0,44.0,57.0,70.0,45.0,70,2421.0,square3,r,0.254,2,V,8.0
V8,35.0,44.0,54.0,68.0,38.0,68,2489.0,square3,r,0.2795,2,V,8.0
V8,36.0,45.0,56.0,64.0,40.0,64,2553.0,square3,r,0.2457,2,V,8.0
V8,37.0,47.0,57.0,66.0,37.0,66,2619.0,square3,r,0.0751,2,V,8.0
V8,38.0,49.0,50.0,66.0,37.0,66,2685.0,square3,r,0.7061,2,V,8.0
V8,39.0,51.0,56.0,61.0,39.0,61,2746.0,square3,r,0.2773,2,V,8.0
V8,40.0,47.0,59.0,66.0,41.0,47,2793.0,square1,f,0.3427,0,V,8.0
V8,41.0,42.0,56.0,69.0,42.0,42,2835.0,square4,j,0.142,3,V,8.0
V8,42.0,47.0,57.0,72.0,35.0,57,2892.0,square2,i,0.6229,1,V,8.0
V8,43.0,47.0,57.0,63.0,44.0,63,2955.0,square3,r,0.0389,2,V,8.0
V8,44.0,45.0,58.0,67.0,42.0,67,3022.0,square3,r,0.0341,2,V,8.0
V8,45.0,44.0,56.0,66.0,43.0,66,3088.0,square3,r,0.0067,2,V,8.0
V8,46.0,46.0,53.0,70.0,37.0,70,3158.0,square3,r,0.1335,2,V,8.0
V8,47.0,54.0,53.0,71.0,41.0,71,3229.0,square3,r,0.1028,2,V,8.0
V8,48.0,49.0,53.0,69.0,37.0,69,3298.0,square3,r,0.2769,2,V,8.0
V8,49.0,39.0,57.0,65.0,47.0,65,3363.0,square3,r,0.0669,2,V,8.0
V8,50.0,48.0,55.0,65.0,41.0,65,3428.0,square3,r,0.129,2,V,8.0
V8,51.0,45.0,61.0,68.0,43.0,68,3496.0,square3,r,0.1867,2,V,8.0
V8,52.0,53.0,52.0,68.0,37.0,68,3564.0,square3,r,0.2561,2,V,8.0
V8,53.0,47.0,55.0,66.0,46.0,66,3630.0,square3,r,0.1913,2,V,8.0
V8,54.0,49.0,53.0,61.0,39.0,61,3691.0,square3,r,0.217,2,V,8.0
V8,55.0,53.0,70.0,55.0,72.0,70,3761.0,square2,i,0.3674,1,V,8.0
V8,56.0,57.0,63.0,48.0,73.0,63,3824.0,square2,i,0.337,1,V,8.0
V8,57.0,53.0,71.0,45.0,80.0,71,3895.0,square2,i,0.4832,1,V,8.0
V8,58.0,57.0,69.0,52.0,73.0,57,3952.0,square1,f,0.2381,0,V,8.0
V8,59.0,58.0,67.0,54.0,73.0,73,4025.0,square4,j,0.2747,3,V,8.0
V8,60.0,55.0,66.0,47.0,76.0,76,4101.0,square4,j,0.2506,3,V,8.0
V8,61.0,56.0,65.0,54.0,72.0,72,4173.0,square4,j,0.241,3,V,8.0
V8,62.0,56.0,65.0,49.0,75.0,75,4248.0,square4,j,0.0794,3,V,8.0
V8,63.0,61.0,65.0,44.0,78.0,78,4326.0,square4,j,0.2078,3,V,8.0
V8,64.0,54.0,66.0,48.0,75.0,75,4401.0,square4,j,0.2167,3,V,8.0
V8,65.0,59.0,65.0,46.0,79.0,79,4480.0,square4,j,0.1511,3,V,8.0
V8,66.0,51.0,62.0,46.0,73.0,73,4553.0,square4,j,0.1077,3,V,8.0
V8,67.0,60.0,70.0,45.0,76.0,76,4629.0,square4,j,0.3672,3,V,8.0
V8,68.0,63.0,64.0,47.0,73.0,73,4702.0,square4,j,0.0009,3,V,8.0
V8,69.0,58.0,66.0,43.0,77.0,77,4779.0,square4,j,0.1672,3,V,8.0
V8,70.0,59.0,65.0,49.0,73.0,73,4852.0,square4,j,0.7005,3,V,8.0
V8,71.0,60.0,64.0,49.0,79.0,79,4931.0,square4,j,0.0677,3,V,8.0
V8,72.0,96.0,68.0,78.0,67.0,67,4998.0,square4,j,0.2339,3,V,8.0
V8,73.0,96.0,68.0,79.0,64.0,64,5062.0,square4,j,0.3123,3,V,8.0
V8,74.0,92.0,67.0,81.0,62.0,67,5129.0,square2,i,0.2337,1,V,8.0
V8,75.0,96.0,72.0,83.0,62.0,72,5201.0,square2,i,0.3177,1,V,8.0
V8,76.0,94.0,70.0,77.0,57.0,70,5271.0,square2,i,0.2851,1,V,8.0
V8,77.0,91.0,68.0,81.0,59.0,81,5352.0,square3,r,0.2919,2,V,8.0
V8,78.0,90.0,73.0,80.0,63.0,80,5432.0,square3,r,0.2344,2,V,8.0
V8,79.0,90.0,73.0,83.0,61.0,83,5515.0,square3,r,0.1564,2,V,8.0
V8,80.0,95.0,75.0,81.0,66.0,81,5596.0,square3,r,0.2167,2,V,8.0
V8,81.0,92.0,72.0,81.0,57.0,81,5677.0,square3,r,0.3177,2,V,8.0
V8,82.0,91.0,71.0,80.0,61.0,80,5757.0,square3,r,0.2858,2,V,8.0
V8,83.0,90.0,66.0,83.0,62.0,90,5847.0,square1,f,0.2541,0,V,8.0
V8,84.0,93.0,67.0,87.0,65.0,93,5940.0,square1,f,0.2498,0,V,8.0
V8,85.0,85.0,70.0,80.0,62.0,85,6025.0,square1,f,0.0837,0,V,8.0
V8,86.0,84.0,72.0,85.0,62.0,62,6087.0,square4,j,1.0521,3,V,8.0
V8,87.0,91.0,68.0,82.0,65.0,68,6155.0,square2,i,0.5842,1,V,8.0
V8,88.0,93.0,67.0,83.0,61.0,83,6238.0,square3,r,0.2168,2,V,8.0
V8,89.0,95.0,68.0,78.0,66.0,78,6316.0,square3,r,0.3005,2,V,8.0
V8,90.0,91.0,73.0,80.0,60.0,91,6407.0,square1,f,0.4386,0,V,8.0
V8,91.0,93.0,68.0,81.0,64.0,93,6500.0,square1,f,0.261,0,V,8.0
V8,92.0,90.0,75.0,82.0,67.0,90,6590.0,square1,f,0.2372,0,V,8.0
V8,93.0,92.0,70.0,82.0,66.0,92,6682.0,square1,f,0.3168,0,V,8.0
V8,94.0,90.0,71.0,78.0,63.0,90,6772.0,square1,f,0.2212,0,V,8.0
V8,95.0,88.0,65.0,78.0,63.0,88,6860.0,square1,f,0.2102,0,V,8.0
V8,96.0,89.0,72.0,85.0,62.0,89,6949.0,square1,f,0.3174,0,V,8.0
V8,97.0,92.0,72.0,77.0,67.0,92,7041.0,square1,f,0.2528,0,V,8.0
V8,98.0,86.0,63.0,82.0,62.0,86,7127.0,square1,f,0.2434,0,V,8.0
V8,99.0,90.0,66.0,75.0,61.0,99999,7127.0,invalid,,,-1,V,8.0
NS12,0.0,80.0,24.0,40.0,79.0,24,24.0,square2,r,0.9172,1,N,12.0
NS12,1.0,78.0,28.0,44.0,78.0,44,68.0,square3,j,0.2932,2,N,12.0
NS12,2.0,77.0,28.0,37.0,82.0,82,150.0,square4,f,0.2143,3,N,12.0
NS12,3.0,76.0,33.0,39.0,82.0,82,232.0,square4,f,0.2841,3,N,12.0
NS12,4.0,79.0,37.0,34.0,78.0,78,310.0,square4,f,0.284,3,N,12.0
NS12,5.0,83.0,33.0,28.0,81.0,81,391.0,square4,f,0.219,3,N,12.0
NS12,6.0,77.0,39.0,33.0,80.0,80,471.0,square4,f,0.2289,3,N,12.0
NS12,7.0,77.0,40.0,25.0,85.0,85,556.0,square4,f,0.1889,3,N,12.0
NS12,8.0,77.0,40.0,29.0,87.0,87,643.0,square4,f,0.3843,3,N,12.0
NS12,9.0,70.0,42.0,29.0,88.0,88,731.0,square4,f,0.2849,3,N,12.0
NS12,10.0,65.0,47.0,31.0,86.0,86,817.0,square4,f,0.2363,3,N,12.0
NS12,11.0,67.0,46.0,26.0,84.0,84,901.0,square4,f,0.3506,3,N,12.0
NS12,12.0,67.0,36.0,26.0,84.0,84,985.0,square4,f,0.3173,3,N,12.0
NS12,13.0,69.0,33.0,23.0,82.0,82,1067.0,square4,f,0.501,3,N,12.0
NS12,14.0,66.0,35.0,20.0,81.0,81,1148.0,square4,f,0.3344,3,N,12.0
NS12,15.0,66.0,30.0,23.0,78.0,78,1226.0,square4,f,0.4288,3,N,12.0
NS12,16.0,69.0,28.0,17.0,74.0,69,1295.0,square1,i,0.1676,0,N,12.0
NS12,17.0,66.0,32.0,20.0,78.0,20,1315.0,square3,j,0.1215,2,N,12.0
NS12,18.0,60.0,33.0,26.0,76.0,33,1348.0,square2,r,0.0953,1,N,12.0
NS12,19.0,63.0,37.0,23.0,76.0,76,1424.0,square4,f,0.1732,3,N,12.0
NS12,20.0,59.0,36.0,24.0,78.0,78,1502.0,square4,f,0.1024,3,N,12.0
NS12,21.0,59.0,35.0,25.0,79.0,79,1581.0,square4,f,0.0454,3,N,12.0
NS12,22.0,61.0,37.0,26.0,88.0,88,1669.0,square4,f,0.2793,3,N,12.0
NS12,23.0,61.0,37.0,25.0,83.0,83,1752.0,square4,f,0.2247,3,N,12.0
NS12,24.0,61.0,39.0,26.0,85.0,85,1837.0,square4,f,0.1927,3,N,12.0
NS12,25.0,63.0,30.0,29.0,77.0,77,1914.0,square4,f,0.3003,3,N,12.0
NS12,26.0,58.0,39.0,29.0,83.0,58,1972.0,square1,i,0.2502,0,N,12.0
NS12,27.0,60.0,34.0,32.0,85.0,32,2004.0,square3,j,0.2338,2,N,12.0
NS12,28.0,63.0,32.0,35.0,77.0,32,2036.0,square2,r,0.1176,1,N,12.0
NS12,29.0,61.0,35.0,23.0,79.0,79,2115.0,square4,f,0.2249,3,N,12.0
NS12,30.0,57.0,27.0,30.0,69.0,69,2184.0,square4,f,0.0009,3,N,12.0
NS12,31.0,64.0,29.0,26.0,69.0,69,2253.0,square4,f,0.2331,3,N,12.0
NS12,32.0,65.0,29.0,33.0,69.0,69,2322.0,square4,f,0.2902,3,N,12.0
NS12,33.0,68.0,29.0,33.0,73.0,73,2395.0,square4,f,0.31,3,N,12.0
NS12,34.0,69.0,29.0,29.0,67.0,67,2462.0,square4,f,0.267,3,N,12.0
NS12,35.0,66.0,32.0,30.0,61.0,66,2528.0,square1,i,0.1343,0,N,12.0
NS12,36.0,64.0,27.0,26.0,58.0,64,2592.0,square1,i,0.3329,0,N,12.0
NS12,37.0,65.0,32.0,27.0,67.0,65,2657.0,square1,i,0.184,0,N,12.0
NS12,38.0,63.0,32.0,30.0,64.0,63,2720.0,square1,i,0.2001,0,N,12.0
NS12,39.0,65.0,30.0,30.0,70.0,30,2750.0,square2,r,0.0075,1,N,12.0
NS12,40.0,71.0,37.0,32.0,69.0,32,2782.0,square3,j,0.2038,2,N,12.0
NS12,41.0,66.0,45.0,37.0,69.0,66,2848.0,square1,i,0.2768,0,N,12.0
NS12,42.0,75.0,42.0,35.0,65.0,75,2923.0,square1,i,0.0952,0,N,12.0
NS12,43.0,82.0,39.0,35.0,57.0,82,3005.0,square1,i,0.201,0,N,12.0
NS12,44.0,81.0,34.0,34.0,61.0,81,3086.0,square1,i,0.3007,0,N,12.0
NS12,45.0,74.0,33.0,36.0,59.0,74,3160.0,square1,i,0.2584,0,N,12.0
NS12,46.0,77.0,32.0,40.0,57.0,57,3217.0,square4,f,0.2545,3,N,12.0
NS12,47.0,79.0,32.0,39.0,60.0,79,3296.0,square1,i,0.1607,0,N,12.0
NS12,48.0,80.0,28.0,34.0,62.0,80,3376.0,square1,i,0.2222,0,N,12.0
NS12,49.0,76.0,23.0,37.0,64.0,76,3452.0,square1,i,0.1963,0,N,12.0
NS12,50.0,75.0,25.0,37.0,65.0,75,3527.0,square1,i,0.1005,0,N,12.0
NS12,51.0,74.0,25.0,39.0,70.0,74,3601.0,square1,i,0.0181,0,N,12.0
NS12,52.0,79.0,26.0,40.0,73.0,79,3680.0,square1,i,0.2838,0,N,12.0
NS12,53.0,75.0,25.0,33.0,69.0,75,3755.0,square1,i,0.2672,0,N,12.0
NS12,54.0,79.0,25.0,38.0,68.0,79,3834.0,square1,i,0.0695,0,N,12.0
NS12,55.0,81.0,22.0,34.0,68.0,81,3915.0,square1,i,0.2338,0,N,12.0
NS12,56.0,72.0,29.0,39.0,69.0,72,3987.0,square1,i,0.1459,0,N,12.0
NS12,57.0,72.0,28.0,38.0,73.0,72,4059.0,square1,i,0.3835,0,N,12.0
NS12,58.0,69.0,25.0,32.0,71.0,69,4128.0,square1,i,0.2781,0,N,12.0
NS12,59.0,75.0,30.0,33.0,69.0,33,4161.0,square3,j,0.9661,2,N,12.0
NS12,60.0,68.0,28.0,39.0,68.0,28,4189.0,square2,r,0.3127,1,N,12.0
NS12,61.0,69.0,32.0,37.0,60.0,60,4249.0,square4,f,0.2498,3,N,12.0
NS12,62.0,63.0,37.0,39.0,55.0,63,4312.0,square1,i,0.3448,0,N,12.0
NS12,63.0,63.0,38.0,43.0,54.0,63,4375.0,square1,i,0.6005,0,N,12.0
NS12,64.0,60.0,30.0,35.0,55.0,60,4435.0,square1,i,0.3677,0,N,12.0
NS12,65.0,60.0,37.0,34.0,55.0,55,4490.0,square4,f,0.194,3,N,12.0
NS12,66.0,61.0,40.0,35.0,51.0,40,4530.0,square2,r,0.2582,1,N,12.0
NS12,67.0,65.0,37.0,35.0,53.0,35,4565.0,square3,j,0.2454,2,N,12.0
NS12,68.0,62.0,33.0,38.0,50.0,62,4627.0,square1,i,0.8508,0,N,12.0
NS12,69.0,56.0,41.0,29.0,54.0,56,4683.0,square1,i,0.2842,0,N,12.0
NS12,70.0,56.0,39.0,30.0,57.0,57,4740.0,square4,f,0.3844,3,N,12.0
NS12,71.0,61.0,40.0,33.0,64.0,64,4804.0,square4,f,0.3507,3,N,12.0
NS12,72.0,51.0,42.0,35.0,67.0,67,4871.0,square4,f,0.2503,3,N,12.0
NS12,73.0,56.0,39.0,39.0,67.0,67,4938.0,square4,f,0.2177,3,N,12.0
NS12,74.0,50.0,38.0,40.0,63.0,63,5001.0,square4,f,0.3339,3,N,12.0
NS12,75.0,52.0,37.0,41.0,67.0,67,5068.0,square4,f,0.2242,3,N,12.0
NS12,76.0,47.0,40.0,46.0,67.0,67,5135.0,square4,f,0.12,3,N,12.0
NS12,77.0,45.0,35.0,47.0,67.0,67,5202.0,square4,f,0.1003,3,N,12.0
NS12,78.0,44.0,38.0,52.0,66.0,66,5268.0,square4,f,0.2856,3,N,12.0
NS12,79.0,41.0,38.0,52.0,64.0,64,5332.0,square4,f,0.0742,3,N,12.0
NS12,80.0,36.0,41.0,57.0,58.0,58,5390.0,square4,f,0.2732,3,N,12.0
NS12,81.0,36.0,42.0,66.0,63.0,63,5453.0,square4,f,0.3785,3,N,12.0
NS12,82.0,35.0,44.0,65.0,62.0,62,5515.0,square4,f,0.2439,3,N,12.0
NS12,83.0,37.0,42.0,70.0,65.0,65,5580.0,square4,f,0.5003,3,N,12.0
NS12,84.0,35.0,39.0,72.0,58.0,58,5638.0,square4,f,0.3189,3,N,12.0
NS12,85.0,30.0,40.0,62.0,55.0,30,5668.0,square1,i,0.1217,0,N,12.0
NS12,86.0,36.0,40.0,65.0,59.0,65,5733.0,square3,j,0.7679,2,N,12.0
NS12,87.0,31.0,41.0,67.0,57.0,67,5800.0,square3,j,0.33,2,N,12.0
NS12,88.0,30.0,50.0,67.0,52.0,50,5850.0,square2,r,0.2842,1,N,12.0
NS12,89.0,28.0,41.0,69.0,54.0,69,5919.0,square3,j,0.234,2,N,12.0
NS12,90.0,29.0,41.0,61.0,57.0,61,5980.0,square3,j,0.1398,2,N,12.0
NS12,91.0,30.0,36.0,59.0,54.0,59,6039.0,square3,j,0.1167,2,N,12.0
NS12,92.0,28.0,29.0,60.0,54.0,60,6099.0,square3,j,0.1758,2,N,12.0
NS12,93.0,30.0,35.0,62.0,52.0,62,6161.0,square3,j,0.1879,2,N,12.0
NS12,94.0,30.0,36.0,60.0,56.0,60,6221.0,square3,j,0.1841,2,N,12.0
NS12,95.0,29.0,33.0,63.0,60.0,60,6281.0,square4,f,0.3671,3,N,12.0
NS12,96.0,29.0,30.0,59.0,59.0,59,6340.0,square4,f,0.2573,3,N,12.0
NS12,97.0,31.0,35.0,61.0,61.0,61,6401.0,square4,f,0.2169,3,N,12.0
NS12,98.0,31.0,40.0,67.0,58.0,58,6459.0,square4,f,0.2061,3,N,12.0
NS12,99.0,33.0,37.0,65.0,67.0,65,6524.0,square3,j,0.3675,2,N,12.0
NS6,0.0,68.0,18.0,30.0,58.0,68,68.0,square1,r,0.1527,0,N,6.0
NS6,1.0,62.0,23.0,38.0,67.0,62,130.0,square1,r,0.2262,0,N,6.0
NS6,2.0,59.0,30.0,33.0,67.0,33,163.0,square3,i,0.4193,2,N,6.0
NS6,3.0,62.0,27.0,39.0,65.0,62,225.0,square1,r,0.2004,0,N,6.0
NS6,4.0,65.0,22.0,32.0,67.0,65,290.0,square1,r,0.2272,0,N,6.0
NS6,5.0,61.0,28.0,39.0,67.0,61,351.0,square1,r,0.2504,0,N,6.0
NS6,6.0,59.0,28.0,39.0,66.0,28,379.0,square2,f,0.3231,1,N,6.0
NS6,7.0,56.0,30.0,43.0,63.0,56,435.0,square1,r,0.2842,0,N,6.0
NS6,8.0,57.0,26.0,36.0,60.0,60,495.0,square4,j,0.2183,3,N,6.0
NS6,9.0,51.0,30.0,38.0,65.0,65,560.0,square4,j,0.2289,3,N,6.0
NS6,10.0,46.0,26.0,41.0,61.0,61,621.0,square4,j,0.1266,3,N,6.0
NS6,11.0,46.0,30.0,40.0,58.0,58,679.0,square4,j,0.0841,3,N,6.0
NS6,12.0,44.0,27.0,41.0,56.0,56,735.0,square4,j,0.0424,3,N,6.0
NS6,13.0,41.0,32.0,44.0,54.0,41,776.0,square1,r,0.1573,0,N,6.0
NS6,14.0,45.0,36.0,41.0,51.0,36,812.0,square2,f,0.5835,1,N,6.0
NS6,15.0,37.0,34.0,39.0,54.0,39,851.0,square3,i,0.2361,2,N,6.0
NS6,16.0,36.0,37.0,39.0,48.0,48,899.0,square4,j,0.1504,3,N,6.0
NS6,17.0,41.0,39.0,36.0,45.0,45,944.0,square4,j,0.1501,3,N,6.0
NS6,18.0,39.0,38.0,29.0,48.0,48,992.0,square4,j,0.0871,3,N,6.0
NS6,19.0,35.0,40.0,32.0,46.0,46,1038.0,square4,j,0.5022,3,N,6.0
NS6,20.0,41.0,40.0,28.0,55.0,55,1093.0,square4,j,0.2832,3,N,6.0
NS6,21.0,45.0,44.0,27.0,54.0,54,1147.0,square4,j,0.2336,3,N,6.0
NS6,22.0,44.0,51.0,31.0,53.0,53,1200.0,square4,j,0.2387,3,N,6.0
NS6,23.0,44.0,50.0,29.0,53.0,53,1253.0,square4,j,0.23,3,N,6.0
NS6,24.0,49.0,49.0,35.0,55.0,55,1308.0,square4,j,0.1402,3,N,6.0
NS6,25.0,44.0,51.0,36.0,56.0,56,1364.0,square4,j,0.166,3,N,6.0
NS6,26.0,43.0,46.0,38.0,58.0,43,1407.0,square1,r,0.1835,0,N,6.0
NS6,27.0,41.0,44.0,41.0,59.0,59,1466.0,square4,j,0.2104,3,N,6.0
NS6,28.0,38.0,47.0,39.0,58.0,58,1524.0,square4,j,0.086,3,N,6.0
NS6,29.0,39.0,46.0,37.0,54.0,54,1578.0,square4,j,0.0008,3,N,6.0
NS6,30.0,36.0,49.0,40.0,53.0,53,1631.0,square4,j,0.2209,3,N,6.0
NS6,31.0,37.0,45.0,36.0,55.0,55,1686.0,square4,j,0.3009,3,N,6.0
NS6,32.0,42.0,42.0,40.0,56.0,56,1742.0,square4,j,0.0886,3,N,6.0
NS6,33.0,33.0,44.0,32.0,53.0,53,1795.0,square4,j,0.1169,3,N,6.0
NS6,34.0,32.0,42.0,36.0,49.0,49,1844.0,square4,j,0.1498,3,N,6.0
NS6,35.0,35.0,28.0,38.0,51.0,35,1879.0,square1,r,0.1867,0,N,6.0
NS6,36.0,38.0,28.0,35.0,52.0,28,1907.0,square2,f,0.1505,1,N,6.0
NS6,37.0,44.0,31.0,37.0,55.0,37,1944.0,square3,i,0.2841,2,N,6.0
NS6,38.0,36.0,31.0,36.0,54.0,54,1998.0,square4,j,0.4389,3,N,6.0
NS6,39.0,40.0,29.0,41.0,60.0,60,2058.0,square4,j,0.2672,3,N,6.0
NS6,40.0,46.0,33.0,36.0,62.0,62,2120.0,square4,j,0.1019,3,N,6.0
NS6,41.0,44.0,38.0,34.0,63.0,63,2183.0,square4,j,0.1916,3,N,6.0
NS6,42.0,43.0,32.0,29.0,59.0,59,2242.0,square4,j,0.076,3,N,6.0
NS6,43.0,47.0,29.0,38.0,61.0,61,2303.0,square4,j,0.2109,3,N,6.0
NS6,44.0,49.0,33.0,36.0,56.0,56,2359.0,square4,j,0.1167,3,N,6.0
NS6,45.0,51.0,29.0,32.0,60.0,60,2419.0,square4,j,0.2004,3,N,6.0
NS6,46.0,52.0,36.0,41.0,64.0,64,2483.0,square4,j,0.4003,3,N,6.0
NS6,47.0,55.0,35.0,46.0,60.0,60,2543.0,square4,j,0.2777,3,N,6.0
NS6,48.0,57.0,34.0,40.0,64.0,64,2607.0,square4,j,0.0109,3,N,6.0
NS6,49.0,54.0,37.0,42.0,59.0,59,2666.0,square4,j,0.0843,3,N,6.0
NS6,50.0,58.0,40.0,35.0,51.0,58,2724.0,square1,r,0.017,0,N,6.0
NS6,51.0,64.0,35.0,36.0,53.0,64,2788.0,square1,r,0.2687,0,N,6.0
NS6,52.0,60.0,37.0,30.0,52.0,60,2848.0,square1,r,0.2359,0,N,6.0
NS6,53.0,63.0,40.0,30.0,54.0,63,2911.0,square1,r,0.2256,0,N,6.0
NS6,54.0,60.0,37.0,30.0,53.0,60,2971.0,square1,r,0.2712,0,N,6.0
NS6,55.0,57.0,40.0,29.0,50.0,50,3021.0,square4,j,0.4513,3,N,6.0
NS6,56.0,58.0,30.0,30.0,46.0,58,3079.0,square1,r,0.1325,0,N,6.0
NS6,57.0,64.0,34.0,31.0,45.0,64,3143.0,square1,r,0.1382,0,N,6.0
NS6,58.0,66.0,31.0,34.0,48.0,66,3209.0,square1,r,0.2338,0,N,6.0
NS6,59.0,68.0,31.0,35.0,44.0,68,3277.0,square1,r,0.2737,0,N,6.0
NS6,60.0,65.0,28.0,27.0,49.0,65,3342.0,square1,r,0.3171,0,N,6.0
NS6,61.0,67.0,29.0,25.0,47.0,67,3409.0,square1,r,0.0838,0,N,6.0
NS6,62.0,67.0,31.0,27.0,41.0,67,3476.0,square1,r,0.2647,0,N,6.0
NS6,63.0,69.0,32.0,24.0,45.0,69,3545.0,square1,r,0.2221,0,N,6.0
NS6,64.0,72.0,41.0,30.0,50.0,72,3617.0,square1,r,0.2191,0,N,6.0
NS6,65.0,75.0,35.0,33.0,50.0,75,3692.0,square1,r,0.1738,0,N,6.0
NS6,66.0,71.0,37.0,26.0,49.0,71,3763.0,square1,r,0.1883,0,N,6.0
NS6,67.0,74.0,34.0,21.0,49.0,74,3837.0,square1,r,0.2168,0,N,6.0
NS6,68.0,81.0,37.0,27.0,50.0,81,3918.0,square1,r,0.2664,0,N,6.0
NS6,69.0,80.0,31.0,25.0,49.0,80,3998.0,square1,r,0.1177,0,N,6.0
NS6,70.0,83.0,33.0,31.0,46.0,83,4081.0,square1,r,0.2081,0,N,6.0
NS6,71.0,75.0,33.0,34.0,53.0,75,4156.0,square1,r,0.2501,0,N,6.0
NS6,72.0,73.0,39.0,32.0,55.0,73,4229.0,square1,r,0.076,0,N,6.0
NS6,73.0,74.0,40.0,33.0,53.0,74,4303.0,square1,r,0.3228,0,N,6.0
NS6,74.0,73.0,46.0,32.0,50.0,73,4376.0,square1,r,0.1373,0,N,6.0
NS6,75.0,71.0,40.0,32.0,49.0,71,4447.0,square1,r,0.1804,0,N,6.0
NS6,76.0,65.0,43.0,31.0,56.0,65,4512.0,square1,r,0.1508,0,N,6.0
NS6,77.0,66.0,41.0,33.0,56.0,56,4568.0,square4,j,0.124,3,N,6.0
NS6,78.0,71.0,40.0,38.0,64.0,38,4606.0,square3,i,0.2338,2,N,6.0
NS6,79.0,69.0,36.0,35.0,62.0,36,4642.0,square2,f,0.2713,1,N,6.0
NS6,80.0,69.0,34.0,37.0,69.0,69,4711.0,square1,r,0.186,0,N,6.0
NS6,81.0,70.0,37.0,37.0,71.0,70,4781.0,square1,r,0.0504,0,N,6.0
NS6,82.0,68.0,38.0,39.0,66.0,68,4849.0,square1,r,0.0836,0,N,6.0
NS6,83.0,69.0,42.0,41.0,73.0,69,4918.0,square1,r,0.2168,0,N,6.0
NS6,84.0,62.0,42.0,42.0,70.0,62,4980.0,square1,r,0.1731,0,N,6.0
NS6,85.0,57.0,45.0,42.0,77.0,57,5037.0,square1,r,0.3745,0,N,6.0
NS6,86.0,58.0,47.0,44.0,70.0,70,5107.0,square4,j,0.0831,3,N,6.0
NS6,87.0,62.0,44.0,52.0,73.0,73,5180.0,square4,j,0.2504,3,N,6.0
NS6,88.0,62.0,45.0,47.0,72.0,72,5252.0,square4,j,0.1671,3,N,6.0
NS6,89.0,59.0,50.0,47.0,73.0,73,5325.0,square4,j,0.1173,3,N,6.0
NS6,90.0,55.0,45.0,44.0,68.0,68,5393.0,square4,j,0.1339,3,N,6.0
NS6,91.0,55.0,51.0,47.0,67.0,67,5460.0,square4,j,0.0175,3,N,6.0
NS6,92.0,62.0,52.0,35.0,69.0,69,5529.0,square4,j,0.1008,3,N,6.0
NS6,93.0,59.0,47.0,32.0,68.0,68,5597.0,square4,j,1.0122,3,N,6.0
NS6,94.0,67.0,53.0,44.0,66.0,66,5663.0,square4,j,0.1575,3,N,6.0
NS6,95.0,71.0,44.0,47.0,66.0,66,5729.0,square4,j,0.3545,3,N,6.0
NS6,96.0,68.0,53.0,47.0,66.0,66,5795.0,square4,j,0.3671,3,N,6.0
NS6,97.0,65.0,49.0,44.0,64.0,64,5859.0,square4,j,0.0161,3,N,6.0
NS6,98.0,66.0,54.0,55.0,57.0,57,5916.0,square4,j,0.2065,3,N,6.0
NS6,99.0,69.0,57.0,51.0,56.0,69,5985.0,square1,r,0.1357,0,N,6.0
NS2,0.0,44.0,66.0,42.0,38.0,66,66.0,square2,r,0.5378,1,N,2.0
NS2,1.0,44.0,66.0,47.0,43.0,66,132.0,square2,r,0.277,1,N,2.0
NS2,2.0,42.0,62.0,53.0,43.0,62,194.0,square2,r,0.293,1,N,2.0
NS2,3.0,46.0,58.0,48.0,46.0,46,240.0,square1,j,0.1707,0,N,2.0
NS2,4.0,47.0,61.0,51.0,42.0,42,282.0,square4,i,0.1646,3,N,2.0
NS2,5.0,51.0,58.0,50.0,50.0,50,332.0,square3,f,0.2764,2,N,2.0
NS2,6.0,52.0,58.0,43.0,48.0,58,390.0,square2,r,0.2031,1,N,2.0
NS2,7.0,50.0,52.0,43.0,50.0,52,442.0,square2,r,0.311,1,N,2.0
NS2,8.0,54.0,58.0,41.0,46.0,54,496.0,square1,j,0.2104,0,N,2.0
NS2,9.0,52.0,59.0,42.0,46.0,52,548.0,square1,j,0.37,0,N,2.0
NS2,10.0,50.0,52.0,37.0,48.0,37,585.0,square3,f,0.1337,2,N,2.0
NS2,11.0,45.0,56.0,38.0,43.0,43,628.0,square4,i,0.2003,3,N,2.0
NS2,12.0,50.0,56.0,37.0,48.0,56,684.0,square2,r,0.1503,1,N,2.0
NS2,13.0,47.0,63.0,36.0,49.0,47,731.0,square1,j,0.2295,0,N,2.0
NS2,14.0,51.0,56.0,39.0,49.0,56,787.0,square2,r,0.1341,1,N,2.0
NS2,15.0,46.0,64.0,39.0,50.0,64,851.0,square2,r,0.6336,1,N,2.0
NS2,16.0,51.0,61.0,37.0,47.0,61,912.0,square2,r,0.2783,1,N,2.0
NS2,17.0,59.0,68.0,46.0,53.0,68,980.0,square2,r,0.3713,1,N,2.0
NS2,18.0,53.0,65.0,42.0,49.0,65,1045.0,square2,r,0.2768,1,N,2.0
NS2,19.0,52.0,67.0,47.0,49.0,67,1112.0,square2,r,0.2499,1,N,2.0
NS2,20.0,56.0,64.0,45.0,48.0,64,1176.0,square2,r,0.4048,1,N,2.0
NS2,21.0,57.0,73.0,46.0,44.0,73,1249.0,square2,r,0.1936,1,N,2.0
NS2,22.0,54.0,76.0,36.0,47.0,76,1325.0,square2,r,0.2007,1,N,2.0
NS2,23.0,55.0,77.0,35.0,42.0,77,1402.0,square2,r,0.2582,1,N,2.0
NS2,24.0,53.0,68.0,35.0,46.0,68,1470.0,square2,r,0.1272,1,N,2.0
NS2,25.0,55.0,73.0,29.0,45.0,73,1543.0,square2,r,0.0403,1,N,2.0
NS2,26.0,52.0,69.0,30.0,49.0,69,1612.0,square2,r,0.2747,1,N,2.0
NS2,27.0,52.0,62.0,33.0,52.0,62,1674.0,square2,r,0.1074,1,N,2.0
NS2,28.0,58.0,62.0,33.0,47.0,58,1732.0,square1,j,0.2331,0,N,2.0
NS2,29.0,56.0,65.0,38.0,46.0,46,1778.0,square4,i,0.1,3,N,2.0
NS2,30.0,56.0,66.0,37.0,50.0,37,1815.0,square3,f,0.0031,2,N,2.0
NS2,31.0,50.0,64.0,35.0,45.0,64,1879.0,square2,r,0.2053,1,N,2.0
NS2,32.0,56.0,62.0,38.0,45.0,62,1941.0,square2,r,0.475,1,N,2.0
NS2,33.0,59.0,58.0,34.0,48.0,59,2000.0,square1,j,0.2509,0,N,2.0
NS2,34.0,55.0,59.0,36.0,48.0,59,2059.0,square2,r,0.2,1,N,2.0
NS2,35.0,54.0,57.0,33.0,48.0,54,2113.0,square1,j,0.1927,0,N,2.0
NS2,36.0,53.0,58.0,34.0,51.0,58,2171.0,square2,r,0.1666,1,N,2.0
NS2,37.0,46.0,53.0,32.0,55.0,53,2224.0,square2,r,0.3445,1,N,2.0
NS2,38.0,46.0,59.0,37.0,49.0,59,2283.0,square2,r,0.4,1,N,2.0
NS2,39.0,53.0,59.0,36.0,48.0,59,2342.0,square2,r,0.0622,1,N,2.0
NS2,40.0,46.0,60.0,37.0,42.0,60,2402.0,square2,r,0.2335,1,N,2.0
NS2,41.0,51.0,57.0,42.0,41.0,57,2459.0,square2,r,0.2716,1,N,2.0
NS2,42.0,49.0,53.0,46.0,41.0,53,2512.0,square2,r,0.1337,1,N,2.0
NS2,43.0,49.0,57.0,43.0,39.0,49,2561.0,square1,j,0.1002,0,N,2.0
NS2,44.0,48.0,55.0,48.0,37.0,55,2616.0,square2,r,0.0838,1,N,2.0
NS2,45.0,49.0,52.0,34.0,36.0,34,2650.0,square3,f,0.5522,2,N,2.0
NS2,46.0,50.0,46.0,39.0,34.0,46,2696.0,square2,r,0.1508,1,N,2.0
NS2,47.0,55.0,48.0,39.0,26.0,26,2722.0,square4,i,0.3509,3,N,2.0
NS2,48.0,55.0,42.0,41.0,31.0,42,2764.0,square2,r,0.3771,1,N,2.0
NS2,49.0,55.0,41.0,36.0,36.0,55,2819.0,square1,j,0.2009,0,N,2.0
NS2,50.0,50.0,43.0,43.0,36.0,50,2869.0,square1,j,0.3667,0,N,2.0
NS2,51.0,49.0,40.0,44.0,32.0,40,2909.0,square2,r,0.7801,1,N,2.0
NS2,52.0,54.0,45.0,40.0,32.0,54,2963.0,square1,j,0.2844,0,N,2.0
NS2,53.0,55.0,44.0,42.0,38.0,55,3018.0,square1,j,0.4114,0,N,2.0
NS2,54.0,57.0,44.0,42.0,37.0,57,3075.0,square1,j,0.3172,0,N,2.0
NS2,55.0,56.0,47.0,35.0,29.0,56,3131.0,square1,j,0.3671,0,N,2.0
NS2,56.0,56.0,45.0,31.0,36.0,56,3187.0,square1,j,0.2336,0,N,2.0
NS2,57.0,48.0,43.0,33.0,36.0,48,3235.0,square1,j,0.2503,0,N,2.0
NS2,58.0,46.0,44.0,30.0,40.0,30,3265.0,square3,f,0.0684,2,N,2.0
NS2,59.0,45.0,36.0,33.0,37.0,36,3301.0,square2,r,0.3233,1,N,2.0
NS2,60.0,45.0,37.0,32.0,38.0,45,3346.0,square1,j,0.1671,0,N,2.0
NS2,61.0,47.0,37.0,31.0,37.0,47,3393.0,square1,j,0.2269,0,N,2.0
NS2,62.0,46.0,36.0,28.0,34.0,46,3439.0,square1,j,0.3681,0,N,2.0
NS2,63.0,53.0,36.0,26.0,43.0,53,3492.0,square1,j,0.2171,0,N,2.0
NS2,64.0,53.0,37.0,24.0,45.0,53,3545.0,square1,j,0.3845,0,N,2.0
NS2,65.0,49.0,34.0,27.0,49.0,49,3594.0,square1,j,0.6435,0,N,2.0
NS2,66.0,50.0,30.0,26.0,57.0,50,3644.0,square1,j,0.2776,0,N,2.0
NS2,67.0,49.0,28.0,32.0,55.0,49,3693.0,square1,j,0.5401,0,N,2.0
NS2,68.0,53.0,23.0,35.0,55.0,53,3746.0,square1,j,0.5091,0,N,2.0
NS2,69.0,49.0,29.0,33.0,51.0,49,3795.0,square1,j,0.1504,0,N,2.0
NS2,70.0,54.0,27.0,30.0,60.0,54,3849.0,square1,j,0.0338,0,N,2.0
NS2,71.0,57.0,28.0,31.0,59.0,57,3906.0,square1,j,0.0838,0,N,2.0
NS2,72.0,55.0,25.0,29.0,61.0,55,3961.0,square1,j,0.1204,0,N,2.0
NS2,73.0,63.0,29.0,31.0,56.0,63,4024.0,square1,j,0.1234,0,N,2.0
NS2,74.0,59.0,34.0,34.0,58.0,59,4083.0,square1,j,0.1672,0,N,2.0
NS2,75.0,58.0,37.0,31.0,53.0,58,4141.0,square1,j,0.2759,0,N,2.0
NS2,76.0,62.0,41.0,25.0,53.0,62,4203.0,square1,j,0.2172,0,N,2.0
NS2,77.0,60.0,37.0,30.0,52.0,60,4263.0,square1,j,0.4009,0,N,2.0
NS2,78.0,63.0,37.0,37.0,50.0,63,4326.0,square1,j,0.5104,0,N,2.0
NS2,79.0,66.0,44.0,32.0,47.0,66,4392.0,square1,j,0.1511,0,N,2.0
NS2,80.0,65.0,41.0,30.0,45.0,65,4457.0,square1,j,0.1174,0,N,2.0
NS2,81.0,60.0,37.0,26.0,49.0,60,4517.0,square1,j,0.1497,0,N,2.0
NS2,82.0,68.0,38.0,28.0,46.0,68,4585.0,square1,j,0.2499,0,N,2.0
NS2,83.0,63.0,42.0,30.0,49.0,63,4648.0,square1,j,0.2239,0,N,2.0
NS2,84.0,71.0,41.0,37.0,51.0,71,4719.0,square1,j,0.4837,0,N,2.0
NS2,85.0,63.0,47.0,29.0,40.0,63,4782.0,square1,j,0.2325,0,N,2.0
NS2,86.0,67.0,42.0,36.0,44.0,42,4824.0,square2,r,0.0946,1,N,2.0
NS2,87.0,62.0,45.0,31.0,41.0,41,4865.0,square4,i,0.1584,3,N,2.0
NS2,88.0,63.0,39.0,32.0,44.0,32,4897.0,square3,f,0.1178,2,N,2.0
NS2,89.0,66.0,39.0,37.0,39.0,66,4963.0,square1,j,0.0999,0,N,2.0
NS2,90.0,53.0,38.0,35.0,40.0,53,5016.0,square1,j,0.1002,0,N,2.0
NS2,91.0,57.0,39.0,38.0,43.0,39,5055.0,square2,r,0.0035,1,N,2.0
NS2,92.0,53.0,36.0,40.0,47.0,53,5108.0,square1,j,0.3835,0,N,2.0
NS2,93.0,47.0,39.0,43.0,38.0,47,5155.0,square1,j,0.0776,0,N,2.0
NS2,94.0,45.0,33.0,46.0,40.0,45,5200.0,square1,j,0.0942,0,N,2.0
NS2,95.0,49.0,38.0,53.0,36.0,38,5238.0,square2,r,0.1003,1,N,2.0
NS2,96.0,50.0,39.0,46.0,34.0,50,5288.0,square1,j,0.217,0,N,2.0
NS2,97.0,57.0,37.0,44.0,41.0,57,5345.0,square1,j,0.0657,0,N,2.0
NS2,98.0,55.0,43.0,39.0,43.0,55,5400.0,square1,j,0.0166,0,N,2.0
NS2,99.0,56.0,46.0,41.0,41.0,56,5456.0,square1,j,0.6515,0,N,2.0
