block,Trial,square1,square2,square3,square4,currPoints,totalPoints,square,choiceKey.keys,choiceKey.rt,armNum,blockType,blockNum
prac,0.0,100.0,0.0,0.0,0.0,0,0.0,square4,,,3,p,0.0
prac,1.0,100.0,0.0,0.0,0.0,0,0.0,square2,,,1,p,0.0
prac,2.0,100.0,0.0,0.0,0.0,0,0.0,square3,,,2,p,0.0
prac,3.0,100.0,0.0,0.0,0.0,100,100.0,square1,,,0,p,0.0
prac,4.0,100.0,0.0,0.0,0.0,100,200.0,square1,,,0,p,0.0
prac,5.0,100.0,0.0,0.0,0.0,100,300.0,square1,,,0,p,0.0
prac,6.0,100.0,0.0,0.0,0.0,0,300.0,square3,,,2,p,0.0
prac,7.0,100.0,0.0,0.0,0.0,100,400.0,square1,,,0,p,0.0
prac,8.0,100.0,0.0,0.0,0.0,0,400.0,square2,,,1,p,0.0
prac,9.0,100.0,0.0,0.0,0.0,0,400.0,square4,,,3,p,0.0
S5,0.0,90.0,70.0,79.0,84.0,70,70.0,square2,j,0.4764,1,S,5.0
S5,1.0,92.0,77.0,83.0,81.0,81,151.0,square4,i,0.2726,3,S,5.0
S5,2.0,83.0,72.0,81.0,76.0,81,232.0,square3,r,0.3776,2,S,5.0
S5,3.0,87.0,72.0,79.0,81.0,87,319.0,square1,f,0.0514,0,S,5.0
S5,4.0,86.0,81.0,78.0,72.0,86,405.0,square1,f,0.2715,0,S,5.0
S5,5.0,89.0,70.0,79.0,83.0,89,494.0,square1,f,0.0948,0,S,5.0
S5,6.0,86.0,69.0,81.0,81.0,69,563.0,square2,j,0.2271,1,S,5.0
S5,7.0,82.0,72.0,86.0,80.0,80,643.0,square4,i,0.3199,3,S,5.0
S5,8.0,84.0,67.0,80.0,77.0,80,723.0,square3,r,0.5463,2,S,5.0
S5,9.0,92.0,80.0,86.0,84.0,92,815.0,square1,f,0.2389,0,S,5.0
S5,10.0,82.0,71.0,80.0,80.0,82,897.0,square1,f,0.1027,0,S,5.0
S5,11.0,80.0,75.0,79.0,75.0,80,977.0,square1,f,0.0354,0,S,5.0
S5,12.0,84.0,75.0,80.0,82.0,84,1061.0,square1,f,0.233,0,S,5.0
S5,13.0,85.0,74.0,74.0,81.0,74,1135.0,square2,j,0.0632,1,S,5.0
S5,14.0,81.0,79.0,85.0,81.0,81,1216.0,square1,f,0.2845,0,S,5.0
S5,15.0,81.0,75.0,76.0,77.0,81,1297.0,square1,f,0.4139,0,S,5.0
S5,16.0,86.0,74.0,78.0,74.0,74,1371.0,square4,i,0.1509,3,S,5.0
S5,17.0,81.0,77.0,81.0,77.0,81,1452.0,square3,r,0.5822,2,S,5.0
S5,18.0,87.0,70.0,84.0,82.0,87,1539.0,square1,f,0.0602,0,S,5.0
S5,19.0,84.0,76.0,83.0,76.0,84,1623.0,square1,f,0.3086,0,S,5.0
S5,20.0,79.0,78.0,82.0,76.0,79,1702.0,square1,f,0.372,0,S,5.0
S5,21.0,86.0,68.0,80.0,72.0,86,1788.0,square1,f,0.3124,0,S,5.0
S5,22.0,93.0,80.0,85.0,84.0,93,1881.0,square1,f,0.3079,0,S,5.0
S5,23.0,87.0,73.0,76.0,70.0,87,1968.0,square1,f,0.2049,0,S,5.0
S5,24.0,85.0,69.0,81.0,78.0,85,2053.0,square1,f,0.2766,0,S,5.0
S5,25.0,89.0,77.0,77.0,76.0,89,2142.0,square1,f,0.1542,0,S,5.0
S5,26.0,84.0,71.0,81.0,75.0,84,2226.0,square1,f,0.1171,0,S,5.0
S5,27.0,84.0,75.0,82.0,71.0,84,2310.0,square1,f,1.0853,0,S,5.0
S5,28.0,83.0,72.0,82.0,78.0,83,2393.0,square1,f,0.0263,0,S,5.0
S5,29.0,91.0,67.0,79.0,74.0,91,2484.0,square1,f,0.0151,0,S,5.0
S5,30.0,82.0,69.0,81.0,77.0,82,2566.0,square1,f,0.4803,0,S,5.0
S5,31.0,82.0,72.0,80.0,78.0,80,2646.0,square3,r,0.2253,2,S,5.0
S5,32.0,83.0,73.0,91.0,80.0,80,2726.0,square4,i,0.3975,3,S,5.0
S5,33.0,83.0,68.0,85.0,78.0,68,2794.0,square2,j,0.4142,1,S,5.0
S5,34.0,89.0,79.0,83.0,77.0,89,2883.0,square1,f,0.227,0,S,5.0
S5,35.0,88.0,72.0,79.0,80.0,88,2971.0,square1,f,0.2872,0,S,5.0
S5,36.0,90.0,74.0,84.0,76.0,90,3061.0,square1,f,0.1176,0,S,5.0
S5,37.0,85.0,75.0,80.0,82.0,85,3146.0,square1,f,0.1103,0,S,5.0
S5,38.0,78.0,74.0,85.0,79.0,78,3224.0,square1,f,0.3188,0,S,5.0
S5,39.0,87.0,73.0,87.0,85.0,87,3311.0,square3,r,0.2657,2,S,5.0
S5,40.0,83.0,67.0,81.0,80.0,83,3394.0,square1,f,0.3621,0,S,5.0
S5,41.0,82.0,69.0,88.0,80.0,88,3482.0,square3,r,0.3107,2,S,5.0
S5,42.0,85.0,78.0,91.0,80.0,91,3573.0,square3,r,0.3074,2,S,5.0
S5,43.0,89.0,74.0,78.0,74.0,78,3651.0,square3,r,0.4162,2,S,5.0
S5,44.0,90.0,74.0,77.0,85.0,90,3741.0,square1,f,0.1307,0,S,5.0
S5,45.0,89.0,68.0,81.0,78.0,89,3830.0,square1,f,0.3185,0,S,5.0
S5,46.0,86.0,70.0,86.0,68.0,86,3916.0,square1,f,0.4089,0,S,5.0
S5,47.0,90.0,77.0,85.0,84.0,90,4006.0,square1,f,0.2822,0,S,5.0
S5,48.0,76.0,66.0,82.0,79.0,76,4082.0,square1,f,0.2467,0,S,5.0
S5,49.0,84.0,73.0,82.0,75.0,84,4166.0,square1,f,0.3849,0,S,5.0
S8,0.0,58.0,60.0,52.0,45.0,45,45.0,square4,r,1.318,3,S,8.0
S8,1.0,55.0,57.0,56.0,52.0,55,100.0,square1,i,0.234,0,S,8.0
S8,2.0,54.0,58.0,58.0,49.0,58,158.0,square3,j,0.2284,2,S,8.0
S8,3.0,55.0,62.0,52.0,53.0,62,220.0,square2,f,0.2331,1,S,8.0
S8,4.0,55.0,60.0,49.0,51.0,60,280.0,square2,f,0.4403,1,S,8.0
S8,5.0,48.0,63.0,61.0,49.0,63,343.0,square2,f,0.3482,1,S,8.0
S8,6.0,58.0,63.0,59.0,55.0,63,406.0,square2,f,0.3104,1,S,8.0
S8,7.0,56.0,53.0,49.0,51.0,53,459.0,square2,f,0.2948,1,S,8.0
S8,8.0,61.0,63.0,66.0,49.0,63,522.0,square2,f,0.329,1,S,8.0
S8,9.0,60.0,59.0,53.0,47.0,53,575.0,square3,j,0.1735,2,S,8.0
S8,10.0,55.0,63.0,52.0,55.0,52,627.0,square3,j,0.0843,2,S,8.0
S8,11.0,62.0,60.0,54.0,50.0,54,681.0,square3,j,0.2118,2,S,8.0
S8,12.0,58.0,64.0,51.0,52.0,58,739.0,square1,i,0.0047,0,S,8.0
S8,13.0,62.0,59.0,53.0,53.0,62,801.0,square1,i,0.2282,0,S,8.0
S8,14.0,51.0,62.0,61.0,54.0,51,852.0,square1,i,0.1427,0,S,8.0
S8,15.0,56.0,68.0,56.0,50.0,50,902.0,square4,r,0.2461,3,S,8.0
S8,16.0,58.0,64.0,56.0,50.0,50,952.0,square4,r,0.0485,3,S,8.0
S8,17.0,64.0,63.0,60.0,42.0,63,1015.0,square2,f,0.3406,1,S,8.0
S8,18.0,54.0,64.0,57.0,55.0,64,1079.0,square2,f,0.164,1,S,8.0
S8,19.0,56.0,53.0,57.0,53.0,53,1132.0,square2,f,0.3145,1,S,8.0
S8,20.0,59.0,64.0,56.0,49.0,64,1196.0,square2,f,0.2068,1,S,8.0
S8,21.0,54.0,59.0,55.0,48.0,59,1255.0,square2,f,0.044,1,S,8.0
S8,22.0,63.0,63.0,59.0,49.0,63,1318.0,square2,f,0.1272,1,S,8.0
S8,23.0,59.0,60.0,48.0,52.0,60,1378.0,square2,f,0.128,1,S,8.0
S8,24.0,55.0,53.0,60.0,50.0,53,1431.0,square2,f,0.4686,1,S,8.0
S8,25.0,57.0,60.0,55.0,54.0,60,1491.0,square2,f,0.3711,1,S,8.0
S8,26.0,62.0,66.0,57.0,58.0,66,1557.0,square2,f,0.4967,1,S,8.0
S8,27.0,58.0,55.0,52.0,48.0,55,1612.0,square2,f,0.3831,1,S,8.0
S8,28.0,53.0,59.0,53.0,55.0,59,1671.0,square2,f,0.131,1,S,8.0
S8,29.0,60.0,58.0,57.0,53.0,58,1729.0,square2,f,0.1229,1,S,8.0
S8,30.0,57.0,67.0,52.0,56.0,67,1796.0,square2,f,0.4668,1,S,8.0
S8,31.0,60.0,58.0,52.0,50.0,58,1854.0,square2,f,0.4456,1,S,8.0
S8,32.0,54.0,61.0,56.0,57.0,61,1915.0,square2,f,0.6234,1,S,8.0
S8,33.0,66.0,64.0,63.0,52.0,64,1979.0,square2,f,0.27,1,S,8.0
S8,34.0,54.0,65.0,66.0,56.0,65,2044.0,square2,f,0.0636,1,S,8.0
S8,35.0,54.0,62.0,61.0,48.0,62,2106.0,square2,f,0.166,1,S,8.0
S8,36.0,53.0,63.0,54.0,55.0,63,2169.0,square2,f,0.1562,1,S,8.0
S8,37.0,64.0,58.0,57.0,51.0,58,2227.0,square2,f,0.1956,1,S,8.0
S8,38.0,68.0,65.0,59.0,57.0,65,2292.0,square2,f,0.3415,1,S,8.0
S8,39.0,64.0,65.0,51.0,55.0,65,2357.0,square2,f,0.5812,1,S,8.0
S8,40.0,63.0,61.0,57.0,47.0,61,2418.0,square2,f,0.4618,1,S,8.0
S8,41.0,65.0,58.0,55.0,49.0,58,2476.0,square2,f,0.015,1,S,8.0
S8,42.0,52.0,60.0,51.0,56.0,60,2536.0,square2,f,0.4272,1,S,8.0
S8,43.0,63.0,57.0,48.0,50.0,57,2593.0,square2,f,0.2109,1,S,8.0
S8,44.0,59.0,63.0,53.0,53.0,63,2656.0,square2,f,0.2451,1,S,8.0
S8,45.0,62.0,62.0,60.0,53.0,62,2718.0,square2,f,0.4663,1,S,8.0
S8,46.0,56.0,62.0,57.0,60.0,62,2780.0,square2,f,0.5187,1,S,8.0
S8,47.0,60.0,63.0,58.0,56.0,63,2843.0,square2,f,0.9184,1,S,8.0
S8,48.0,59.0,63.0,49.0,53.0,63,2906.0,square2,f,0.7523,1,S,8.0
S8,49.0,67.0,67.0,59.0,55.0,67,2973.0,square2,f,0.3494,1,S,8.0
S11,0.0,49.0,53.0,49.0,45.0,49,49.0,square3,f,0.9381,2,S,11.0
S11,1.0,54.0,56.0,42.0,50.0,54,103.0,square1,r,0.0829,0,S,11.0
S11,2.0,39.0,51.0,39.0,43.0,51,154.0,square2,i,0.5267,1,S,11.0
S11,3.0,53.0,50.0,38.0,43.0,43,197.0,square4,j,0.3284,3,S,11.0
S11,4.0,47.0,54.0,39.0,48.0,48,245.0,square4,j,0.5277,3,S,11.0
S11,5.0,47.0,52.0,40.0,46.0,46,291.0,square4,j,0.0017,3,S,11.0
S11,6.0,47.0,46.0,44.0,54.0,46,337.0,square2,i,0.1072,1,S,11.0
S11,7.0,48.0,51.0,35.0,51.0,48,385.0,square1,r,0.1502,0,S,11.0
S11,8.0,52.0,49.0,36.0,43.0,36,421.0,square3,f,0.5172,2,S,11.0
S11,9.0,47.0,53.0,41.0,55.0,41,462.0,square3,f,0.347,2,S,11.0
S11,10.0,44.0,48.0,41.0,43.0,41,503.0,square3,f,1.0213,2,S,11.0
S11,11.0,41.0,54.0,38.0,43.0,54,557.0,square2,i,0.4932,1,S,11.0
S11,12.0,45.0,54.0,44.0,45.0,45,602.0,square4,j,0.1671,3,S,11.0
S11,13.0,54.0,52.0,44.0,50.0,50,652.0,square4,j,0.3671,3,S,11.0
S11,14.0,57.0,58.0,36.0,45.0,57,709.0,square1,r,0.5138,0,S,11.0
S11,15.0,48.0,54.0,43.0,49.0,43,752.0,square3,f,0.3361,2,S,11.0
S11,16.0,58.0,47.0,42.0,46.0,42,794.0,square3,f,0.6087,2,S,11.0
S11,17.0,41.0,61.0,42.0,53.0,42,836.0,square3,f,0.4939,2,S,11.0
S11,18.0,51.0,58.0,33.0,39.0,51,887.0,square1,r,0.5625,0,S,11.0
S11,19.0,48.0,49.0,37.0,42.0,49,936.0,square2,i,0.6149,1,S,11.0
S11,20.0,52.0,52.0,45.0,46.0,46,982.0,square4,j,0.3183,3,S,11.0
S11,21.0,47.0,53.0,44.0,51.0,44,1026.0,square3,f,0.0384,2,S,11.0
S11,22.0,49.0,54.0,37.0,41.0,37,1063.0,square3,f,0.2708,2,S,11.0
S11,23.0,52.0,54.0,41.0,45.0,41,1104.0,square3,f,0.1858,2,S,11.0
S11,24.0,42.0,56.0,41.0,45.0,42,1146.0,square1,r,0.2328,0,S,11.0
S11,25.0,52.0,56.0,42.0,44.0,52,1198.0,square1,r,0.2797,0,S,11.0
S11,26.0,43.0,56.0,41.0,45.0,56,1254.0,square2,i,0.0678,1,S,11.0
S11,27.0,48.0,50.0,40.0,43.0,50,1304.0,square2,i,0.3952,1,S,11.0
S11,28.0,46.0,49.0,38.0,48.0,48,1352.0,square4,j,0.4723,3,S,11.0
S11,29.0,46.0,55.0,40.0,42.0,55,1407.0,square2,i,0.2655,1,S,11.0
S11,30.0,46.0,56.0,43.0,37.0,56,1463.0,square2,i,1.1294,1,S,11.0
S11,31.0,42.0,49.0,44.0,42.0,42,1505.0,square1,r,0.2958,0,S,11.0
S11,32.0,51.0,52.0,36.0,40.0,52,1557.0,square2,i,0.1357,1,S,11.0
S11,33.0,44.0,53.0,39.0,43.0,39,1596.0,square3,f,0.2783,2,S,11.0
S11,34.0,52.0,52.0,43.0,49.0,49,1645.0,square4,j,0.2946,3,S,11.0
S11,35.0,53.0,51.0,38.0,45.0,51,1696.0,square2,i,0.3278,1,S,11.0
S11,36.0,50.0,44.0,42.0,48.0,50,1746.0,square1,r,0.5602,0,S,11.0
S11,37.0,49.0,51.0,40.0,48.0,51,1797.0,square2,i,0.2747,1,S,11.0
S11,38.0,47.0,47.0,39.0,38.0,47,1844.0,square1,r,0.5752,0,S,11.0
S11,39.0,51.0,55.0,40.0,42.0,40,1884.0,square3,f,0.6747,2,S,11.0
S11,40.0,50.0,52.0,41.0,44.0,44,1928.0,square4,j,0.628,3,S,11.0
S11,41.0,47.0,50.0,46.0,50.0,50,1978.0,square2,i,0.4174,1,S,11.0
S11,42.0,52.0,48.0,41.0,47.0,52,2030.0,square1,r,0.0839,0,S,11.0
S11,43.0,50.0,56.0,34.0,42.0,56,2086.0,square2,i,0.2944,1,S,11.0
S11,44.0,42.0,48.0,37.0,49.0,42,2128.0,square1,r,0.485,0,S,11.0
S11,45.0,47.0,47.0,41.0,40.0,47,2175.0,square2,i,0.5655,1,S,11.0
S11,46.0,50.0,56.0,40.0,44.0,56,2231.0,square2,i,0.3162,1,S,11.0
S11,47.0,46.0,48.0,38.0,47.0,48,2279.0,square2,i,0.2327,1,S,11.0
S11,48.0,45.0,54.0,44.0,41.0,54,2333.0,square2,i,0.1951,1,S,11.0
S11,49.0,44.0,53.0,41.0,41.0,53,2386.0,square2,i,0.7013,1,S,11.0
S12,0.0,38.0,42.0,30.0,42.0,30,30.0,square3,j,0.3327,2,S,12.0
S12,1.0,30.0,42.0,28.0,37.0,30,60.0,square1,f,0.503,0,S,12.0
S12,2.0,34.0,41.0,38.0,43.0,41,101.0,square2,r,0.3961,1,S,12.0
S12,3.0,38.0,51.0,38.0,38.0,51,152.0,square2,r,0.4424,1,S,12.0
S12,4.0,32.0,37.0,33.0,45.0,37,189.0,square2,r,0.1316,1,S,12.0
S12,5.0,38.0,52.0,36.0,35.0,35,224.0,square4,i,0.2511,3,S,12.0
S12,6.0,30.0,43.0,30.0,38.0,38,262.0,square4,i,0.4419,3,S,12.0
S12,7.0,38.0,39.0,30.0,39.0,39,301.0,square4,i,0.3857,3,S,12.0
S12,8.0,37.0,49.0,35.0,38.0,35,336.0,square3,j,0.2926,2,S,12.0
S12,9.0,37.0,44.0,29.0,38.0,29,365.0,square3,j,0.7303,2,S,12.0
S12,10.0,35.0,42.0,30.0,45.0,35,400.0,square1,f,0.3476,0,S,12.0
S12,11.0,34.0,45.0,36.0,32.0,34,434.0,square1,f,0.0021,0,S,12.0
S12,12.0,33.0,45.0,35.0,42.0,33,467.0,square1,f,0.1466,0,S,12.0
S12,13.0,36.0,36.0,29.0,40.0,36,503.0,square1,f,0.0609,0,S,12.0
S12,14.0,36.0,49.0,32.0,42.0,49,552.0,square2,r,0.5497,1,S,12.0
S12,15.0,35.0,43.0,35.0,46.0,99999,552.0,invalid,,,-1,S,12.0
S12,16.0,39.0,48.0,41.0,43.0,99999,552.0,invalid,,,-1,S,12.0
S12,17.0,35.0,47.0,27.0,38.0,99999,552.0,invalid,,,-1,S,12.0
S12,18.0,37.0,51.0,33.0,33.0,33,585.0,square3,j,0.131,2,S,12.0
S12,19.0,41.0,42.0,33.0,36.0,36,621.0,square4,i,0.1181,3,S,12.0
S12,20.0,34.0,44.0,26.0,41.0,26,647.0,square3,j,0.2385,2,S,12.0
S12,21.0,35.0,37.0,29.0,35.0,35,682.0,square1,f,0.2512,0,S,12.0
S12,22.0,37.0,48.0,31.0,41.0,48,730.0,square2,r,0.5051,1,S,12.0
S12,23.0,36.0,43.0,27.0,45.0,43,773.0,square2,r,1.1016,1,S,12.0
S12,24.0,39.0,48.0,38.0,38.0,99999,773.0,invalid,,,-1,S,12.0
S12,25.0,31.0,43.0,30.0,40.0,99999,773.0,invalid,,,-1,S,12.0
S12,26.0,35.0,48.0,34.0,33.0,99999,773.0,invalid,,,-1,S,12.0
S12,27.0,46.0,46.0,28.0,38.0,99999,773.0,invalid,,,-1,S,12.0
S12,28.0,32.0,37.0,32.0,40.0,99999,773.0,invalid,,,-1,S,12.0
S12,29.0,38.0,41.0,32.0,44.0,99999,773.0,invalid,,,-1,S,12.0
S12,30.0,32.0,48.0,29.0,42.0,32,805.0,square1,f,0.2607,0,S,12.0
S12,31.0,34.0,46.0,30.0,42.0,30,835.0,square3,j,0.311,2,S,12.0
S12,32.0,39.0,43.0,41.0,40.0,39,874.0,square1,f,0.4626,0,S,12.0
S12,33.0,36.0,47.0,33.0,46.0,33,907.0,square3,j,0.0717,2,S,12.0
S12,34.0,36.0,41.0,34.0,41.0,41,948.0,square2,r,0.2528,1,S,12.0
S12,35.0,34.0,42.0,31.0,43.0,43,991.0,square4,i,0.2296,3,S,12.0
S12,36.0,39.0,43.0,26.0,33.0,33,1024.0,square4,i,0.0284,3,S,12.0
S12,37.0,39.0,49.0,30.0,42.0,42,1066.0,square4,i,0.221,3,S,12.0
S12,38.0,33.0,47.0,36.0,41.0,41,1107.0,square4,i,0.2519,3,S,12.0
S12,39.0,29.0,46.0,35.0,36.0,36,1143.0,square4,i,0.3635,3,S,12.0
S12,40.0,39.0,39.0,29.0,36.0,36,1179.0,square4,i,0.4078,3,S,12.0
S12,41.0,33.0,44.0,31.0,40.0,44,1223.0,square2,r,0.3321,1,S,12.0
S12,42.0,34.0,46.0,25.0,37.0,46,1269.0,square2,r,0.3412,1,S,12.0
S12,43.0,37.0,42.0,30.0,42.0,42,1311.0,square2,r,0.3627,1,S,12.0
S12,44.0,33.0,49.0,36.0,39.0,39,1350.0,square4,i,0.4412,3,S,12.0
S12,45.0,35.0,40.0,30.0,47.0,40,1390.0,square2,r,0.4524,1,S,12.0
S12,46.0,40.0,41.0,29.0,35.0,29,1419.0,square3,j,0.7647,2,S,12.0
S12,47.0,32.0,42.0,28.0,43.0,32,1451.0,square1,f,0.3507,0,S,12.0
S12,48.0,43.0,47.0,31.0,38.0,38,1489.0,square4,i,1.0077,3,S,12.0
S12,49.0,37.0,41.0,35.0,40.0,41,1530.0,square2,r,1.1015,1,S,12.0
S1,0.0,72.0,58.0,70.0,66.0,58,58.0,square2,f,0.9621,1,S,1.0
S1,1.0,75.0,64.0,66.0,69.0,64,122.0,square2,f,0.8841,1,S,1.0
S1,2.0,75.0,62.0,62.0,79.0,62,184.0,square2,f,0.1286,1,S,1.0
S1,3.0,68.0,62.0,63.0,69.0,63,247.0,square3,r,0.0037,2,S,1.0
S1,4.0,82.0,63.0,64.0,73.0,82,329.0,square1,i,0.5168,0,S,1.0
S1,5.0,66.0,70.0,65.0,73.0,66,395.0,square1,i,0.2714,0,S,1.0
S1,6.0,73.0,65.0,62.0,65.0,73,468.0,square1,i,0.2168,0,S,1.0
S1,7.0,70.0,61.0,65.0,66.0,70,538.0,square1,i,0.1954,0,S,1.0
S1,8.0,78.0,63.0,67.0,68.0,78,616.0,square1,i,0.2046,0,S,1.0
S1,9.0,74.0,67.0,66.0,68.0,74,690.0,square1,i,0.0423,0,S,1.0
S1,10.0,73.0,59.0,68.0,68.0,73,763.0,square1,i,1.1639,0,S,1.0
S1,11.0,76.0,65.0,62.0,81.0,76,839.0,square1,i,0.2696,0,S,1.0
S1,12.0,77.0,66.0,69.0,63.0,77,916.0,square1,i,0.2481,0,S,1.0
S1,13.0,75.0,63.0,68.0,73.0,75,991.0,square1,i,0.8655,0,S,1.0
S1,14.0,67.0,60.0,67.0,69.0,67,1058.0,square1,i,0.3643,0,S,1.0
S1,15.0,70.0,63.0,69.0,73.0,70,1128.0,square1,i,0.1072,0,S,1.0
S1,16.0,69.0,61.0,69.0,69.0,69,1197.0,square1,i,0.2488,0,S,1.0
S1,17.0,73.0,68.0,67.0,73.0,73,1270.0,square1,i,0.6304,0,S,1.0
S1,18.0,70.0,58.0,73.0,66.0,70,1340.0,square1,i,1.0056,0,S,1.0
S1,19.0,75.0,58.0,62.0,68.0,75,1415.0,square1,i,0.4011,0,S,1.0
S1,20.0,76.0,58.0,72.0,67.0,76,1491.0,square1,i,0.253,0,S,1.0
S1,21.0,69.0,66.0,66.0,67.0,69,1560.0,square1,i,1.3932,0,S,1.0
S1,22.0,70.0,68.0,65.0,65.0,70,1630.0,square1,i,0.358,0,S,1.0
S1,23.0,71.0,60.0,64.0,64.0,71,1701.0,square1,i,0.3159,0,S,1.0
S1,24.0,70.0,72.0,62.0,67.0,70,1771.0,square1,i,0.9793,0,S,1.0
S1,25.0,68.0,60.0,70.0,65.0,68,1839.0,square1,i,0.7617,0,S,1.0
S1,26.0,76.0,64.0,72.0,69.0,99999,1839.0,invalid,,,-1,S,1.0
S1,27.0,71.0,56.0,70.0,65.0,71,1910.0,square1,i,0.5189,0,S,1.0
S1,28.0,67.0,67.0,71.0,76.0,67,1977.0,square1,i,0.1743,0,S,1.0
S1,29.0,78.0,64.0,64.0,74.0,78,2055.0,square1,i,0.4831,0,S,1.0
S1,30.0,74.0,63.0,65.0,71.0,74,2129.0,square1,i,0.1621,0,S,1.0
S1,31.0,78.0,58.0,69.0,69.0,78,2207.0,square1,i,0.1491,0,S,1.0
S1,32.0,71.0,67.0,68.0,60.0,71,2278.0,square1,i,0.1038,0,S,1.0
S1,33.0,68.0,63.0,65.0,73.0,68,2346.0,square1,i,0.0877,0,S,1.0
S1,34.0,71.0,62.0,74.0,73.0,71,2417.0,square1,i,0.543,0,S,1.0
S1,35.0,75.0,59.0,67.0,77.0,75,2492.0,square1,i,0.3275,0,S,1.0
S1,36.0,77.0,60.0,66.0,67.0,77,2569.0,square1,i,0.5178,0,S,1.0
S1,37.0,69.0,60.0,69.0,75.0,69,2638.0,square1,i,0.2349,0,S,1.0
S1,38.0,77.0,64.0,62.0,70.0,77,2715.0,square1,i,0.0784,0,S,1.0
S1,39.0,72.0,66.0,69.0,65.0,72,2787.0,square1,i,0.403,0,S,1.0
S1,40.0,69.0,63.0,66.0,69.0,69,2856.0,square1,i,0.6031,0,S,1.0
S1,41.0,72.0,62.0,70.0,70.0,99999,2856.0,invalid,,,-1,S,1.0
S1,42.0,78.0,60.0,63.0,62.0,78,2934.0,square1,i,1.6319,0,S,1.0
S1,43.0,71.0,62.0,67.0,73.0,71,3005.0,square1,i,0.3864,0,S,1.0
S1,44.0,75.0,63.0,69.0,73.0,75,3080.0,square1,i,0.6451,0,S,1.0
S1,45.0,66.0,60.0,68.0,73.0,66,3146.0,square1,i,0.5604,0,S,1.0
S1,46.0,74.0,67.0,69.0,71.0,74,3220.0,square1,i,0.4817,0,S,1.0
S1,47.0,71.0,66.0,68.0,70.0,71,3291.0,square1,i,0.913,0,S,1.0
S1,48.0,72.0,75.0,71.0,77.0,72,3363.0,square1,i,0.38,0,S,1.0
S1,49.0,65.0,57.0,66.0,75.0,65,3428.0,square1,i,0.1731,0,S,1.0
S2,0.0,62.0,57.0,71.0,74.0,71,71.0,square3,f,0.7971,2,S,2.0
S2,1.0,64.0,59.0,72.0,67.0,64,135.0,square1,j,0.0305,0,S,2.0
S2,2.0,68.0,57.0,75.0,68.0,75,210.0,square3,f,0.0024,2,S,2.0
S2,3.0,69.0,57.0,80.0,70.0,69,279.0,square1,j,0.2001,0,S,2.0
S2,4.0,66.0,60.0,74.0,68.0,66,345.0,square1,j,0.3716,0,S,2.0
S2,5.0,63.0,62.0,77.0,72.0,62,407.0,square2,i,0.3623,1,S,2.0
S2,6.0,69.0,61.0,75.0,74.0,74,481.0,square4,r,0.3531,3,S,2.0
S2,7.0,74.0,66.0,79.0,72.0,79,560.0,square3,f,0.5688,2,S,2.0
S2,8.0,81.0,65.0,76.0,72.0,72,632.0,square4,r,0.0303,3,S,2.0
S2,9.0,70.0,66.0,78.0,70.0,70,702.0,square4,r,0.2964,3,S,2.0
S2,10.0,70.0,72.0,70.0,74.0,74,776.0,square4,r,0.1778,3,S,2.0
S2,11.0,64.0,66.0,72.0,67.0,66,842.0,square2,i,0.3444,1,S,2.0
S2,12.0,66.0,57.0,70.0,67.0,57,899.0,square2,i,0.2446,1,S,2.0
S2,13.0,68.0,68.0,71.0,73.0,68,967.0,square1,j,0.235,0,S,2.0
S2,14.0,70.0,63.0,77.0,71.0,70,1037.0,square1,j,0.2718,0,S,2.0
S2,15.0,64.0,66.0,75.0,66.0,64,1101.0,square1,j,0.1953,0,S,2.0
S2,16.0,67.0,61.0,73.0,70.0,73,1174.0,square3,f,0.1312,2,S,2.0
S2,17.0,65.0,58.0,71.0,75.0,71,1245.0,square3,f,0.1228,2,S,2.0
S2,18.0,72.0,64.0,81.0,61.0,81,1326.0,square3,f,0.2497,2,S,2.0
S2,19.0,60.0,63.0,72.0,65.0,72,1398.0,square3,f,0.1956,2,S,2.0
S2,20.0,68.0,56.0,71.0,70.0,71,1469.0,square3,f,0.002,2,S,2.0
S2,21.0,65.0,65.0,74.0,71.0,74,1543.0,square3,f,0.6631,2,S,2.0
S2,22.0,69.0,62.0,77.0,72.0,77,1620.0,square3,f,0.0132,2,S,2.0
S2,23.0,64.0,71.0,74.0,65.0,74,1694.0,square3,f,0.3286,2,S,2.0
S2,24.0,66.0,62.0,78.0,70.0,78,1772.0,square3,f,0.1351,2,S,2.0
S2,25.0,67.0,69.0,76.0,66.0,76,1848.0,square3,f,0.1716,2,S,2.0
S2,26.0,65.0,63.0,74.0,69.0,74,1922.0,square3,f,0.5709,2,S,2.0
S2,27.0,68.0,64.0,67.0,68.0,67,1989.0,square3,f,0.2349,2,S,2.0
S2,28.0,61.0,52.0,71.0,68.0,71,2060.0,square3,f,0.245,2,S,2.0
S2,29.0,67.0,64.0,73.0,69.0,73,2133.0,square3,f,0.1377,2,S,2.0
S2,30.0,67.0,53.0,77.0,67.0,77,2210.0,square3,f,0.2686,2,S,2.0
S2,31.0,67.0,69.0,69.0,68.0,69,2279.0,square3,f,0.7047,2,S,2.0
S2,32.0,71.0,63.0,73.0,70.0,73,2352.0,square3,f,0.8953,2,S,2.0
S2,33.0,61.0,65.0,68.0,71.0,68,2420.0,square3,f,0.0341,2,S,2.0
S2,34.0,66.0,55.0,78.0,68.0,78,2498.0,square3,f,0.1323,2,S,2.0
S2,35.0,60.0,57.0,66.0,66.0,66,2564.0,square3,f,0.2359,2,S,2.0
S2,36.0,64.0,63.0,73.0,72.0,73,2637.0,square3,f,0.5988,2,S,2.0
S2,37.0,65.0,62.0,75.0,68.0,75,2712.0,square3,f,0.088,2,S,2.0
S2,38.0,69.0,57.0,71.0,62.0,71,2783.0,square3,f,0.0181,2,S,2.0
S2,39.0,72.0,66.0,74.0,74.0,74,2857.0,square3,f,0.3665,2,S,2.0
S2,40.0,66.0,63.0,76.0,59.0,76,2933.0,square3,f,0.4831,2,S,2.0
S2,41.0,74.0,64.0,67.0,76.0,67,3000.0,square3,f,0.0463,2,S,2.0
S2,42.0,62.0,67.0,72.0,68.0,72,3072.0,square3,f,0.0248,2,S,2.0
S2,43.0,69.0,63.0,75.0,71.0,75,3147.0,square3,f,0.3635,2,S,2.0
S2,44.0,72.0,60.0,74.0,67.0,74,3221.0,square3,f,0.3827,2,S,2.0
S2,45.0,69.0,63.0,76.0,73.0,76,3297.0,square3,f,0.5681,2,S,2.0
S2,46.0,64.0,71.0,75.0,72.0,75,3372.0,square3,f,0.3618,2,S,2.0
S2,47.0,75.0,62.0,75.0,69.0,75,3447.0,square3,f,0.4132,2,S,2.0
S2,48.0,66.0,65.0,74.0,68.0,74,3521.0,square3,f,0.7535,2,S,2.0
S2,49.0,67.0,64.0,72.0,76.0,72,3593.0,square3,f,0.2251,2,S,2.0
V8,0.0,49.0,55.0,64.0,74.0,49,49.0,square1,f,0.483,0,V,8.0
V8,1.0,51.0,54.0,70.0,81.0,81,130.0,square4,j,0.3057,3,V,8.0
V8,2.0,46.0,62.0,70.0,77.0,70,200.0,square3,i,0.0129,2,V,8.0
V8,3.0,46.0,56.0,67.0,75.0,56,256.0,square2,r,0.1716,1,V,8.0
V8,4.0,50.0,59.0,67.0,83.0,50,306.0,square1,f,0.2076,0,V,8.0
V8,5.0,51.0,54.0,65.0,78.0,51,357.0,square1,f,0.229,0,V,8.0
V8,6.0,45.0,57.0,66.0,80.0,45,402.0,square1,f,0.1186,0,V,8.0
V8,7.0,46.0,64.0,68.0,77.0,46,448.0,square1,f,0.178,0,V,8.0
V8,8.0,50.0,57.0,66.0,73.0,57,505.0,square2,r,0.0658,1,V,8.0
V8,9.0,46.0,56.0,71.0,72.0,56,561.0,square2,r,0.6833,1,V,8.0
V8,10.0,56.0,58.0,67.0,75.0,58,619.0,square2,r,0.1787,1,V,8.0
V8,11.0,50.0,61.0,69.0,74.0,69,688.0,square3,i,0.2488,2,V,8.0
V8,12.0,59.0,59.0,69.0,77.0,69,757.0,square3,i,0.2928,2,V,8.0
V8,13.0,50.0,56.0,72.0,77.0,72,829.0,square3,i,0.1188,2,V,8.0
V8,14.0,48.0,55.0,65.0,80.0,80,909.0,square4,j,0.2297,3,V,8.0
V8,15.0,48.0,58.0,65.0,76.0,76,985.0,square4,j,0.1674,3,V,8.0
V8,16.0,49.0,58.0,67.0,75.0,75,1060.0,square4,j,0.1847,3,V,8.0
V8,17.0,51.0,56.0,68.0,76.0,76,1136.0,square4,j,0.3987,3,V,8.0
V8,18.0,52.0,63.0,69.0,80.0,80,1216.0,square4,j,0.6212,3,V,8.0
V8,19.0,54.0,54.0,71.0,79.0,79,1295.0,square4,j,0.6524,3,V,8.0
V8,20.0,48.0,53.0,62.0,77.0,77,1372.0,square4,j,0.3282,3,V,8.0
V8,21.0,44.0,61.0,66.0,77.0,77,1449.0,square4,j,0.0282,3,V,8.0
V8,22.0,52.0,58.0,64.0,78.0,78,1527.0,square4,j,0.5955,3,V,8.0
V8,23.0,50.0,49.0,67.0,79.0,79,1606.0,square4,j,0.5702,3,V,8.0
V8,24.0,49.0,59.0,69.0,74.0,74,1680.0,square4,j,0.6502,3,V,8.0
V8,25.0,46.0,61.0,65.0,81.0,65,1745.0,square3,i,0.4921,2,V,8.0
V8,26.0,49.0,58.0,63.0,35.0,35,1780.0,square4,j,0.3646,3,V,8.0
V8,27.0,48.0,51.0,66.0,41.0,48,1828.0,square1,f,0.3874,0,V,8.0
V8,28.0,46.0,55.0,65.0,38.0,46,1874.0,square1,f,0.0175,0,V,8.0
V8,29.0,47.0,58.0,69.0,40.0,47,1921.0,square1,f,0.0789,0,V,8.0
V8,30.0,42.0,55.0,67.0,43.0,55,1976.0,square2,r,0.3168,1,V,8.0
V8,31.0,49.0,56.0,64.0,36.0,56,2032.0,square2,r,0.1113,1,V,8.0
V8,32.0,49.0,55.0,69.0,38.0,55,2087.0,square2,r,0.6654,1,V,8.0
V8,33.0,44.0,52.0,65.0,48.0,65,2152.0,square3,i,0.3501,2,V,8.0
V8,34.0,44.0,57.0,70.0,45.0,45,2197.0,square4,j,0.2638,3,V,8.0
V8,35.0,44.0,54.0,68.0,38.0,44,2241.0,square1,f,0.299,0,V,8.0
V8,36.0,45.0,56.0,64.0,40.0,56,2297.0,square2,r,0.21,1,V,8.0
V8,37.0,47.0,57.0,66.0,37.0,66,2363.0,square3,i,0.3487,2,V,8.0
V8,38.0,49.0,50.0,66.0,37.0,66,2429.0,square3,i,0.2377,2,V,8.0
V8,39.0,51.0,56.0,61.0,39.0,61,2490.0,square3,i,0.1134,2,V,8.0
V8,40.0,47.0,59.0,66.0,41.0,66,2556.0,square3,i,0.1447,2,V,8.0
V8,41.0,42.0,56.0,69.0,42.0,69,2625.0,square3,i,0.1186,2,V,8.0
V8,42.0,47.0,57.0,72.0,35.0,72,2697.0,square3,i,0.2958,2,V,8.0
V8,43.0,47.0,57.0,63.0,44.0,63,2760.0,square3,i,0.2558,2,V,8.0
V8,44.0,45.0,58.0,67.0,42.0,67,2827.0,square3,i,0.3336,2,V,8.0
V8,45.0,44.0,56.0,66.0,43.0,66,2893.0,square3,i,0.1752,2,V,8.0
V8,46.0,46.0,53.0,70.0,37.0,70,2963.0,square3,i,0.2011,2,V,8.0
V8,47.0,54.0,53.0,71.0,41.0,71,3034.0,square3,i,0.0074,2,V,8.0
V8,48.0,49.0,53.0,69.0,37.0,69,3103.0,square3,i,0.2529,2,V,8.0
V8,49.0,39.0,57.0,65.0,47.0,65,3168.0,square3,i,0.108,2,V,8.0
V8,50.0,48.0,55.0,65.0,41.0,65,3233.0,square3,i,0.5073,2,V,8.0
V8,51.0,45.0,61.0,68.0,43.0,68,3301.0,square3,i,0.2264,2,V,8.0
V8,52.0,53.0,52.0,68.0,37.0,68,3369.0,square3,i,0.1837,2,V,8.0
V8,53.0,47.0,55.0,66.0,46.0,55,3424.0,square2,r,0.414,1,V,8.0
V8,54.0,49.0,53.0,61.0,39.0,39,3463.0,square4,j,0.2611,3,V,8.0
V8,55.0,53.0,70.0,55.0,72.0,53,3516.0,square1,f,0.2322,0,V,8.0
V8,56.0,57.0,63.0,48.0,73.0,48,3564.0,square3,i,0.2645,2,V,8.0
V8,57.0,53.0,71.0,45.0,80.0,45,3609.0,square3,i,0.2349,2,V,8.0
V8,58.0,57.0,69.0,52.0,73.0,57,3666.0,square1,f,0.2123,0,V,8.0
V8,59.0,58.0,67.0,54.0,73.0,58,3724.0,square1,f,0.0677,0,V,8.0
V8,60.0,55.0,66.0,47.0,76.0,55,3779.0,square1,f,0.8507,0,V,8.0
V8,61.0,56.0,65.0,54.0,72.0,56,3835.0,square1,f,0.2661,0,V,8.0
V8,62.0,56.0,65.0,49.0,75.0,56,3891.0,square1,f,0.4438,0,V,8.0
V8,63.0,61.0,65.0,44.0,78.0,61,3952.0,square1,f,0.2795,0,V,8.0
V8,64.0,54.0,66.0,48.0,75.0,54,4006.0,square1,f,0.1394,0,V,8.0
V8,65.0,59.0,65.0,46.0,79.0,59,4065.0,square1,f,0.1854,0,V,8.0
V8,66.0,51.0,62.0,46.0,73.0,51,4116.0,square1,f,0.263,0,V,8.0
V8,67.0,60.0,70.0,45.0,76.0,60,4176.0,square1,f,0.1203,0,V,8.0
V8,68.0,63.0,64.0,47.0,73.0,63,4239.0,square1,f,0.3015,0,V,8.0
V8,69.0,58.0,66.0,43.0,77.0,58,4297.0,square1,f,0.2374,0,V,8.0
V8,70.0,59.0,65.0,49.0,73.0,59,4356.0,square1,f,0.0417,0,V,8.0
V8,71.0,60.0,64.0,49.0,79.0,60,4416.0,square1,f,0.1671,0,V,8.0
V8,72.0,96.0,68.0,78.0,67.0,67,4483.0,square4,j,0.4954,3,V,8.0
V8,73.0,96.0,68.0,79.0,64.0,68,4551.0,square2,r,0.4333,1,V,8.0
V8,74.0,92.0,67.0,81.0,62.0,81,4632.0,square3,i,0.3071,2,V,8.0
V8,75.0,96.0,72.0,83.0,62.0,83,4715.0,square3,i,0.2619,2,V,8.0
V8,76.0,94.0,70.0,77.0,57.0,77,4792.0,square3,i,0.243,2,V,8.0
V8,77.0,91.0,68.0,81.0,59.0,81,4873.0,square3,i,0.0774,2,V,8.0
V8,78.0,90.0,73.0,80.0,63.0,80,4953.0,square3,i,0.7339,2,V,8.0
V8,79.0,90.0,73.0,83.0,61.0,83,5036.0,square3,i,0.2844,2,V,8.0
V8,80.0,95.0,75.0,81.0,66.0,81,5117.0,square3,i,0.2475,2,V,8.0
V8,81.0,92.0,72.0,81.0,57.0,81,5198.0,square3,i,0.1164,2,V,8.0
V8,82.0,91.0,71.0,80.0,61.0,80,5278.0,square3,i,0.0642,2,V,8.0
V8,83.0,90.0,66.0,83.0,62.0,83,5361.0,square3,i,0.2481,2,V,8.0
V8,84.0,93.0,67.0,87.0,65.0,87,5448.0,square3,i,0.2953,2,V,8.0
V8,85.0,85.0,70.0,80.0,62.0,80,5528.0,square3,i,0.2956,2,V,8.0
V8,86.0,84.0,72.0,85.0,62.0,85,5613.0,square3,i,0.2486,2,V,8.0
V8,87.0,91.0,68.0,82.0,65.0,82,5695.0,square3,i,0.2284,2,V,8.0
V8,88.0,93.0,67.0,83.0,61.0,83,5778.0,square3,i,0.3319,2,V,8.0
V8,89.0,95.0,68.0,78.0,66.0,78,5856.0,square3,i,0.24,2,V,8.0
V8,90.0,91.0,73.0,80.0,60.0,80,5936.0,square3,i,0.0284,2,V,8.0
V8,91.0,93.0,68.0,81.0,64.0,81,6017.0,square3,i,0.2961,2,V,8.0
V8,92.0,90.0,75.0,82.0,67.0,82,6099.0,square3,i,0.2325,2,V,8.0
V8,93.0,92.0,70.0,82.0,66.0,82,6181.0,square3,i,0.3799,2,V,8.0
V8,94.0,90.0,71.0,78.0,63.0,78,6259.0,square3,i,0.3312,2,V,8.0
V8,95.0,88.0,65.0,78.0,63.0,78,6337.0,square3,i,0.0288,2,V,8.0
V8,96.0,89.0,72.0,85.0,62.0,62,6399.0,square4,j,0.3557,3,V,8.0
V8,97.0,92.0,72.0,77.0,67.0,92,6491.0,square1,f,0.1024,0,V,8.0
V8,98.0,86.0,63.0,82.0,62.0,82,6573.0,square3,i,0.6021,2,V,8.0
V8,99.0,90.0,66.0,75.0,61.0,90,6663.0,square1,f,0.1725,0,V,8.0
V2,0.0,33.0,24.0,43.0,18.0,18,18.0,square4,f,0.5808,3,V,2.0
V2,1.0,33.0,29.0,42.0,21.0,29,47.0,square2,j,0.0632,1,V,2.0
V2,2.0,37.0,26.0,45.0,22.0,37,84.0,square1,i,0.1202,0,V,2.0
V2,3.0,39.0,26.0,41.0,20.0,41,125.0,square3,r,0.1551,2,V,2.0
V2,4.0,29.0,32.0,45.0,19.0,45,170.0,square3,r,0.239,2,V,2.0
V2,5.0,33.0,28.0,44.0,17.0,17,187.0,square4,f,0.0977,3,V,2.0
V2,6.0,32.0,24.0,49.0,20.0,24,211.0,square2,j,0.23,1,V,2.0
V2,7.0,32.0,21.0,42.0,13.0,21,232.0,square2,j,0.1947,1,V,2.0
V2,8.0,35.0,23.0,45.0,19.0,35,267.0,square1,i,0.1744,0,V,2.0
V2,9.0,33.0,28.0,46.0,17.0,33,300.0,square1,i,0.2016,0,V,2.0
V2,10.0,39.0,27.0,45.0,21.0,45,345.0,square3,r,0.1335,2,V,2.0
V2,11.0,30.0,23.0,44.0,22.0,44,389.0,square3,r,0.1475,2,V,2.0
V2,12.0,31.0,26.0,43.0,16.0,43,432.0,square3,r,0.1283,2,V,2.0
V2,13.0,35.0,26.0,43.0,22.0,43,475.0,square3,r,0.139,2,V,2.0
V2,14.0,35.0,29.0,46.0,19.0,46,521.0,square3,r,0.0288,2,V,2.0
V2,15.0,36.0,22.0,44.0,20.0,44,565.0,square3,r,0.0556,2,V,2.0
V2,16.0,33.0,27.0,45.0,19.0,45,610.0,square3,r,0.4368,2,V,2.0
V2,17.0,35.0,25.0,41.0,15.0,41,651.0,square3,r,0.0481,2,V,2.0
V2,18.0,37.0,27.0,51.0,21.0,37,688.0,square1,i,0.1073,0,V,2.0
V2,19.0,33.0,25.0,43.0,18.0,25,713.0,square2,j,0.1678,1,V,2.0
V2,20.0,39.0,25.0,43.0,20.0,43,756.0,square3,r,0.3792,2,V,2.0
V2,21.0,27.0,32.0,43.0,24.0,24,780.0,square4,f,0.0511,3,V,2.0
V2,22.0,35.0,27.0,50.0,13.0,50,830.0,square3,r,0.0806,2,V,2.0
V2,23.0,36.0,25.0,39.0,17.0,39,869.0,square3,r,0.318,2,V,2.0
V2,24.0,32.0,45.0,39.0,59.0,39,908.0,square3,r,0.245,2,V,2.0
V2,25.0,26.0,43.0,37.0,55.0,26,934.0,square1,i,0.3956,0,V,2.0
V2,26.0,23.0,45.0,39.0,58.0,45,979.0,square2,j,0.3723,1,V,2.0
V2,27.0,30.0,44.0,40.0,56.0,56,1035.0,square4,f,0.8961,3,V,2.0
V2,28.0,34.0,48.0,41.0,54.0,54,1089.0,square4,f,0.0938,3,V,2.0
V2,29.0,29.0,42.0,35.0,54.0,54,1143.0,square4,f,0.0736,3,V,2.0
V2,30.0,22.0,39.0,39.0,55.0,55,1198.0,square4,f,0.5379,3,V,2.0
V2,31.0,32.0,48.0,35.0,50.0,50,1248.0,square4,f,0.0382,3,V,2.0
V2,32.0,27.0,47.0,40.0,58.0,58,1306.0,square4,f,0.2217,3,V,2.0
V2,33.0,28.0,46.0,31.0,54.0,54,1360.0,square4,f,0.1951,3,V,2.0
V2,34.0,28.0,44.0,41.0,49.0,49,1409.0,square4,f,0.3137,3,V,2.0
V2,35.0,31.0,44.0,33.0,59.0,59,1468.0,square4,f,0.0888,3,V,2.0
V2,36.0,29.0,48.0,30.0,55.0,29,1497.0,square1,i,0.3076,0,V,2.0
V2,37.0,25.0,45.0,32.0,51.0,45,1542.0,square2,j,0.3414,1,V,2.0
V2,38.0,29.0,48.0,33.0,54.0,54,1596.0,square4,f,0.3859,3,V,2.0
V2,39.0,29.0,44.0,33.0,54.0,33,1629.0,square3,r,0.5415,2,V,2.0
V2,40.0,33.0,42.0,37.0,61.0,61,1690.0,square4,f,0.4297,3,V,2.0
V2,41.0,28.0,45.0,41.0,57.0,57,1747.0,square4,f,0.0959,3,V,2.0
V2,42.0,33.0,46.0,36.0,54.0,54,1801.0,square4,f,0.2775,3,V,2.0
V2,43.0,31.0,42.0,40.0,57.0,57,1858.0,square4,f,0.3742,3,V,2.0
V2,44.0,27.0,45.0,38.0,56.0,56,1914.0,square4,f,0.2973,3,V,2.0
V2,45.0,27.0,44.0,32.0,51.0,51,1965.0,square4,f,0.3288,3,V,2.0
V2,46.0,28.0,44.0,39.0,57.0,57,2022.0,square4,f,1.7698,3,V,2.0
V2,47.0,30.0,45.0,36.0,56.0,45,2067.0,square2,j,0.5881,1,V,2.0
V2,48.0,31.0,47.0,41.0,59.0,31,2098.0,square1,i,0.761,0,V,2.0
V2,49.0,32.0,45.0,33.0,57.0,33,2131.0,square3,r,0.4929,2,V,2.0
V2,50.0,24.0,38.0,36.0,52.0,52,2183.0,square4,f,0.3297,3,V,2.0
V2,51.0,29.0,48.0,34.0,54.0,54,2237.0,square4,f,0.2739,3,V,2.0
V2,52.0,30.0,50.0,38.0,56.0,56,2293.0,square4,f,0.2965,3,V,2.0
V2,53.0,27.0,47.0,33.0,55.0,55,2348.0,square4,f,0.2595,3,V,2.0
V2,54.0,34.0,21.0,45.0,25.0,25,2373.0,square4,f,0.3131,3,V,2.0
V2,55.0,36.0,19.0,39.0,24.0,24,2397.0,square4,f,0.0777,3,V,2.0
V2,56.0,29.0,19.0,45.0,18.0,18,2415.0,square4,f,0.428,3,V,2.0
V2,57.0,29.0,20.0,39.0,20.0,20,2435.0,square4,f,0.3187,3,V,2.0
V2,58.0,40.0,18.0,42.0,21.0,21,2456.0,square4,f,0.0625,3,V,2.0
V2,59.0,31.0,17.0,44.0,23.0,23,2479.0,square4,f,0.1375,3,V,2.0
V2,60.0,31.0,19.0,42.0,20.0,20,2499.0,square4,f,0.3337,3,V,2.0
V2,61.0,34.0,16.0,41.0,25.0,25,2524.0,square4,f,0.2208,3,V,2.0
V2,62.0,28.0,12.0,41.0,22.0,22,2546.0,square4,f,0.0481,3,V,2.0
V2,63.0,32.0,14.0,45.0,26.0,26,2572.0,square4,f,0.2269,3,V,2.0
V2,64.0,36.0,21.0,41.0,25.0,25,2597.0,square4,f,0.3881,3,V,2.0
V2,65.0,32.0,13.0,39.0,24.0,24,2621.0,square4,f,0.0974,3,V,2.0
V2,66.0,35.0,15.0,42.0,20.0,20,2641.0,square4,f,1.1951,3,V,2.0
V2,67.0,30.0,23.0,47.0,27.0,27,2668.0,square4,f,0.4005,3,V,2.0
V2,68.0,31.0,17.0,43.0,24.0,24,2692.0,square4,f,0.1985,3,V,2.0
V2,69.0,33.0,20.0,41.0,20.0,20,2712.0,square4,f,1.0829,3,V,2.0
V2,70.0,37.0,17.0,43.0,21.0,21,2733.0,square4,f,0.3533,3,V,2.0
V2,71.0,45.0,31.0,36.0,58.0,58,2791.0,square4,f,0.6125,3,V,2.0
V2,72.0,47.0,31.0,31.0,54.0,54,2845.0,square4,f,0.4809,3,V,2.0
V2,73.0,50.0,30.0,33.0,55.0,55,2900.0,square4,f,0.3333,3,V,2.0
V2,74.0,45.0,31.0,36.0,51.0,51,2951.0,square4,f,0.3524,3,V,2.0
V2,75.0,47.0,28.0,38.0,54.0,54,3005.0,square4,f,0.3682,3,V,2.0
V2,76.0,52.0,33.0,35.0,60.0,60,3065.0,square4,f,0.3947,3,V,2.0
V2,77.0,41.0,29.0,37.0,53.0,53,3118.0,square4,f,0.4005,3,V,2.0
V2,78.0,51.0,24.0,34.0,56.0,56,3174.0,square4,f,0.6409,3,V,2.0
V2,79.0,41.0,34.0,36.0,52.0,52,3226.0,square4,f,0.3935,3,V,2.0
V2,80.0,48.0,31.0,37.0,51.0,51,3277.0,square4,f,0.2551,3,V,2.0
V2,81.0,43.0,32.0,40.0,53.0,53,3330.0,square4,f,0.3654,3,V,2.0
V2,82.0,48.0,25.0,37.0,58.0,58,3388.0,square4,f,0.2805,3,V,2.0
V2,83.0,45.0,32.0,36.0,61.0,61,3449.0,square4,f,0.068,3,V,2.0
V2,84.0,47.0,29.0,39.0,60.0,60,3509.0,square4,f,0.3503,3,V,2.0
V2,85.0,49.0,30.0,39.0,54.0,54,3563.0,square4,f,0.095,3,V,2.0
V2,86.0,46.0,28.0,33.0,51.0,51,3614.0,square4,f,0.4136,3,V,2.0
V2,87.0,45.0,24.0,37.0,55.0,55,3669.0,square4,f,0.0659,3,V,2.0
V2,88.0,48.0,29.0,42.0,54.0,54,3723.0,square4,f,0.941,3,V,2.0
V2,89.0,43.0,31.0,38.0,52.0,52,3775.0,square4,f,0.7978,3,V,2.0
V2,90.0,51.0,33.0,36.0,56.0,56,3831.0,square4,f,0.0019,3,V,2.0
V2,91.0,49.0,32.0,37.0,59.0,59,3890.0,square4,f,0.3841,3,V,2.0
V2,92.0,47.0,29.0,37.0,56.0,56,3946.0,square4,f,0.9301,3,V,2.0
V2,93.0,45.0,27.0,35.0,56.0,56,4002.0,square4,f,0.4627,3,V,2.0
V2,94.0,45.0,31.0,31.0,49.0,49,4051.0,square4,f,0.9289,3,V,2.0
V2,95.0,47.0,33.0,36.0,52.0,52,4103.0,square4,f,0.3289,3,V,2.0
V2,96.0,44.0,28.0,37.0,59.0,59,4162.0,square4,f,0.9446,3,V,2.0
V2,97.0,48.0,28.0,33.0,55.0,55,4217.0,square4,f,0.5889,3,V,2.0
V2,98.0,49.0,29.0,39.0,60.0,60,4277.0,square4,f,0.05,3,V,2.0
V2,99.0,44.0,30.0,36.0,50.0,50,4327.0,square4,f,0.2054,3,V,2.0
V10,0.0,28.0,21.0,37.0,46.0,99999,0.0,invalid,,,-1,V,10.0
V10,1.0,26.0,19.0,41.0,49.0,41,41.0,square3,j,0.189,2,V,10.0
V10,2.0,29.0,20.0,43.0,48.0,20,61.0,square2,i,0.5503,1,V,10.0
V10,3.0,27.0,27.0,37.0,44.0,44,105.0,square4,r,0.2958,3,V,10.0
V10,4.0,28.0,16.0,36.0,47.0,28,133.0,square1,f,0.2939,0,V,10.0
V10,5.0,33.0,25.0,42.0,54.0,42,175.0,square3,j,0.1934,2,V,10.0
V10,6.0,28.0,19.0,35.0,45.0,45,220.0,square4,r,0.246,3,V,10.0
V10,7.0,30.0,24.0,35.0,49.0,49,269.0,square4,r,0.2788,3,V,10.0
V10,8.0,37.0,29.0,41.0,47.0,47,316.0,square4,r,0.1335,3,V,10.0
V10,9.0,28.0,21.0,41.0,48.0,48,364.0,square4,r,0.0485,3,V,10.0
V10,10.0,27.0,22.0,39.0,42.0,42,406.0,square4,r,0.2693,3,V,10.0
V10,11.0,32.0,16.0,41.0,48.0,48,454.0,square4,r,0.7278,3,V,10.0
V10,12.0,34.0,15.0,33.0,49.0,49,503.0,square4,r,0.0422,3,V,10.0
V10,13.0,36.0,19.0,41.0,45.0,45,548.0,square4,r,0.0381,3,V,10.0
V10,14.0,28.0,23.0,35.0,53.0,53,601.0,square4,r,0.2624,3,V,10.0
V10,15.0,26.0,28.0,40.0,50.0,50,651.0,square4,r,1.3957,3,V,10.0
V10,16.0,30.0,25.0,42.0,47.0,47,698.0,square4,r,0.7982,3,V,10.0
V10,17.0,31.0,19.0,38.0,50.0,50,748.0,square4,r,0.4603,3,V,10.0
V10,18.0,34.0,21.0,35.0,48.0,48,796.0,square4,r,0.3998,3,V,10.0
V10,19.0,31.0,24.0,39.0,46.0,46,842.0,square4,r,0.0152,3,V,10.0
V10,20.0,28.0,22.0,42.0,47.0,47,889.0,square4,r,0.8602,3,V,10.0
V10,21.0,24.0,20.0,41.0,47.0,47,936.0,square4,r,0.5961,3,V,10.0
V10,22.0,32.0,22.0,34.0,44.0,44,980.0,square4,r,0.6697,3,V,10.0
V10,23.0,29.0,23.0,37.0,47.0,47,1027.0,square4,r,0.8354,3,V,10.0
V10,24.0,25.0,25.0,38.0,46.0,46,1073.0,square4,r,0.2471,3,V,10.0
V10,25.0,30.0,24.0,41.0,45.0,45,1118.0,square4,r,0.198,3,V,10.0
V10,26.0,32.0,17.0,38.0,49.0,49,1167.0,square4,r,0.2612,3,V,10.0
V10,27.0,34.0,21.0,38.0,47.0,47,1214.0,square4,r,1.3746,3,V,10.0
V10,28.0,29.0,21.0,37.0,45.0,37,1251.0,square3,j,0.0373,2,V,10.0
V10,29.0,30.0,20.0,31.0,47.0,47,1298.0,square4,r,0.416,3,V,10.0
V10,30.0,28.0,21.0,35.0,44.0,44,1342.0,square4,r,0.0969,3,V,10.0
V10,31.0,36.0,25.0,14.0,8.0,8,1350.0,square4,r,1.139,3,V,10.0
V10,32.0,38.0,27.0,19.0,11.0,11,1361.0,square4,r,0.504,3,V,10.0
V10,33.0,39.0,21.0,20.0,13.0,99999,1361.0,invalid,,,-1,V,10.0
V10,34.0,34.0,24.0,20.0,10.0,99999,1361.0,invalid,,,-1,V,10.0
V10,35.0,44.0,29.0,17.0,11.0,29,1390.0,square2,i,0.8525,1,V,10.0
V10,36.0,33.0,30.0,17.0,9.0,30,1420.0,square2,i,0.2357,1,V,10.0
V10,37.0,31.0,27.0,12.0,6.0,27,1447.0,square2,i,0.2749,1,V,10.0
V10,38.0,34.0,29.0,15.0,10.0,29,1476.0,square2,i,0.2627,1,V,10.0
V10,39.0,35.0,21.0,19.0,5.0,21,1497.0,square2,i,0.0019,1,V,10.0
V10,40.0,32.0,26.0,18.0,6.0,26,1523.0,square2,i,0.2666,1,V,10.0
V10,41.0,34.0,32.0,13.0,9.0,32,1555.0,square2,i,0.3298,1,V,10.0
V10,42.0,35.0,30.0,16.0,8.0,30,1585.0,square2,i,0.2273,1,V,10.0
V10,43.0,38.0,32.0,16.0,8.0,32,1617.0,square2,i,0.3429,1,V,10.0
V10,44.0,34.0,20.0,18.0,3.0,20,1637.0,square2,i,0.486,1,V,10.0
V10,45.0,38.0,22.0,23.0,9.0,22,1659.0,square2,i,0.1086,1,V,10.0
V10,46.0,36.0,28.0,16.0,10.0,28,1687.0,square2,i,0.0387,1,V,10.0
V10,47.0,36.0,27.0,13.0,8.0,99999,1687.0,invalid,,,-1,V,10.0
V10,48.0,35.0,27.0,14.0,12.0,35,1722.0,square1,f,0.4291,0,V,10.0
V10,49.0,33.0,28.0,16.0,10.0,33,1755.0,square1,f,0.4405,0,V,10.0
V10,50.0,31.0,29.0,19.0,8.0,31,1786.0,square1,f,0.2478,0,V,10.0
V10,51.0,32.0,21.0,20.0,12.0,32,1818.0,square1,f,0.0953,0,V,10.0
V10,52.0,29.0,25.0,21.0,10.0,29,1847.0,square1,f,0.3996,0,V,10.0
V10,53.0,39.0,29.0,23.0,2.0,39,1886.0,square1,f,0.5418,0,V,10.0
V10,54.0,33.0,28.0,19.0,7.0,33,1919.0,square1,f,0.2179,0,V,10.0
V10,55.0,34.0,24.0,15.0,8.0,99999,1919.0,invalid,,,-1,V,10.0
V10,56.0,35.0,20.0,21.0,9.0,35,1954.0,square1,f,1.5857,0,V,10.0
V10,57.0,33.0,27.0,19.0,7.0,33,1987.0,square1,f,0.4348,0,V,10.0
V10,58.0,38.0,24.0,16.0,7.0,38,2025.0,square1,f,0.6115,0,V,10.0
V10,59.0,34.0,29.0,15.0,5.0,34,2059.0,square1,f,0.4786,0,V,10.0
V10,60.0,34.0,22.0,19.0,9.0,34,2093.0,square1,f,0.6667,0,V,10.0
V10,61.0,39.0,31.0,20.0,10.0,39,2132.0,square1,f,0.6926,0,V,10.0
V10,62.0,35.0,24.0,18.0,6.0,35,2167.0,square1,f,0.7458,0,V,10.0
V10,63.0,35.0,26.0,18.0,9.0,35,2202.0,square1,f,0.6592,0,V,10.0
V10,64.0,31.0,55.0,23.0,23.0,31,2233.0,square1,f,0.7042,0,V,10.0
V10,65.0,35.0,50.0,22.0,27.0,35,2268.0,square1,f,0.7057,0,V,10.0
V10,66.0,35.0,53.0,25.0,29.0,35,2303.0,square1,f,0.6068,0,V,10.0
V10,67.0,38.0,44.0,17.0,29.0,38,2341.0,square1,f,0.3965,0,V,10.0
V10,68.0,36.0,48.0,22.0,27.0,36,2377.0,square1,f,0.8409,0,V,10.0
V10,69.0,41.0,53.0,17.0,28.0,41,2418.0,square1,f,0.4052,0,V,10.0
V10,70.0,40.0,48.0,23.0,28.0,40,2458.0,square1,f,0.0834,0,V,10.0
V10,71.0,39.0,43.0,24.0,20.0,39,2497.0,square1,f,0.3051,0,V,10.0
V10,72.0,36.0,49.0,19.0,25.0,36,2533.0,square1,f,0.5451,0,V,10.0
V10,73.0,39.0,49.0,23.0,32.0,39,2572.0,square1,f,0.1078,0,V,10.0
V10,74.0,36.0,44.0,17.0,29.0,36,2608.0,square1,f,0.3167,0,V,10.0
V10,75.0,37.0,46.0,20.0,30.0,37,2645.0,square1,f,0.8538,0,V,10.0
V10,76.0,38.0,47.0,23.0,30.0,38,2683.0,square1,f,0.6291,0,V,10.0
V10,77.0,36.0,49.0,22.0,32.0,36,2719.0,square1,f,0.038,0,V,10.0
V10,78.0,41.0,44.0,19.0,27.0,41,2760.0,square1,f,0.1931,0,V,10.0
V10,79.0,41.0,48.0,22.0,27.0,41,2801.0,square1,f,0.2067,0,V,10.0
V10,80.0,34.0,44.0,26.0,29.0,34,2835.0,square1,f,0.4946,0,V,10.0
V10,81.0,38.0,47.0,18.0,29.0,38,2873.0,square1,f,0.5687,0,V,10.0
V10,82.0,43.0,43.0,23.0,28.0,43,2916.0,square1,f,0.0636,0,V,10.0
V10,83.0,34.0,51.0,23.0,26.0,34,2950.0,square1,f,0.6412,0,V,10.0
V10,84.0,36.0,46.0,18.0,25.0,36,2986.0,square1,f,0.5097,0,V,10.0
V10,85.0,39.0,46.0,25.0,26.0,39,3025.0,square1,f,0.1644,0,V,10.0
V10,86.0,39.0,50.0,27.0,27.0,39,3064.0,square1,f,0.3025,0,V,10.0
V10,87.0,38.0,46.0,20.0,30.0,38,3102.0,square1,f,0.7011,0,V,10.0
V10,88.0,37.0,49.0,22.0,28.0,37,3139.0,square1,f,0.8111,0,V,10.0
V10,89.0,34.0,51.0,25.0,26.0,34,3173.0,square1,f,1.0062,0,V,10.0
V10,90.0,41.0,49.0,22.0,29.0,41,3214.0,square1,f,0.1058,0,V,10.0
V10,91.0,37.0,45.0,26.0,32.0,37,3251.0,square1,f,0.3885,0,V,10.0
V10,92.0,42.0,42.0,27.0,28.0,42,3293.0,square1,f,0.3953,0,V,10.0
V10,93.0,41.0,48.0,19.0,36.0,41,3334.0,square1,f,0.712,0,V,10.0
V10,94.0,43.0,49.0,23.0,31.0,43,3377.0,square1,f,0.81,0,V,10.0
V10,95.0,39.0,46.0,18.0,27.0,39,3416.0,square1,f,0.146,0,V,10.0
V10,96.0,37.0,48.0,24.0,27.0,37,3453.0,square1,f,0.0393,0,V,10.0
V10,97.0,42.0,50.0,23.0,31.0,42,3495.0,square1,f,0.1862,0,V,10.0
V10,98.0,33.0,47.0,25.0,32.0,33,3528.0,square1,f,0.2053,0,V,10.0
V10,99.0,39.0,48.0,23.0,32.0,39,3567.0,square1,f,0.7975,0,V,10.0
