block,Trial,square1,square2,square3,square4,currPoints,totalPoints,square,choiceKey.keys,choiceKey.rt,armNum,blockType,blockNum
prac,0.0,100.0,0.0,0.0,0.0,99999,0.0,invalid,,,-1,p,0.0
prac,1.0,100.0,0.0,0.0,0.0,0,0.0,square3,,,2,p,0.0
prac,2.0,100.0,0.0,0.0,0.0,0,0.0,square2,,,1,p,0.0
prac,3.0,100.0,0.0,0.0,0.0,100,100.0,square1,,,0,p,0.0
prac,4.0,100.0,0.0,0.0,0.0,100,200.0,square1,,,0,p,0.0
prac,5.0,100.0,0.0,0.0,0.0,0,200.0,square3,,,2,p,0.0
prac,6.0,100.0,0.0,0.0,0.0,0,200.0,square4,,,3,p,0.0
prac,7.0,100.0,0.0,0.0,0.0,0,200.0,square2,,,1,p,0.0
prac,8.0,100.0,0.0,0.0,0.0,100,300.0,square1,,,0,p,0.0
prac,9.0,100.0,0.0,0.0,0.0,100,400.0,square1,,,0,p,0.0
S3,0.0,38.0,48.0,42.0,57.0,38,38.0,square1,r,1.4707,0,S,3.0
S3,1.0,29.0,43.0,51.0,57.0,57,95.0,square4,j,0.8454,3,S,3.0
S3,2.0,41.0,49.0,46.0,49.0,49,144.0,square2,i,0.3329,1,S,3.0
S3,3.0,44.0,50.0,45.0,52.0,45,189.0,square3,f,0.1768,2,S,3.0
S3,4.0,37.0,51.0,45.0,58.0,58,247.0,square4,j,0.9124,3,S,3.0
S3,5.0,47.0,43.0,42.0,49.0,49,296.0,square4,j,0.3544,3,S,3.0
S3,6.0,44.0,53.0,51.0,58.0,58,354.0,square4,j,0.3824,3,S,3.0
S3,7.0,39.0,47.0,46.0,54.0,54,408.0,square4,j,0.3098,3,S,3.0
S3,8.0,43.0,53.0,41.0,52.0,52,460.0,square4,j,0.295,3,S,3.0
S3,9.0,42.0,46.0,41.0,53.0,53,513.0,square4,j,0.0401,3,S,3.0
S3,10.0,37.0,49.0,49.0,55.0,49,562.0,square2,i,0.9663,1,S,3.0
S3,11.0,40.0,47.0,36.0,59.0,40,602.0,square1,r,0.3148,0,S,3.0
S3,12.0,46.0,51.0,39.0,56.0,39,641.0,square3,f,0.292,2,S,3.0
S3,13.0,39.0,48.0,45.0,57.0,57,698.0,square4,j,0.3941,3,S,3.0
S3,14.0,39.0,55.0,43.0,47.0,47,745.0,square4,j,0.3567,3,S,3.0
S3,15.0,46.0,46.0,47.0,52.0,52,797.0,square4,j,0.0764,3,S,3.0
S3,16.0,42.0,49.0,50.0,55.0,55,852.0,square4,j,0.0435,3,S,3.0
S3,17.0,45.0,45.0,56.0,47.0,47,899.0,square4,j,0.2223,3,S,3.0
S3,18.0,46.0,43.0,45.0,50.0,43,942.0,square2,i,0.0019,1,S,3.0
S3,19.0,41.0,47.0,50.0,55.0,41,983.0,square1,r,0.6459,0,S,3.0
S3,20.0,45.0,52.0,49.0,52.0,49,1032.0,square3,f,0.4224,2,S,3.0
S3,21.0,40.0,43.0,47.0,46.0,40,1072.0,square1,r,0.3328,0,S,3.0
S3,22.0,45.0,46.0,44.0,47.0,44,1116.0,square3,f,0.183,2,S,3.0
S3,23.0,36.0,50.0,42.0,46.0,46,1162.0,square4,j,0.277,3,S,3.0
S3,24.0,42.0,54.0,49.0,55.0,55,1217.0,square4,j,0.1216,3,S,3.0
S3,25.0,43.0,51.0,44.0,54.0,54,1271.0,square4,j,0.0482,3,S,3.0
S3,26.0,49.0,50.0,52.0,52.0,52,1323.0,square4,j,0.5825,3,S,3.0
S3,27.0,47.0,52.0,44.0,50.0,50,1373.0,square4,j,0.4729,3,S,3.0
S3,28.0,37.0,48.0,40.0,47.0,48,1421.0,square2,i,0.4277,1,S,3.0
S3,29.0,50.0,43.0,50.0,57.0,50,1471.0,square1,r,0.7392,0,S,3.0
S3,30.0,50.0,50.0,46.0,47.0,46,1517.0,square3,f,0.0006,2,S,3.0
S3,31.0,37.0,53.0,49.0,56.0,49,1566.0,square3,f,0.378,2,S,3.0
S3,32.0,42.0,50.0,43.0,58.0,43,1609.0,square3,f,0.145,2,S,3.0
S3,33.0,44.0,49.0,46.0,59.0,46,1655.0,square3,f,0.579,2,S,3.0
S3,34.0,42.0,50.0,50.0,58.0,50,1705.0,square3,f,0.1769,2,S,3.0
S3,35.0,43.0,46.0,45.0,50.0,45,1750.0,square3,f,0.6436,2,S,3.0
S3,36.0,46.0,52.0,50.0,48.0,48,1798.0,square4,j,0.1278,3,S,3.0
S3,37.0,48.0,50.0,49.0,52.0,52,1850.0,square4,j,0.0007,3,S,3.0
S3,38.0,39.0,43.0,50.0,55.0,39,1889.0,square1,r,1.0217,0,S,3.0
S3,39.0,50.0,53.0,46.0,57.0,50,1939.0,square1,r,0.1407,0,S,3.0
S3,40.0,41.0,46.0,48.0,55.0,55,1994.0,square4,j,0.7566,3,S,3.0
S3,41.0,49.0,49.0,40.0,56.0,49,2043.0,square1,r,0.0468,0,S,3.0
S3,42.0,47.0,49.0,43.0,48.0,48,2091.0,square4,j,0.3388,3,S,3.0
S3,43.0,46.0,43.0,41.0,58.0,43,2134.0,square2,i,0.381,1,S,3.0
S3,44.0,46.0,52.0,51.0,55.0,52,2186.0,square2,i,1.2627,1,S,3.0
S3,45.0,46.0,41.0,46.0,49.0,46,2232.0,square3,f,0.1434,2,S,3.0
S3,46.0,32.0,56.0,40.0,50.0,32,2264.0,square1,r,0.8939,0,S,3.0
S3,47.0,42.0,49.0,44.0,51.0,49,2313.0,square2,i,0.6936,1,S,3.0
S3,48.0,36.0,45.0,38.0,50.0,45,2358.0,square2,i,0.12,1,S,3.0
S3,49.0,45.0,48.0,47.0,52.0,52,2410.0,square4,j,0.5079,3,S,3.0
S5,0.0,90.0,70.0,79.0,84.0,79,79.0,square3,r,1.9548,2,S,5.0
S5,1.0,92.0,77.0,83.0,81.0,81,160.0,square4,i,0.3233,3,S,5.0
S5,2.0,83.0,72.0,81.0,76.0,72,232.0,square2,f,0.2932,1,S,5.0
S5,3.0,87.0,72.0,79.0,81.0,87,319.0,square1,j,0.0568,0,S,5.0
S5,4.0,86.0,81.0,78.0,72.0,86,405.0,square1,j,0.124,0,S,5.0
S5,5.0,89.0,70.0,79.0,83.0,89,494.0,square1,j,0.0767,0,S,5.0
S5,6.0,86.0,69.0,81.0,81.0,86,580.0,square1,j,0.6126,0,S,5.0
S5,7.0,82.0,72.0,86.0,80.0,82,662.0,square1,j,0.3551,0,S,5.0
S5,8.0,84.0,67.0,80.0,77.0,84,746.0,square1,j,0.3143,0,S,5.0
S5,9.0,92.0,80.0,86.0,84.0,92,838.0,square1,j,0.0006,0,S,5.0
S5,10.0,82.0,71.0,80.0,80.0,82,920.0,square1,j,0.2119,0,S,5.0
S5,11.0,80.0,75.0,79.0,75.0,80,1000.0,square1,j,0.6786,0,S,5.0
S5,12.0,84.0,75.0,80.0,82.0,82,1082.0,square4,i,0.372,3,S,5.0
S5,13.0,85.0,74.0,74.0,81.0,81,1163.0,square4,i,0.5149,3,S,5.0
S5,14.0,81.0,79.0,85.0,81.0,81,1244.0,square4,i,0.0778,3,S,5.0
S5,15.0,81.0,75.0,76.0,77.0,77,1321.0,square4,i,0.0576,3,S,5.0
S5,16.0,86.0,74.0,78.0,74.0,74,1395.0,square4,i,0.0637,3,S,5.0
S5,17.0,81.0,77.0,81.0,77.0,77,1472.0,square4,i,0.0262,3,S,5.0
S5,18.0,87.0,70.0,84.0,82.0,84,1556.0,square3,r,0.1436,2,S,5.0
S5,19.0,84.0,76.0,83.0,76.0,83,1639.0,square3,r,0.0871,2,S,5.0
S5,20.0,79.0,78.0,82.0,76.0,82,1721.0,square3,r,0.1271,2,S,5.0
S5,21.0,86.0,68.0,80.0,72.0,80,1801.0,square3,r,0.1444,2,S,5.0
S5,22.0,93.0,80.0,85.0,84.0,85,1886.0,square3,r,0.1739,2,S,5.0
S5,23.0,87.0,73.0,76.0,70.0,73,1959.0,square2,f,0.0099,1,S,5.0
S5,24.0,85.0,69.0,81.0,78.0,69,2028.0,square2,f,0.0168,1,S,5.0
S5,25.0,89.0,77.0,77.0,76.0,77,2105.0,square2,f,0.0006,1,S,5.0
S5,26.0,84.0,71.0,81.0,75.0,84,2189.0,square1,j,0.1243,0,S,5.0
S5,27.0,84.0,75.0,82.0,71.0,84,2273.0,square1,j,0.0908,0,S,5.0
S5,28.0,83.0,72.0,82.0,78.0,83,2356.0,square1,j,0.1403,0,S,5.0
S5,29.0,91.0,67.0,79.0,74.0,91,2447.0,square1,j,0.1313,0,S,5.0
S5,30.0,82.0,69.0,81.0,77.0,82,2529.0,square1,j,0.0606,0,S,5.0
S5,31.0,82.0,72.0,80.0,78.0,82,2611.0,square1,j,0.0433,0,S,5.0
S5,32.0,83.0,73.0,91.0,80.0,83,2694.0,square1,j,0.1381,0,S,5.0
S5,33.0,83.0,68.0,85.0,78.0,83,2777.0,square1,j,0.1295,0,S,5.0
S5,34.0,89.0,79.0,83.0,77.0,89,2866.0,square1,j,0.137,0,S,5.0
S5,35.0,88.0,72.0,79.0,80.0,88,2954.0,square1,j,0.0293,0,S,5.0
S5,36.0,90.0,74.0,84.0,76.0,90,3044.0,square1,j,0.039,0,S,5.0
S5,37.0,85.0,75.0,80.0,82.0,85,3129.0,square1,j,0.1123,0,S,5.0
S5,38.0,78.0,74.0,85.0,79.0,78,3207.0,square1,j,0.0098,0,S,5.0
S5,39.0,87.0,73.0,87.0,85.0,87,3294.0,square1,j,0.0233,0,S,5.0
S5,40.0,83.0,67.0,81.0,80.0,83,3377.0,square1,j,0.1444,0,S,5.0
S5,41.0,82.0,69.0,88.0,80.0,82,3459.0,square1,j,0.1814,0,S,5.0
S5,42.0,85.0,78.0,91.0,80.0,85,3544.0,square1,j,0.1124,0,S,5.0
S5,43.0,89.0,74.0,78.0,74.0,89,3633.0,square1,j,0.0278,0,S,5.0
S5,44.0,90.0,74.0,77.0,85.0,90,3723.0,square1,j,0.0932,0,S,5.0
S5,45.0,89.0,68.0,81.0,78.0,89,3812.0,square1,j,0.1324,0,S,5.0
S5,46.0,86.0,70.0,86.0,68.0,86,3898.0,square1,j,0.0604,0,S,5.0
S5,47.0,90.0,77.0,85.0,84.0,90,3988.0,square1,j,0.1714,0,S,5.0
S5,48.0,76.0,66.0,82.0,79.0,76,4064.0,square1,j,0.0273,0,S,5.0
S5,49.0,84.0,73.0,82.0,75.0,84,4148.0,square1,j,0.0055,0,S,5.0
S7,0.0,68.0,73.0,62.0,57.0,68,68.0,square1,f,1.8757,0,S,7.0
S7,1.0,74.0,67.0,66.0,59.0,66,134.0,square3,j,0.3728,2,S,7.0
S7,2.0,68.0,69.0,65.0,60.0,60,194.0,square4,r,0.362,3,S,7.0
S7,3.0,74.0,68.0,65.0,63.0,68,262.0,square2,i,0.366,1,S,7.0
S7,4.0,68.0,74.0,67.0,63.0,74,336.0,square2,i,0.6102,1,S,7.0
S7,5.0,68.0,67.0,61.0,57.0,67,403.0,square2,i,0.0926,1,S,7.0
S7,6.0,72.0,64.0,65.0,51.0,65,468.0,square3,j,0.0929,2,S,7.0
S7,7.0,69.0,63.0,69.0,63.0,69,537.0,square3,j,0.0267,2,S,7.0
S7,8.0,71.0,68.0,63.0,54.0,63,600.0,square3,j,0.1435,2,S,7.0
S7,9.0,81.0,66.0,68.0,62.0,81,681.0,square1,f,0.037,0,S,7.0
S7,10.0,72.0,73.0,68.0,61.0,72,753.0,square1,f,0.0397,0,S,7.0
S7,11.0,72.0,72.0,62.0,58.0,58,811.0,square4,r,0.1446,3,S,7.0
S7,12.0,66.0,66.0,62.0,61.0,61,872.0,square4,r,0.029,3,S,7.0
S7,13.0,73.0,75.0,75.0,68.0,75,947.0,square2,i,0.0429,1,S,7.0
S7,14.0,71.0,73.0,72.0,66.0,73,1020.0,square2,i,0.0803,1,S,7.0
S7,15.0,75.0,68.0,68.0,65.0,68,1088.0,square2,i,0.0733,1,S,7.0
S7,16.0,67.0,65.0,62.0,56.0,67,1155.0,square1,f,0.1074,0,S,7.0
S7,17.0,72.0,67.0,63.0,64.0,72,1227.0,square1,f,0.1732,0,S,7.0
S7,18.0,73.0,69.0,66.0,65.0,73,1300.0,square1,f,0.0902,0,S,7.0
S7,19.0,75.0,70.0,62.0,58.0,75,1375.0,square1,f,0.0985,0,S,7.0
S7,20.0,76.0,63.0,67.0,62.0,76,1451.0,square1,f,0.0936,0,S,7.0
S7,21.0,79.0,76.0,63.0,64.0,79,1530.0,square1,f,0.1653,0,S,7.0
S7,22.0,67.0,72.0,63.0,62.0,67,1597.0,square1,f,0.0224,0,S,7.0
S7,23.0,69.0,71.0,70.0,62.0,69,1666.0,square1,f,0.131,0,S,7.0
S7,24.0,74.0,67.0,70.0,62.0,74,1740.0,square1,f,0.1594,0,S,7.0
S7,25.0,70.0,67.0,72.0,62.0,70,1810.0,square1,f,0.135,0,S,7.0
S7,26.0,72.0,62.0,74.0,65.0,72,1882.0,square1,f,0.1222,0,S,7.0
S7,27.0,69.0,70.0,68.0,62.0,69,1951.0,square1,f,0.1069,0,S,7.0
S7,28.0,65.0,66.0,60.0,62.0,65,2016.0,square1,f,0.1894,0,S,7.0
S7,29.0,70.0,64.0,60.0,68.0,70,2086.0,square1,f,0.1731,0,S,7.0
S7,30.0,69.0,69.0,64.0,57.0,69,2155.0,square2,i,0.0399,1,S,7.0
S7,31.0,77.0,67.0,65.0,60.0,77,2232.0,square1,f,0.0096,0,S,7.0
S7,32.0,67.0,75.0,65.0,58.0,75,2307.0,square2,i,0.0739,1,S,7.0
S7,33.0,74.0,66.0,66.0,60.0,74,2381.0,square1,f,0.0636,0,S,7.0
S7,34.0,72.0,72.0,66.0,61.0,72,2453.0,square1,f,0.1545,0,S,7.0
S7,35.0,67.0,68.0,64.0,62.0,67,2520.0,square1,f,0.1438,0,S,7.0
S7,36.0,64.0,63.0,70.0,58.0,64,2584.0,square1,f,0.0989,0,S,7.0
S7,37.0,80.0,72.0,64.0,53.0,80,2664.0,square1,f,0.1447,0,S,7.0
S7,38.0,78.0,69.0,76.0,67.0,78,2742.0,square1,f,0.0893,0,S,7.0
S7,39.0,69.0,66.0,60.0,67.0,69,2811.0,square1,f,0.1485,0,S,7.0
S7,40.0,72.0,71.0,63.0,66.0,72,2883.0,square1,f,0.1286,0,S,7.0
S7,41.0,80.0,73.0,65.0,63.0,80,2963.0,square1,f,0.1601,0,S,7.0
S7,42.0,77.0,60.0,65.0,59.0,77,3040.0,square1,f,0.1549,0,S,7.0
S7,43.0,70.0,72.0,70.0,63.0,70,3110.0,square1,f,0.1055,0,S,7.0
S7,44.0,77.0,70.0,66.0,58.0,77,3187.0,square1,f,0.0567,0,S,7.0
S7,45.0,75.0,69.0,73.0,58.0,75,3262.0,square1,f,0.1571,0,S,7.0
S7,46.0,74.0,71.0,63.0,63.0,74,3336.0,square1,f,0.0966,0,S,7.0
S7,47.0,73.0,75.0,71.0,64.0,73,3409.0,square1,f,0.0141,0,S,7.0
S7,48.0,78.0,79.0,64.0,58.0,78,3487.0,square1,f,0.1093,0,S,7.0
S7,49.0,75.0,72.0,66.0,72.0,75,3562.0,square1,f,0.1231,0,S,7.0
S10,0.0,72.0,76.0,80.0,64.0,80,80.0,square3,f,1.4825,2,S,10.0
S10,1.0,76.0,75.0,74.0,65.0,65,145.0,square4,j,0.3639,3,S,10.0
S10,2.0,70.0,72.0,79.0,74.0,72,217.0,square2,r,0.3937,1,S,10.0
S10,3.0,69.0,77.0,76.0,68.0,69,286.0,square1,i,0.0656,0,S,10.0
S10,4.0,72.0,79.0,77.0,70.0,77,363.0,square3,f,0.0754,2,S,10.0
S10,5.0,68.0,74.0,72.0,64.0,64,427.0,square4,j,0.1057,3,S,10.0
S10,6.0,70.0,77.0,72.0,62.0,62,489.0,square4,j,0.26,3,S,10.0
S10,7.0,78.0,81.0,80.0,74.0,81,570.0,square2,r,0.1156,1,S,10.0
S10,8.0,78.0,78.0,82.0,66.0,78,648.0,square1,i,0.0898,0,S,10.0
S10,9.0,69.0,76.0,77.0,65.0,76,724.0,square2,r,0.006,1,S,10.0
S10,10.0,72.0,78.0,72.0,75.0,78,802.0,square2,r,0.0005,1,S,10.0
S10,11.0,71.0,76.0,78.0,66.0,76,878.0,square2,r,0.0007,1,S,10.0
S10,12.0,73.0,83.0,79.0,69.0,79,957.0,square3,f,0.0004,2,S,10.0
S10,13.0,68.0,77.0,65.0,65.0,65,1022.0,square3,f,0.0632,2,S,10.0
S10,14.0,69.0,84.0,79.0,65.0,79,1101.0,square3,f,0.0099,2,S,10.0
S10,15.0,72.0,84.0,70.0,71.0,70,1171.0,square3,f,0.0291,2,S,10.0
S10,16.0,79.0,80.0,82.0,67.0,82,1253.0,square3,f,0.0935,2,S,10.0
S10,17.0,69.0,83.0,75.0,70.0,75,1328.0,square3,f,0.1821,2,S,10.0
S10,18.0,69.0,75.0,69.0,68.0,69,1397.0,square3,f,0.1265,2,S,10.0
S10,19.0,70.0,83.0,73.0,66.0,83,1480.0,square2,r,0.1448,1,S,10.0
S10,20.0,69.0,83.0,75.0,66.0,83,1563.0,square2,r,0.0094,1,S,10.0
S10,21.0,77.0,70.0,75.0,70.0,70,1633.0,square2,r,0.1559,1,S,10.0
S10,22.0,73.0,77.0,81.0,69.0,77,1710.0,square2,r,0.1551,1,S,10.0
S10,23.0,73.0,78.0,70.0,65.0,78,1788.0,square2,r,0.0774,1,S,10.0
S10,24.0,70.0,80.0,75.0,66.0,80,1868.0,square2,r,0.0731,1,S,10.0
S10,25.0,70.0,80.0,73.0,72.0,80,1948.0,square2,r,0.0293,1,S,10.0
S10,26.0,73.0,75.0,73.0,75.0,75,2023.0,square2,r,0.1038,1,S,10.0
S10,27.0,77.0,81.0,83.0,66.0,81,2104.0,square2,r,0.1104,1,S,10.0
S10,28.0,73.0,79.0,79.0,73.0,79,2183.0,square2,r,0.143,1,S,10.0
S10,29.0,73.0,79.0,72.0,69.0,79,2262.0,square2,r,0.1776,1,S,10.0
S10,30.0,71.0,85.0,79.0,69.0,85,2347.0,square2,r,0.0006,1,S,10.0
S10,31.0,71.0,85.0,83.0,66.0,85,2432.0,square2,r,0.1644,1,S,10.0
S10,32.0,78.0,79.0,77.0,65.0,79,2511.0,square2,r,0.1777,1,S,10.0
S10,33.0,83.0,79.0,72.0,68.0,79,2590.0,square2,r,0.0774,1,S,10.0
S10,34.0,68.0,74.0,79.0,72.0,74,2664.0,square2,r,0.0953,1,S,10.0
S10,35.0,70.0,83.0,79.0,67.0,83,2747.0,square2,r,0.2127,1,S,10.0
S10,36.0,67.0,76.0,75.0,72.0,76,2823.0,square2,r,0.1742,1,S,10.0
S10,37.0,76.0,82.0,79.0,60.0,82,2905.0,square2,r,0.1078,1,S,10.0
S10,38.0,72.0,75.0,69.0,68.0,75,2980.0,square2,r,0.1072,1,S,10.0
S10,39.0,73.0,78.0,76.0,70.0,78,3058.0,square2,r,0.1062,1,S,10.0
S10,40.0,76.0,77.0,66.0,60.0,77,3135.0,square2,r,0.0933,1,S,10.0
S10,41.0,74.0,83.0,73.0,67.0,83,3218.0,square2,r,0.1118,1,S,10.0
S10,42.0,72.0,69.0,80.0,63.0,69,3287.0,square2,r,0.1077,1,S,10.0
S10,43.0,69.0,74.0,72.0,68.0,74,3361.0,square2,r,0.0071,1,S,10.0
S10,44.0,67.0,76.0,70.0,65.0,76,3437.0,square2,r,0.0008,1,S,10.0
S10,45.0,76.0,81.0,74.0,72.0,81,3518.0,square2,r,0.0061,1,S,10.0
S10,46.0,76.0,79.0,76.0,66.0,79,3597.0,square2,r,0.1736,1,S,10.0
S10,47.0,67.0,81.0,84.0,60.0,81,3678.0,square2,r,0.1366,1,S,10.0
S10,48.0,73.0,83.0,75.0,66.0,83,3761.0,square2,r,0.0007,1,S,10.0
S10,49.0,66.0,77.0,74.0,71.0,77,3838.0,square2,r,0.0005,1,S,10.0
S12,0.0,38.0,42.0,30.0,42.0,30,30.0,square3,r,1.0088,2,S,12.0
S12,1.0,30.0,42.0,28.0,37.0,42,72.0,square2,i,0.4906,1,S,12.0
S12,2.0,34.0,41.0,38.0,43.0,43,115.0,square4,f,0.091,3,S,12.0
S12,3.0,38.0,51.0,38.0,38.0,38,153.0,square1,j,0.0941,0,S,12.0
S12,4.0,32.0,37.0,33.0,45.0,37,190.0,square2,i,0.3054,1,S,12.0
S12,5.0,38.0,52.0,36.0,35.0,52,242.0,square2,i,0.0807,1,S,12.0
S12,6.0,30.0,43.0,30.0,38.0,43,285.0,square2,i,0.0273,1,S,12.0
S12,7.0,38.0,39.0,30.0,39.0,38,323.0,square1,j,0.0062,0,S,12.0
S12,8.0,37.0,49.0,35.0,38.0,37,360.0,square1,j,0.0226,0,S,12.0
S12,9.0,37.0,44.0,29.0,38.0,37,397.0,square1,j,0.0219,0,S,12.0
S12,10.0,35.0,42.0,30.0,45.0,42,439.0,square2,i,0.1282,1,S,12.0
S12,11.0,34.0,45.0,36.0,32.0,45,484.0,square2,i,0.0883,1,S,12.0
S12,12.0,33.0,45.0,35.0,42.0,45,529.0,square2,i,0.1279,1,S,12.0
S12,13.0,36.0,36.0,29.0,40.0,36,565.0,square2,i,0.1479,1,S,12.0
S12,14.0,36.0,49.0,32.0,42.0,49,614.0,square2,i,0.124,1,S,12.0
S12,15.0,35.0,43.0,35.0,46.0,43,657.0,square2,i,0.0906,1,S,12.0
S12,16.0,39.0,48.0,41.0,43.0,48,705.0,square2,i,0.0617,1,S,12.0
S12,17.0,35.0,47.0,27.0,38.0,47,752.0,square2,i,0.1602,1,S,12.0
S12,18.0,37.0,51.0,33.0,33.0,51,803.0,square2,i,0.0096,1,S,12.0
S12,19.0,41.0,42.0,33.0,36.0,42,845.0,square2,i,0.0101,1,S,12.0
S12,20.0,34.0,44.0,26.0,41.0,44,889.0,square2,i,0.1894,1,S,12.0
S12,21.0,35.0,37.0,29.0,35.0,37,926.0,square2,i,0.0567,1,S,12.0
S12,22.0,37.0,48.0,31.0,41.0,48,974.0,square2,i,0.0772,1,S,12.0
S12,23.0,36.0,43.0,27.0,45.0,43,1017.0,square2,i,0.0046,1,S,12.0
S12,24.0,39.0,48.0,38.0,38.0,48,1065.0,square2,i,0.0042,1,S,12.0
S12,25.0,31.0,43.0,30.0,40.0,43,1108.0,square2,i,0.1212,1,S,12.0
S12,26.0,35.0,48.0,34.0,33.0,48,1156.0,square2,i,0.214,1,S,12.0
S12,27.0,46.0,46.0,28.0,38.0,46,1202.0,square2,i,0.0023,1,S,12.0
S12,28.0,32.0,37.0,32.0,40.0,37,1239.0,square2,i,0.0402,1,S,12.0
S12,29.0,38.0,41.0,32.0,44.0,41,1280.0,square2,i,0.0004,1,S,12.0
S12,30.0,32.0,48.0,29.0,42.0,48,1328.0,square2,i,0.0924,1,S,12.0
S12,31.0,34.0,46.0,30.0,42.0,46,1374.0,square2,i,0.4111,1,S,12.0
S12,32.0,39.0,43.0,41.0,40.0,43,1417.0,square2,i,0.1422,1,S,12.0
S12,33.0,36.0,47.0,33.0,46.0,47,1464.0,square2,i,0.0004,1,S,12.0
S12,34.0,36.0,41.0,34.0,41.0,41,1505.0,square2,i,0.1438,1,S,12.0
S12,35.0,34.0,42.0,31.0,43.0,42,1547.0,square2,i,0.0022,1,S,12.0
S12,36.0,39.0,43.0,26.0,33.0,43,1590.0,square2,i,0.0216,1,S,12.0
S12,37.0,39.0,49.0,30.0,42.0,49,1639.0,square2,i,0.0522,1,S,12.0
S12,38.0,33.0,47.0,36.0,41.0,41,1680.0,square4,f,0.1277,3,S,12.0
S12,39.0,29.0,46.0,35.0,36.0,36,1716.0,square4,f,0.1241,3,S,12.0
S12,40.0,39.0,39.0,29.0,36.0,36,1752.0,square4,f,0.1234,3,S,12.0
S12,41.0,33.0,44.0,31.0,40.0,44,1796.0,square2,i,0.1261,1,S,12.0
S12,42.0,34.0,46.0,25.0,37.0,46,1842.0,square2,i,0.0533,1,S,12.0
S12,43.0,37.0,42.0,30.0,42.0,42,1884.0,square2,i,0.0398,1,S,12.0
S12,44.0,33.0,49.0,36.0,39.0,49,1933.0,square2,i,0.053,1,S,12.0
S12,45.0,35.0,40.0,30.0,47.0,40,1973.0,square2,i,0.09,1,S,12.0
S12,46.0,40.0,41.0,29.0,35.0,41,2014.0,square2,i,0.0006,1,S,12.0
S12,47.0,32.0,42.0,28.0,43.0,42,2056.0,square2,i,0.0958,1,S,12.0
S12,48.0,43.0,47.0,31.0,38.0,47,2103.0,square2,i,0.1262,1,S,12.0
S12,49.0,37.0,41.0,35.0,40.0,41,2144.0,square2,i,0.1439,1,S,12.0
S6,0.0,40.0,29.0,39.0,26.0,40,40.0,square1,r,1.408,0,S,6.0
S6,1.0,34.0,40.0,31.0,25.0,25,65.0,square4,i,0.4099,3,S,6.0
S6,2.0,37.0,31.0,25.0,30.0,25,90.0,square3,f,0.2071,2,S,6.0
S6,3.0,39.0,37.0,30.0,27.0,37,127.0,square2,j,0.0436,1,S,6.0
S6,4.0,42.0,40.0,28.0,32.0,40,167.0,square2,j,0.1553,1,S,6.0
S6,5.0,35.0,35.0,39.0,29.0,35,202.0,square2,j,0.0769,1,S,6.0
S6,6.0,48.0,30.0,37.0,33.0,30,232.0,square2,j,0.0402,1,S,6.0
S6,7.0,47.0,34.0,31.0,29.0,29,261.0,square4,i,0.1122,3,S,6.0
S6,8.0,43.0,35.0,30.0,25.0,25,286.0,square4,i,0.0734,3,S,6.0
S6,9.0,36.0,38.0,35.0,35.0,35,321.0,square3,f,0.0459,2,S,6.0
S6,10.0,38.0,35.0,31.0,21.0,31,352.0,square3,f,0.0951,2,S,6.0
S6,11.0,30.0,36.0,31.0,20.0,30,382.0,square1,r,0.0601,0,S,6.0
S6,12.0,37.0,40.0,33.0,22.0,37,419.0,square1,r,0.0612,0,S,6.0
S6,13.0,32.0,41.0,35.0,29.0,32,451.0,square1,r,0.0395,0,S,6.0
S6,14.0,41.0,29.0,30.0,32.0,29,480.0,square2,j,0.0889,1,S,6.0
S6,15.0,43.0,37.0,31.0,27.0,37,517.0,square2,j,0.0383,1,S,6.0
S6,16.0,34.0,34.0,35.0,31.0,34,551.0,square2,j,0.0442,1,S,6.0
S6,17.0,47.0,40.0,29.0,28.0,40,591.0,square2,j,0.1235,1,S,6.0
S6,18.0,37.0,38.0,34.0,35.0,38,629.0,square2,j,0.0006,1,S,6.0
S6,19.0,36.0,39.0,31.0,26.0,39,668.0,square2,j,0.0006,1,S,6.0
S6,20.0,44.0,40.0,31.0,25.0,40,708.0,square2,j,0.0598,1,S,6.0
S6,21.0,39.0,41.0,35.0,24.0,41,749.0,square2,j,0.002,1,S,6.0
S6,22.0,41.0,38.0,41.0,31.0,38,787.0,square2,j,0.0661,1,S,6.0
S6,23.0,37.0,31.0,30.0,32.0,31,818.0,square2,j,0.0406,1,S,6.0
S6,24.0,48.0,34.0,34.0,21.0,34,852.0,square2,j,0.1777,1,S,6.0
S6,25.0,42.0,45.0,26.0,29.0,45,897.0,square2,j,0.0768,1,S,6.0
S6,26.0,40.0,39.0,36.0,28.0,39,936.0,square2,j,0.126,1,S,6.0
S6,27.0,42.0,33.0,29.0,29.0,33,969.0,square2,j,0.0005,1,S,6.0
S6,28.0,41.0,30.0,29.0,29.0,30,999.0,square2,j,0.2256,1,S,6.0
S6,29.0,42.0,40.0,32.0,27.0,40,1039.0,square2,j,0.0006,1,S,6.0
S6,30.0,42.0,36.0,30.0,26.0,36,1075.0,square2,j,0.0373,1,S,6.0
S6,31.0,42.0,34.0,35.0,29.0,34,1109.0,square2,j,0.1297,1,S,6.0
S6,32.0,35.0,36.0,31.0,23.0,36,1145.0,square2,j,0.6242,1,S,6.0
S6,33.0,35.0,31.0,35.0,30.0,31,1176.0,square2,j,0.0402,1,S,6.0
S6,34.0,40.0,38.0,31.0,27.0,38,1214.0,square2,j,0.0006,1,S,6.0
S6,35.0,42.0,37.0,34.0,34.0,37,1251.0,square2,j,0.0006,1,S,6.0
S6,36.0,37.0,46.0,31.0,34.0,46,1297.0,square2,j,0.0007,1,S,6.0
S6,37.0,38.0,40.0,30.0,26.0,40,1337.0,square2,j,0.208,1,S,6.0
S6,38.0,36.0,34.0,31.0,33.0,34,1371.0,square2,j,0.0939,1,S,6.0
S6,39.0,44.0,37.0,33.0,31.0,37,1408.0,square2,j,0.0237,1,S,6.0
S6,40.0,40.0,38.0,31.0,25.0,38,1446.0,square2,j,0.0319,1,S,6.0
S6,41.0,49.0,35.0,35.0,28.0,35,1481.0,square2,j,0.1602,1,S,6.0
S6,42.0,44.0,40.0,32.0,28.0,40,1521.0,square2,j,1.1901,1,S,6.0
S6,43.0,43.0,36.0,33.0,26.0,36,1557.0,square2,j,0.2076,1,S,6.0
S6,44.0,38.0,33.0,34.0,26.0,99999,1557.0,invalid,,,-1,S,6.0
S6,45.0,32.0,35.0,30.0,28.0,35,1592.0,square2,j,0.0916,1,S,6.0
S6,46.0,38.0,36.0,34.0,30.0,36,1628.0,square2,j,0.6022,1,S,6.0
S6,47.0,44.0,35.0,32.0,31.0,35,1663.0,square2,j,0.2398,1,S,6.0
S6,48.0,40.0,40.0,31.0,33.0,40,1703.0,square2,j,0.4568,1,S,6.0
S6,49.0,41.0,29.0,29.0,29.0,29,1732.0,square2,j,0.1347,1,S,6.0
V6,0.0,43.0,59.0,68.0,49.0,59,59.0,square2,r,1.7166,1,V,6.0
V6,1.0,43.0,62.0,71.0,50.0,43,102.0,square1,i,0.9655,0,V,6.0
V6,2.0,48.0,61.0,72.0,51.0,51,153.0,square4,f,0.3765,3,V,6.0
V6,3.0,46.0,55.0,71.0,51.0,71,224.0,square3,j,0.2777,2,V,6.0
V6,4.0,44.0,61.0,74.0,48.0,61,285.0,square2,r,0.4736,1,V,6.0
V6,5.0,45.0,62.0,70.0,51.0,45,330.0,square1,i,0.2757,0,V,6.0
V6,6.0,42.0,67.0,73.0,46.0,46,376.0,square4,f,0.1956,3,V,6.0
V6,7.0,44.0,63.0,71.0,53.0,71,447.0,square3,j,0.0098,2,V,6.0
V6,8.0,41.0,62.0,73.0,52.0,73,520.0,square3,j,0.0984,2,V,6.0
V6,9.0,46.0,59.0,72.0,54.0,72,592.0,square3,j,0.4146,2,V,6.0
V6,10.0,45.0,59.0,70.0,53.0,70,662.0,square3,j,0.1133,2,V,6.0
V6,11.0,45.0,60.0,70.0,49.0,70,732.0,square3,j,0.1725,2,V,6.0
V6,12.0,45.0,66.0,64.0,48.0,64,796.0,square3,j,0.0005,2,V,6.0
V6,13.0,45.0,61.0,69.0,47.0,69,865.0,square3,j,0.0933,2,V,6.0
V6,14.0,47.0,60.0,71.0,56.0,71,936.0,square3,j,0.0576,2,V,6.0
V6,15.0,46.0,64.0,67.0,52.0,67,1003.0,square3,j,0.137,2,V,6.0
V6,16.0,50.0,60.0,69.0,54.0,69,1072.0,square3,j,0.005,2,V,6.0
V6,17.0,43.0,60.0,70.0,53.0,70,1142.0,square3,j,0.4461,2,V,6.0
V6,18.0,46.0,63.0,72.0,55.0,63,1205.0,square2,r,0.0098,1,V,6.0
V6,19.0,46.0,65.0,73.0,51.0,65,1270.0,square2,r,0.0489,1,V,6.0
V6,20.0,44.0,63.0,66.0,51.0,63,1333.0,square2,r,0.0004,1,V,6.0
V6,21.0,43.0,63.0,70.0,49.0,43,1376.0,square1,i,0.029,0,V,6.0
V6,22.0,45.0,63.0,71.0,50.0,45,1421.0,square1,i,0.0622,0,V,6.0
V6,23.0,45.0,38.0,28.0,60.0,60,1481.0,square4,f,0.0938,3,V,6.0
V6,24.0,46.0,33.0,33.0,53.0,53,1534.0,square4,f,0.0243,3,V,6.0
V6,25.0,45.0,36.0,32.0,63.0,32,1566.0,square3,j,0.1742,2,V,6.0
V6,26.0,52.0,37.0,28.0,57.0,28,1594.0,square3,j,0.1603,2,V,6.0
V6,27.0,45.0,33.0,30.0,62.0,33,1627.0,square2,r,0.2612,1,V,6.0
V6,28.0,43.0,37.0,24.0,51.0,37,1664.0,square2,r,0.1261,1,V,6.0
V6,29.0,48.0,39.0,34.0,61.0,61,1725.0,square4,f,0.0572,3,V,6.0
V6,30.0,48.0,44.0,35.0,59.0,59,1784.0,square4,f,0.0204,3,V,6.0
V6,31.0,50.0,39.0,34.0,53.0,53,1837.0,square4,f,0.1144,3,V,6.0
V6,32.0,44.0,33.0,33.0,54.0,54,1891.0,square4,f,0.1287,3,V,6.0
V6,33.0,48.0,37.0,30.0,56.0,56,1947.0,square4,f,0.06,3,V,6.0
V6,34.0,52.0,37.0,27.0,59.0,59,2006.0,square4,f,0.0651,3,V,6.0
V6,35.0,47.0,32.0,29.0,59.0,59,2065.0,square4,f,0.1099,3,V,6.0
V6,36.0,45.0,37.0,27.0,56.0,56,2121.0,square4,f,0.1596,3,V,6.0
V6,37.0,39.0,37.0,31.0,57.0,57,2178.0,square4,f,0.0006,3,V,6.0
V6,38.0,50.0,38.0,29.0,56.0,56,2234.0,square4,f,0.0274,3,V,6.0
V6,39.0,48.0,37.0,27.0,57.0,48,2282.0,square1,i,0.075,0,V,6.0
V6,40.0,53.0,37.0,29.0,57.0,57,2339.0,square4,f,0.0878,3,V,6.0
V6,41.0,41.0,34.0,33.0,58.0,58,2397.0,square4,f,0.076,3,V,6.0
V6,42.0,50.0,37.0,31.0,57.0,57,2454.0,square4,f,0.0397,3,V,6.0
V6,43.0,48.0,34.0,30.0,58.0,58,2512.0,square4,f,0.2264,3,V,6.0
V6,44.0,44.0,37.0,33.0,60.0,60,2572.0,square4,f,0.0535,3,V,6.0
V6,45.0,44.0,32.0,33.0,55.0,55,2627.0,square4,f,0.1278,3,V,6.0
V6,46.0,44.0,36.0,33.0,59.0,59,2686.0,square4,f,0.0008,3,V,6.0
V6,47.0,42.0,34.0,29.0,52.0,52,2738.0,square4,f,0.0006,3,V,6.0
V6,48.0,46.0,41.0,28.0,60.0,60,2798.0,square4,f,0.1543,3,V,6.0
V6,49.0,46.0,40.0,27.0,55.0,55,2853.0,square4,f,0.0033,3,V,6.0
V6,50.0,46.0,41.0,32.0,55.0,55,2908.0,square4,f,0.177,3,V,6.0
V6,51.0,41.0,39.0,30.0,55.0,55,2963.0,square4,f,0.0007,3,V,6.0
V6,52.0,47.0,37.0,31.0,55.0,55,3018.0,square4,f,0.1431,3,V,6.0
V6,53.0,57.0,36.0,30.0,58.0,58,3076.0,square4,f,0.1767,3,V,6.0
V6,54.0,42.0,38.0,28.0,50.0,50,3126.0,square4,f,0.1636,3,V,6.0
V6,55.0,56.0,42.0,67.0,46.0,46,3172.0,square4,f,0.2052,3,V,6.0
V6,56.0,54.0,37.0,68.0,46.0,68,3240.0,square3,j,0.1546,2,V,6.0
V6,57.0,57.0,40.0,64.0,52.0,40,3280.0,square2,r,0.1101,1,V,6.0
V6,58.0,53.0,45.0,68.0,45.0,68,3348.0,square3,j,0.0006,2,V,6.0
V6,59.0,59.0,41.0,69.0,49.0,69,3417.0,square3,j,0.0006,2,V,6.0
V6,60.0,62.0,41.0,71.0,51.0,71,3488.0,square3,j,0.1225,2,V,6.0
V6,61.0,58.0,50.0,72.0,51.0,72,3560.0,square3,j,0.0974,2,V,6.0
V6,62.0,61.0,43.0,65.0,47.0,65,3625.0,square3,j,0.0951,2,V,6.0
V6,63.0,55.0,40.0,67.0,51.0,67,3692.0,square3,j,0.1045,2,V,6.0
V6,64.0,56.0,43.0,67.0,47.0,67,3759.0,square3,j,0.0468,2,V,6.0
V6,65.0,62.0,46.0,67.0,48.0,67,3826.0,square3,j,0.0755,2,V,6.0
V6,66.0,55.0,44.0,67.0,48.0,67,3893.0,square3,j,0.0593,2,V,6.0
V6,67.0,61.0,46.0,70.0,49.0,70,3963.0,square3,j,0.1938,2,V,6.0
V6,68.0,63.0,41.0,72.0,46.0,72,4035.0,square3,j,0.1443,2,V,6.0
V6,69.0,59.0,41.0,68.0,48.0,68,4103.0,square3,j,0.012,2,V,6.0
V6,70.0,59.0,37.0,70.0,45.0,70,4173.0,square3,j,0.0552,2,V,6.0
V6,71.0,83.0,64.0,56.0,70.0,56,4229.0,square3,j,0.0604,2,V,6.0
V6,72.0,82.0,59.0,53.0,75.0,53,4282.0,square3,j,0.0112,2,V,6.0
V6,73.0,85.0,67.0,58.0,73.0,73,4355.0,square4,f,0.0634,3,V,6.0
V6,74.0,79.0,67.0,61.0,73.0,73,4428.0,square4,f,0.0801,3,V,6.0
V6,75.0,84.0,62.0,53.0,69.0,69,4497.0,square4,f,0.0215,3,V,6.0
V6,76.0,81.0,60.0,55.0,76.0,76,4573.0,square4,f,0.1066,3,V,6.0
V6,77.0,84.0,61.0,60.0,72.0,72,4645.0,square4,f,0.107,3,V,6.0
V6,78.0,90.0,61.0,54.0,74.0,74,4719.0,square4,f,0.1228,3,V,6.0
V6,79.0,80.0,64.0,51.0,75.0,75,4794.0,square4,f,0.0931,3,V,6.0
V6,80.0,85.0,62.0,56.0,78.0,78,4872.0,square4,f,0.1374,3,V,6.0
V6,81.0,86.0,65.0,58.0,69.0,69,4941.0,square4,f,0.0765,3,V,6.0
V6,82.0,83.0,62.0,58.0,77.0,77,5018.0,square4,f,0.0605,3,V,6.0
V6,83.0,87.0,61.0,59.0,70.0,87,5105.0,square1,i,0.0617,0,V,6.0
V6,84.0,89.0,65.0,54.0,78.0,89,5194.0,square1,i,0.06,0,V,6.0
V6,85.0,78.0,63.0,55.0,75.0,78,5272.0,square1,i,0.0284,0,V,6.0
V6,86.0,87.0,67.0,52.0,75.0,67,5339.0,square2,r,0.0006,1,V,6.0
V6,87.0,86.0,62.0,60.0,75.0,86,5425.0,square1,i,0.1379,0,V,6.0
V6,88.0,79.0,67.0,56.0,76.0,56,5481.0,square3,j,0.0208,2,V,6.0
V6,89.0,83.0,61.0,57.0,75.0,83,5564.0,square1,i,0.1256,0,V,6.0
V6,90.0,83.0,67.0,51.0,76.0,83,5647.0,square1,i,0.0763,0,V,6.0
V6,91.0,83.0,63.0,55.0,69.0,83,5730.0,square1,i,0.1026,0,V,6.0
V6,92.0,89.0,56.0,53.0,68.0,89,5819.0,square1,i,0.0126,0,V,6.0
V6,93.0,84.0,61.0,59.0,74.0,74,5893.0,square4,f,0.1431,3,V,6.0
V6,94.0,77.0,58.0,58.0,76.0,77,5970.0,square1,i,0.0931,0,V,6.0
V6,95.0,82.0,60.0,53.0,74.0,82,6052.0,square1,i,0.1609,0,V,6.0
V6,96.0,87.0,61.0,56.0,71.0,87,6139.0,square1,i,0.0897,0,V,6.0
V6,97.0,83.0,66.0,55.0,75.0,83,6222.0,square1,i,0.093,0,V,6.0
V6,98.0,81.0,63.0,55.0,76.0,81,6303.0,square1,i,0.0259,0,V,6.0
V6,99.0,92.0,63.0,61.0,78.0,92,6395.0,square1,i,0.1057,0,V,6.0
V5,0.0,46.0,21.0,37.0,28.0,37,37.0,square3,r,0.7157,2,V,5.0
V5,1.0,43.0,27.0,36.0,31.0,27,64.0,square2,i,0.5512,1,V,5.0
V5,2.0,50.0,18.0,43.0,32.0,50,114.0,square1,f,0.712,0,V,5.0
V5,3.0,53.0,23.0,36.0,34.0,34,148.0,square4,j,0.1557,3,V,5.0
V5,4.0,52.0,19.0,38.0,34.0,52,200.0,square1,f,0.1564,0,V,5.0
V5,5.0,50.0,22.0,41.0,29.0,50,250.0,square1,f,0.1266,0,V,5.0
V5,6.0,52.0,19.0,40.0,33.0,52,302.0,square1,f,0.0462,0,V,5.0
V5,7.0,48.0,24.0,36.0,27.0,48,350.0,square1,f,0.1296,0,V,5.0
V5,8.0,50.0,24.0,35.0,33.0,50,400.0,square1,f,0.0736,0,V,5.0
V5,9.0,48.0,25.0,39.0,34.0,48,448.0,square1,f,0.0006,0,V,5.0
V5,10.0,52.0,19.0,32.0,34.0,52,500.0,square1,f,0.0427,0,V,5.0
V5,11.0,48.0,22.0,32.0,32.0,48,548.0,square1,f,0.1067,0,V,5.0
V5,12.0,47.0,17.0,43.0,29.0,47,595.0,square1,f,0.1768,0,V,5.0
V5,13.0,46.0,21.0,42.0,29.0,29,624.0,square4,j,0.1266,3,V,5.0
V5,14.0,47.0,28.0,42.0,28.0,28,652.0,square4,j,0.1926,3,V,5.0
V5,15.0,50.0,29.0,38.0,36.0,29,681.0,square2,i,0.0318,1,V,5.0
V5,16.0,49.0,24.0,36.0,34.0,24,705.0,square2,i,0.0606,1,V,5.0
V5,17.0,50.0,20.0,38.0,35.0,20,725.0,square2,i,0.0839,1,V,5.0
V5,18.0,49.0,22.0,46.0,29.0,22,747.0,square2,i,0.0457,1,V,5.0
V5,19.0,46.0,23.0,40.0,31.0,40,787.0,square3,r,0.1066,2,V,5.0
V5,20.0,51.0,22.0,41.0,28.0,41,828.0,square3,r,0.194,2,V,5.0
V5,21.0,51.0,26.0,36.0,31.0,36,864.0,square3,r,0.0235,2,V,5.0
V5,22.0,47.0,18.0,41.0,28.0,47,911.0,square1,f,0.1033,0,V,5.0
V5,23.0,52.0,20.0,36.0,29.0,52,963.0,square1,f,0.0293,0,V,5.0
V5,24.0,51.0,21.0,41.0,34.0,51,1014.0,square1,f,0.0006,0,V,5.0
V5,25.0,50.0,20.0,41.0,27.0,50,1064.0,square1,f,0.0935,0,V,5.0
V5,26.0,49.0,29.0,37.0,28.0,49,1113.0,square1,f,0.1106,0,V,5.0
V5,27.0,10.0,13.0,42.0,32.0,10,1123.0,square1,f,0.0851,0,V,5.0
V5,28.0,9.0,19.0,40.0,27.0,40,1163.0,square3,r,0.1608,2,V,5.0
V5,29.0,17.0,17.0,38.0,29.0,38,1201.0,square3,r,0.0005,2,V,5.0
V5,30.0,8.0,18.0,36.0,29.0,36,1237.0,square3,r,0.138,2,V,5.0
V5,31.0,16.0,24.0,34.0,29.0,34,1271.0,square3,r,0.1103,2,V,5.0
V5,32.0,9.0,17.0,35.0,31.0,35,1306.0,square3,r,0.0642,2,V,5.0
V5,33.0,11.0,19.0,36.0,28.0,36,1342.0,square3,r,0.0592,2,V,5.0
V5,34.0,10.0,19.0,38.0,28.0,38,1380.0,square3,r,0.0887,2,V,5.0
V5,35.0,5.0,23.0,40.0,34.0,40,1420.0,square3,r,0.0493,2,V,5.0
V5,36.0,17.0,20.0,36.0,31.0,36,1456.0,square3,r,0.0927,2,V,5.0
V5,37.0,12.0,13.0,36.0,30.0,13,1469.0,square2,i,0.1037,1,V,5.0
V5,38.0,14.0,24.0,35.0,27.0,24,1493.0,square2,i,0.1105,1,V,5.0
V5,39.0,13.0,20.0,39.0,32.0,20,1513.0,square2,i,0.0881,1,V,5.0
V5,40.0,9.0,15.0,37.0,24.0,24,1537.0,square4,j,0.1382,3,V,5.0
V5,41.0,9.0,14.0,38.0,31.0,31,1568.0,square4,j,0.0623,3,V,5.0
V5,42.0,14.0,17.0,43.0,31.0,31,1599.0,square4,j,0.0432,3,V,5.0
V5,43.0,10.0,18.0,39.0,23.0,39,1638.0,square3,r,0.027,2,V,5.0
V5,44.0,10.0,20.0,33.0,32.0,33,1671.0,square3,r,0.0265,2,V,5.0
V5,45.0,16.0,17.0,37.0,29.0,37,1708.0,square3,r,0.1472,2,V,5.0
V5,46.0,9.0,22.0,37.0,25.0,37,1745.0,square3,r,0.0235,2,V,5.0
V5,47.0,10.0,22.0,35.0,26.0,10,1755.0,square1,f,0.0485,0,V,5.0
V5,48.0,11.0,16.0,39.0,23.0,39,1794.0,square3,r,0.0997,2,V,5.0
V5,49.0,13.0,16.0,33.0,27.0,33,1827.0,square3,r,0.0645,2,V,5.0
V5,50.0,12.0,16.0,39.0,24.0,39,1866.0,square3,r,0.1445,2,V,5.0
V5,51.0,10.0,21.0,43.0,28.0,43,1909.0,square3,r,0.0742,2,V,5.0
V5,52.0,8.0,15.0,36.0,28.0,36,1945.0,square3,r,0.1164,2,V,5.0
V5,53.0,38.0,20.0,31.0,54.0,31,1976.0,square3,r,0.0938,2,V,5.0
V5,54.0,39.0,20.0,35.0,51.0,35,2011.0,square3,r,0.1139,2,V,5.0
V5,55.0,41.0,21.0,27.0,50.0,41,2052.0,square1,f,0.1549,0,V,5.0
V5,56.0,39.0,23.0,28.0,49.0,39,2091.0,square1,f,0.002,0,V,5.0
V5,57.0,36.0,28.0,29.0,59.0,36,2127.0,square1,f,0.1229,0,V,5.0
V5,58.0,38.0,22.0,28.0,49.0,38,2165.0,square1,f,0.1106,0,V,5.0
V5,59.0,44.0,23.0,30.0,51.0,44,2209.0,square1,f,0.0956,0,V,5.0
V5,60.0,43.0,21.0,31.0,48.0,21,2230.0,square2,i,0.1709,1,V,5.0
V5,61.0,39.0,24.0,35.0,50.0,50,2280.0,square4,j,0.1062,3,V,5.0
V5,62.0,38.0,25.0,31.0,52.0,52,2332.0,square4,j,0.0402,3,V,5.0
V5,63.0,41.0,14.0,31.0,52.0,52,2384.0,square4,j,0.0603,3,V,5.0
V5,64.0,43.0,23.0,30.0,51.0,51,2435.0,square4,j,0.0081,3,V,5.0
V5,65.0,41.0,23.0,35.0,52.0,52,2487.0,square4,j,0.0006,3,V,5.0
V5,66.0,41.0,17.0,33.0,47.0,47,2534.0,square4,j,0.0395,3,V,5.0
V5,67.0,44.0,23.0,32.0,49.0,49,2583.0,square4,j,0.1242,3,V,5.0
V5,68.0,44.0,24.0,31.0,44.0,44,2627.0,square4,j,0.0268,3,V,5.0
V5,69.0,43.0,28.0,27.0,48.0,48,2675.0,square4,j,0.0398,3,V,5.0
V5,70.0,38.0,22.0,26.0,50.0,38,2713.0,square1,f,0.1041,0,V,5.0
V5,71.0,41.0,29.0,26.0,53.0,26,2739.0,square3,r,0.1486,2,V,5.0
V5,72.0,40.0,20.0,28.0,51.0,51,2790.0,square4,j,0.0411,3,V,5.0
V5,73.0,59.0,44.0,51.0,35.0,35,2825.0,square4,j,0.0938,3,V,5.0
V5,74.0,60.0,38.0,55.0,43.0,99999,2825.0,invalid,,,-1,V,5.0
V5,75.0,63.0,45.0,50.0,37.0,37,2862.0,square4,j,0.0784,3,V,5.0
V5,76.0,62.0,42.0,50.0,37.0,37,2899.0,square4,j,0.1647,3,V,5.0
V5,77.0,57.0,37.0,52.0,35.0,35,2934.0,square4,j,0.574,3,V,5.0
V5,78.0,66.0,45.0,54.0,37.0,66,3000.0,square1,f,0.0051,0,V,5.0
V5,79.0,64.0,37.0,48.0,35.0,64,3064.0,square1,f,0.124,0,V,5.0
V5,80.0,63.0,40.0,56.0,38.0,63,3127.0,square1,f,0.021,0,V,5.0
V5,81.0,62.0,41.0,54.0,32.0,62,3189.0,square1,f,0.177,0,V,5.0
V5,82.0,58.0,41.0,59.0,39.0,58,3247.0,square1,f,0.0711,0,V,5.0
V5,83.0,66.0,46.0,54.0,35.0,66,3313.0,square1,f,0.3929,0,V,5.0
V5,84.0,67.0,44.0,52.0,33.0,67,3380.0,square1,f,0.0207,0,V,5.0
V5,85.0,67.0,45.0,46.0,36.0,67,3447.0,square1,f,0.087,0,V,5.0
V5,86.0,65.0,44.0,51.0,38.0,99999,3447.0,invalid,,,-1,V,5.0
V5,87.0,64.0,49.0,48.0,35.0,64,3511.0,square1,f,0.0454,0,V,5.0
V5,88.0,68.0,47.0,56.0,36.0,68,3579.0,square1,f,0.1261,0,V,5.0
V5,89.0,60.0,42.0,57.0,32.0,99999,3579.0,invalid,,,-1,V,5.0
V5,90.0,59.0,43.0,53.0,34.0,53,3632.0,square3,r,0.4621,2,V,5.0
V5,91.0,64.0,43.0,51.0,34.0,51,3683.0,square3,r,0.1235,2,V,5.0
V5,92.0,65.0,41.0,57.0,38.0,57,3740.0,square3,r,0.1075,2,V,5.0
V5,93.0,59.0,48.0,54.0,40.0,54,3794.0,square3,r,0.0238,2,V,5.0
V5,94.0,66.0,44.0,53.0,43.0,43,3837.0,square4,j,0.0004,3,V,5.0
V5,95.0,63.0,43.0,50.0,40.0,50,3887.0,square3,r,0.1205,2,V,5.0
V5,96.0,62.0,44.0,50.0,33.0,50,3937.0,square3,r,0.0913,2,V,5.0
V5,97.0,64.0,49.0,55.0,37.0,55,3992.0,square3,r,0.1943,2,V,5.0
V5,98.0,65.0,44.0,53.0,36.0,53,4045.0,square3,r,0.1764,2,V,5.0
V5,99.0,65.0,42.0,55.0,35.0,55,4100.0,square3,r,1.0352,2,V,5.0
V9,0.0,20.0,29.0,37.0,45.0,45,45.0,square4,f,0.4383,3,V,9.0
V9,1.0,21.0,32.0,39.0,45.0,45,90.0,square4,f,0.0007,3,V,9.0
V9,2.0,16.0,27.0,41.0,48.0,41,131.0,square3,j,0.06,2,V,9.0
V9,3.0,20.0,30.0,42.0,50.0,20,151.0,square1,i,0.0104,0,V,9.0
V9,4.0,22.0,34.0,37.0,47.0,34,185.0,square2,r,0.0305,1,V,9.0
V9,5.0,17.0,32.0,38.0,49.0,49,234.0,square4,f,0.0218,3,V,9.0
V9,6.0,17.0,25.0,39.0,47.0,47,281.0,square4,f,0.0137,3,V,9.0
V9,7.0,22.0,28.0,33.0,48.0,48,329.0,square4,f,0.1561,3,V,9.0
V9,8.0,20.0,24.0,34.0,41.0,41,370.0,square4,f,0.1297,3,V,9.0
V9,9.0,20.0,33.0,30.0,51.0,30,400.0,square3,j,0.0926,2,V,9.0
V9,10.0,21.0,35.0,38.0,50.0,38,438.0,square3,j,0.0421,2,V,9.0
V9,11.0,19.0,29.0,44.0,45.0,44,482.0,square3,j,0.0275,2,V,9.0
V9,12.0,27.0,24.0,38.0,54.0,38,520.0,square3,j,0.094,2,V,9.0
V9,13.0,15.0,26.0,37.0,50.0,37,557.0,square3,j,0.1088,2,V,9.0
V9,14.0,24.0,26.0,39.0,42.0,42,599.0,square4,f,0.2132,3,V,9.0
V9,15.0,26.0,27.0,43.0,49.0,49,648.0,square4,f,0.1359,3,V,9.0
V9,16.0,19.0,30.0,42.0,49.0,49,697.0,square4,f,0.0871,3,V,9.0
V9,17.0,21.0,30.0,34.0,49.0,49,746.0,square4,f,0.08,3,V,9.0
V9,18.0,25.0,33.0,41.0,51.0,51,797.0,square4,f,0.0868,3,V,9.0
V9,19.0,17.0,31.0,41.0,45.0,45,842.0,square4,f,0.0408,3,V,9.0
V9,20.0,19.0,31.0,34.0,49.0,31,873.0,square2,r,0.0547,1,V,9.0
V9,21.0,23.0,29.0,37.0,48.0,29,902.0,square2,r,0.0007,1,V,9.0
V9,22.0,15.0,32.0,36.0,48.0,32,934.0,square2,r,0.027,1,V,9.0
V9,23.0,25.0,33.0,39.0,47.0,33,967.0,square2,r,0.0188,1,V,9.0
V9,24.0,21.0,30.0,38.0,52.0,21,988.0,square1,i,0.1037,0,V,9.0
V9,25.0,25.0,29.0,42.0,48.0,25,1013.0,square1,i,0.0904,0,V,9.0
V9,26.0,22.0,29.0,39.0,47.0,39,1052.0,square3,j,0.2317,2,V,9.0
V9,27.0,17.0,31.0,45.0,41.0,45,1097.0,square3,j,0.0256,2,V,9.0
V9,28.0,29.0,28.0,43.0,43.0,43,1140.0,square3,j,0.009,2,V,9.0
V9,29.0,20.0,31.0,43.0,49.0,43,1183.0,square3,j,0.0006,2,V,9.0
V9,30.0,23.0,33.0,39.0,48.0,48,1231.0,square4,f,0.0006,3,V,9.0
V9,31.0,20.0,27.0,38.0,53.0,53,1284.0,square4,f,0.0006,3,V,9.0
V9,32.0,23.0,29.0,37.0,49.0,49,1333.0,square4,f,0.0265,3,V,9.0
V9,33.0,24.0,33.0,37.0,49.0,49,1382.0,square4,f,0.0441,3,V,9.0
V9,34.0,43.0,58.0,48.0,30.0,30,1412.0,square4,f,0.1239,3,V,9.0
V9,35.0,48.0,59.0,45.0,34.0,34,1446.0,square4,f,0.0877,3,V,9.0
V9,36.0,39.0,56.0,54.0,32.0,32,1478.0,square4,f,0.1226,3,V,9.0
V9,37.0,40.0,57.0,50.0,35.0,35,1513.0,square4,f,0.0779,3,V,9.0
V9,38.0,49.0,62.0,51.0,33.0,33,1546.0,square4,f,0.0258,3,V,9.0
V9,39.0,45.0,61.0,48.0,34.0,34,1580.0,square4,f,0.0286,3,V,9.0
V9,40.0,40.0,65.0,51.0,29.0,29,1609.0,square4,f,0.0909,3,V,9.0
V9,41.0,44.0,57.0,50.0,38.0,50,1659.0,square3,j,0.0006,2,V,9.0
V9,42.0,40.0,57.0,49.0,33.0,49,1708.0,square3,j,0.0604,2,V,9.0
V9,43.0,42.0,64.0,54.0,35.0,54,1762.0,square3,j,0.1103,2,V,9.0
V9,44.0,44.0,55.0,49.0,39.0,49,1811.0,square3,j,0.0736,2,V,9.0
V9,45.0,37.0,66.0,51.0,35.0,51,1862.0,square3,j,0.126,2,V,9.0
V9,46.0,40.0,59.0,51.0,32.0,51,1913.0,square3,j,0.052,2,V,9.0
V9,47.0,38.0,62.0,57.0,31.0,57,1970.0,square3,j,0.1728,2,V,9.0
V9,48.0,43.0,61.0,54.0,34.0,54,2024.0,square3,j,0.0018,2,V,9.0
V9,49.0,43.0,61.0,49.0,40.0,49,2073.0,square3,j,0.1105,2,V,9.0
V9,50.0,37.0,58.0,51.0,32.0,51,2124.0,square3,j,0.0175,2,V,9.0
V9,51.0,44.0,63.0,48.0,39.0,48,2172.0,square3,j,0.0442,2,V,9.0
V9,52.0,35.0,65.0,48.0,30.0,35,2207.0,square1,i,0.0766,0,V,9.0
V9,53.0,43.0,59.0,48.0,39.0,43,2250.0,square1,i,0.0007,0,V,9.0
V9,54.0,43.0,59.0,52.0,30.0,43,2293.0,square1,i,0.0949,0,V,9.0
V9,55.0,41.0,58.0,51.0,34.0,41,2334.0,square1,i,0.127,0,V,9.0
V9,56.0,44.0,63.0,50.0,33.0,44,2378.0,square1,i,0.064,0,V,9.0
V9,57.0,42.0,60.0,49.0,32.0,42,2420.0,square1,i,0.0934,0,V,9.0
V9,58.0,44.0,62.0,57.0,30.0,44,2464.0,square1,i,0.1441,0,V,9.0
V9,59.0,45.0,61.0,45.0,31.0,45,2509.0,square1,i,0.1444,0,V,9.0
V9,60.0,43.0,63.0,53.0,33.0,43,2552.0,square1,i,0.1239,0,V,9.0
V9,61.0,39.0,56.0,55.0,31.0,39,2591.0,square1,i,0.0458,0,V,9.0
V9,62.0,39.0,61.0,50.0,34.0,39,2630.0,square1,i,0.0734,0,V,9.0
V9,63.0,44.0,57.0,48.0,36.0,57,2687.0,square2,r,0.0032,1,V,9.0
V9,64.0,40.0,60.0,58.0,35.0,60,2747.0,square2,r,0.2218,1,V,9.0
V9,65.0,42.0,60.0,54.0,38.0,60,2807.0,square2,r,0.0226,1,V,9.0
V9,66.0,41.0,60.0,54.0,37.0,60,2867.0,square2,r,0.0779,1,V,9.0
V9,67.0,43.0,61.0,54.0,40.0,61,2928.0,square2,r,0.1287,1,V,9.0
V9,68.0,45.0,40.0,26.0,18.0,40,2968.0,square2,r,0.1406,1,V,9.0
V9,69.0,50.0,41.0,29.0,20.0,41,3009.0,square2,r,0.0914,1,V,9.0
V9,70.0,43.0,36.0,27.0,15.0,27,3036.0,square3,j,0.0204,2,V,9.0
V9,71.0,44.0,40.0,28.0,18.0,18,3054.0,square4,f,0.0477,3,V,9.0
V9,72.0,42.0,38.0,27.0,18.0,42,3096.0,square1,i,0.091,0,V,9.0
V9,73.0,46.0,33.0,25.0,19.0,33,3129.0,square2,r,0.0044,1,V,9.0
V9,74.0,47.0,40.0,28.0,20.0,40,3169.0,square2,r,0.1415,1,V,9.0
V9,75.0,39.0,39.0,27.0,25.0,39,3208.0,square2,r,0.0696,1,V,9.0
V9,76.0,50.0,31.0,29.0,23.0,50,3258.0,square1,i,0.1111,0,V,9.0
V9,77.0,44.0,37.0,28.0,13.0,44,3302.0,square1,i,0.1055,0,V,9.0
V9,78.0,43.0,36.0,23.0,17.0,43,3345.0,square1,i,0.055,0,V,9.0
V9,79.0,42.0,36.0,28.0,24.0,42,3387.0,square1,i,0.1098,0,V,9.0
V9,80.0,47.0,35.0,30.0,14.0,30,3417.0,square3,j,0.0008,2,V,9.0
V9,81.0,46.0,33.0,29.0,18.0,18,3435.0,square4,f,0.0295,3,V,9.0
V9,82.0,46.0,35.0,28.0,18.0,35,3470.0,square2,r,0.1604,1,V,9.0
V9,83.0,47.0,41.0,32.0,15.0,41,3511.0,square2,r,0.0006,1,V,9.0
V9,84.0,45.0,38.0,31.0,18.0,38,3549.0,square2,r,0.0271,1,V,9.0
V9,85.0,42.0,35.0,30.0,21.0,42,3591.0,square1,i,0.0769,0,V,9.0
V9,86.0,49.0,39.0,23.0,18.0,49,3640.0,square1,i,0.0097,0,V,9.0
V9,87.0,49.0,39.0,27.0,16.0,49,3689.0,square1,i,0.0946,0,V,9.0
V9,88.0,45.0,38.0,25.0,14.0,45,3734.0,square1,i,0.1393,0,V,9.0
V9,89.0,45.0,32.0,28.0,19.0,45,3779.0,square1,i,0.088,0,V,9.0
V9,90.0,44.0,35.0,29.0,20.0,44,3823.0,square1,i,0.088,0,V,9.0
V9,91.0,42.0,38.0,32.0,16.0,42,3865.0,square1,i,0.0008,0,V,9.0
V9,92.0,45.0,36.0,23.0,20.0,36,3901.0,square2,r,0.0386,1,V,9.0
V9,93.0,45.0,35.0,26.0,18.0,45,3946.0,square1,i,0.0644,0,V,9.0
V9,94.0,44.0,37.0,27.0,13.0,44,3990.0,square1,i,0.1924,0,V,9.0
V9,95.0,46.0,36.0,25.0,20.0,46,4036.0,square1,i,0.1715,0,V,9.0
V9,96.0,43.0,39.0,27.0,16.0,39,4075.0,square2,r,0.1359,1,V,9.0
V9,97.0,48.0,39.0,30.0,16.0,48,4123.0,square1,i,0.0095,0,V,9.0
V9,98.0,49.0,40.0,26.0,20.0,49,4172.0,square1,i,0.0382,0,V,9.0
V9,99.0,49.0,41.0,27.0,18.0,99999,4172.0,invalid,,,-1,V,9.0
