block,Trial,square1,square2,square3,square4,currPoints,totalPoints,square,choiceKey.keys,choiceKey.rt,armNum,blockType,blockNum
prac,0.0,100.0,0.0,0.0,0.0,0,0.0,square3,,,2,p,0.0
prac,1.0,100.0,0.0,0.0,0.0,100,100.0,square1,,,0,p,0.0
prac,2.0,100.0,0.0,0.0,0.0,100,200.0,square1,,,0,p,0.0
prac,3.0,100.0,0.0,0.0,0.0,100,300.0,square1,,,0,p,0.0
prac,4.0,100.0,0.0,0.0,0.0,100,400.0,square1,,,0,p,0.0
prac,5.0,100.0,0.0,0.0,0.0,100,500.0,square1,,,0,p,0.0
prac,6.0,100.0,0.0,0.0,0.0,100,600.0,square1,,,0,p,0.0
prac,7.0,100.0,0.0,0.0,0.0,0,600.0,square4,,,3,p,0.0
prac,8.0,100.0,0.0,0.0,0.0,0,600.0,square2,,,1,p,0.0
prac,9.0,100.0,0.0,0.0,0.0,100,700.0,square1,,,0,p,0.0
V9,0.0,20.0,29.0,37.0,45.0,20,20.0,square1,r,0.6415,0,V,9.0
V9,1.0,21.0,32.0,39.0,45.0,39,59.0,square3,i,0.3044,2,V,9.0
V9,2.0,16.0,27.0,41.0,48.0,27,86.0,square2,j,0.1007,1,V,9.0
V9,3.0,20.0,30.0,42.0,50.0,50,136.0,square4,f,0.3107,3,V,9.0
V9,4.0,22.0,34.0,37.0,47.0,47,183.0,square4,f,0.3671,3,V,9.0
V9,5.0,17.0,32.0,38.0,49.0,38,221.0,square3,i,0.3002,2,V,9.0
V9,6.0,17.0,25.0,39.0,47.0,47,268.0,square4,f,0.4506,3,V,9.0
V9,7.0,22.0,28.0,33.0,48.0,22,290.0,square1,r,0.3559,0,V,9.0
V9,8.0,20.0,24.0,34.0,41.0,24,314.0,square2,j,0.3176,1,V,9.0
V9,9.0,20.0,33.0,30.0,51.0,51,365.0,square4,f,0.2958,3,V,9.0
V9,10.0,21.0,35.0,38.0,50.0,50,415.0,square4,f,0.2832,3,V,9.0
V9,11.0,19.0,29.0,44.0,45.0,44,459.0,square3,i,0.3043,2,V,9.0
V9,12.0,27.0,24.0,38.0,54.0,54,513.0,square4,f,0.2944,3,V,9.0
V9,13.0,15.0,26.0,37.0,50.0,50,563.0,square4,f,0.2785,3,V,9.0
V9,14.0,24.0,26.0,39.0,42.0,39,602.0,square3,i,0.4456,2,V,9.0
V9,15.0,26.0,27.0,43.0,49.0,49,651.0,square4,f,0.3125,3,V,9.0
V9,16.0,19.0,30.0,42.0,49.0,30,681.0,square2,j,0.3114,1,V,9.0
V9,17.0,21.0,30.0,34.0,49.0,21,702.0,square1,r,0.2178,0,V,9.0
V9,18.0,25.0,33.0,41.0,51.0,51,753.0,square4,f,0.3509,3,V,9.0
V9,19.0,17.0,31.0,41.0,45.0,45,798.0,square4,f,0.2892,3,V,9.0
V9,20.0,19.0,31.0,34.0,49.0,49,847.0,square4,f,0.3129,3,V,9.0
V9,21.0,23.0,29.0,37.0,48.0,37,884.0,square3,i,0.3837,2,V,9.0
V9,22.0,15.0,32.0,36.0,48.0,15,899.0,square1,r,0.4828,0,V,9.0
V9,23.0,25.0,33.0,39.0,47.0,33,932.0,square2,j,0.3169,1,V,9.0
V9,24.0,21.0,30.0,38.0,52.0,52,984.0,square4,f,0.2257,3,V,9.0
V9,25.0,25.0,29.0,42.0,48.0,48,1032.0,square4,f,0.3529,3,V,9.0
V9,26.0,22.0,29.0,39.0,47.0,47,1079.0,square4,f,0.2673,3,V,9.0
V9,27.0,17.0,31.0,45.0,41.0,41,1120.0,square4,f,0.2734,3,V,9.0
V9,28.0,29.0,28.0,43.0,43.0,43,1163.0,square4,f,0.2751,3,V,9.0
V9,29.0,20.0,31.0,43.0,49.0,49,1212.0,square4,f,0.2364,3,V,9.0
V9,30.0,23.0,33.0,39.0,48.0,48,1260.0,square4,f,0.1948,3,V,9.0
V9,31.0,20.0,27.0,38.0,53.0,53,1313.0,square4,f,0.3673,3,V,9.0
V9,32.0,23.0,29.0,37.0,49.0,49,1362.0,square4,f,0.3343,3,V,9.0
V9,33.0,24.0,33.0,37.0,49.0,37,1399.0,square3,i,0.2791,2,V,9.0
V9,34.0,43.0,58.0,48.0,30.0,30,1429.0,square4,f,0.3847,3,V,9.0
V9,35.0,48.0,59.0,45.0,34.0,45,1474.0,square3,i,0.3074,2,V,9.0
V9,36.0,39.0,56.0,54.0,32.0,54,1528.0,square3,i,0.5003,2,V,9.0
V9,37.0,40.0,57.0,50.0,35.0,50,1578.0,square3,i,0.2794,2,V,9.0
V9,38.0,49.0,62.0,51.0,33.0,51,1629.0,square3,i,0.3261,2,V,9.0
V9,39.0,45.0,61.0,48.0,34.0,48,1677.0,square3,i,0.1962,2,V,9.0
V9,40.0,40.0,65.0,51.0,29.0,51,1728.0,square3,i,0.0264,2,V,9.0
V9,41.0,44.0,57.0,50.0,38.0,50,1778.0,square3,i,0.1438,2,V,9.0
V9,42.0,40.0,57.0,49.0,33.0,57,1835.0,square2,j,0.1571,1,V,9.0
V9,43.0,42.0,64.0,54.0,35.0,42,1877.0,square1,r,0.2818,0,V,9.0
V9,44.0,44.0,55.0,49.0,39.0,55,1932.0,square2,j,0.4816,1,V,9.0
V9,45.0,37.0,66.0,51.0,35.0,66,1998.0,square2,j,0.2834,1,V,9.0
V9,46.0,40.0,59.0,51.0,32.0,59,2057.0,square2,j,0.1034,1,V,9.0
V9,47.0,38.0,62.0,57.0,31.0,62,2119.0,square2,j,0.1669,1,V,9.0
V9,48.0,43.0,61.0,54.0,34.0,61,2180.0,square2,j,0.0672,1,V,9.0
V9,49.0,43.0,61.0,49.0,40.0,61,2241.0,square2,j,0.1249,1,V,9.0
V9,50.0,37.0,58.0,51.0,32.0,58,2299.0,square2,j,0.6833,1,V,9.0
V9,51.0,44.0,63.0,48.0,39.0,63,2362.0,square2,j,0.2922,1,V,9.0
V9,52.0,35.0,65.0,48.0,30.0,65,2427.0,square2,j,0.0313,1,V,9.0
V9,53.0,43.0,59.0,48.0,39.0,59,2486.0,square2,j,0.0271,1,V,9.0
V9,54.0,43.0,59.0,52.0,30.0,30,2516.0,square4,f,0.0797,3,V,9.0
V9,55.0,41.0,58.0,51.0,34.0,51,2567.0,square3,i,0.217,2,V,9.0
V9,56.0,44.0,63.0,50.0,33.0,44,2611.0,square1,r,0.3338,0,V,9.0
V9,57.0,42.0,60.0,49.0,32.0,60,2671.0,square2,j,0.3012,1,V,9.0
V9,58.0,44.0,62.0,57.0,30.0,62,2733.0,square2,j,0.4839,1,V,9.0
V9,59.0,45.0,61.0,45.0,31.0,61,2794.0,square2,j,0.3208,1,V,9.0
V9,60.0,43.0,63.0,53.0,33.0,63,2857.0,square2,j,0.6505,1,V,9.0
V9,61.0,39.0,56.0,55.0,31.0,56,2913.0,square2,j,0.2797,1,V,9.0
V9,62.0,39.0,61.0,50.0,34.0,61,2974.0,square2,j,0.0342,1,V,9.0
V9,63.0,44.0,57.0,48.0,36.0,57,3031.0,square2,j,0.0011,1,V,9.0
V9,64.0,40.0,60.0,58.0,35.0,60,3091.0,square2,j,0.5673,1,V,9.0
V9,65.0,42.0,60.0,54.0,38.0,60,3151.0,square2,j,0.3685,1,V,9.0
V9,66.0,41.0,60.0,54.0,37.0,54,3205.0,square3,i,0.2319,2,V,9.0
V9,67.0,43.0,61.0,54.0,40.0,40,3245.0,square4,f,0.3406,3,V,9.0
V9,68.0,45.0,40.0,26.0,18.0,40,3285.0,square2,j,0.3059,1,V,9.0
V9,69.0,50.0,41.0,29.0,20.0,41,3326.0,square2,j,0.234,1,V,9.0
V9,70.0,43.0,36.0,27.0,15.0,27,3353.0,square3,i,0.1262,2,V,9.0
V9,71.0,44.0,40.0,28.0,18.0,18,3371.0,square4,f,0.2515,3,V,9.0
V9,72.0,42.0,38.0,27.0,18.0,42,3413.0,square1,r,0.1972,0,V,9.0
V9,73.0,46.0,33.0,25.0,19.0,33,3446.0,square2,j,0.6001,1,V,9.0
V9,74.0,47.0,40.0,28.0,20.0,47,3493.0,square1,r,0.263,0,V,9.0
V9,75.0,39.0,39.0,27.0,25.0,39,3532.0,square1,r,0.2529,0,V,9.0
V9,76.0,50.0,31.0,29.0,23.0,50,3582.0,square1,r,0.1621,0,V,9.0
V9,77.0,44.0,37.0,28.0,13.0,44,3626.0,square1,r,0.0831,0,V,9.0
V9,78.0,43.0,36.0,23.0,17.0,43,3669.0,square1,r,0.0327,0,V,9.0
V9,79.0,42.0,36.0,28.0,24.0,42,3711.0,square1,r,0.1888,0,V,9.0
V9,80.0,47.0,35.0,30.0,14.0,47,3758.0,square1,r,0.0373,0,V,9.0
V9,81.0,46.0,33.0,29.0,18.0,46,3804.0,square1,r,0.138,0,V,9.0
V9,82.0,46.0,35.0,28.0,18.0,35,3839.0,square2,j,0.0088,1,V,9.0
V9,83.0,47.0,41.0,32.0,15.0,32,3871.0,square3,i,0.2982,2,V,9.0
V9,84.0,45.0,38.0,31.0,18.0,18,3889.0,square4,f,0.3032,3,V,9.0
V9,85.0,42.0,35.0,30.0,21.0,42,3931.0,square1,r,0.3563,0,V,9.0
V9,86.0,49.0,39.0,23.0,18.0,49,3980.0,square1,r,0.0033,0,V,9.0
V9,87.0,49.0,39.0,27.0,16.0,49,4029.0,square1,r,0.4931,0,V,9.0
V9,88.0,45.0,38.0,25.0,14.0,45,4074.0,square1,r,0.3081,0,V,9.0
V9,89.0,45.0,32.0,28.0,19.0,45,4119.0,square1,r,0.2131,0,V,9.0
V9,90.0,44.0,35.0,29.0,20.0,44,4163.0,square1,r,0.097,0,V,9.0
V9,91.0,42.0,38.0,32.0,16.0,42,4205.0,square1,r,0.6888,0,V,9.0
V9,92.0,45.0,36.0,23.0,20.0,45,4250.0,square1,r,0.0518,0,V,9.0
V9,93.0,45.0,35.0,26.0,18.0,45,4295.0,square1,r,0.4961,0,V,9.0
V9,94.0,44.0,37.0,27.0,13.0,37,4332.0,square2,j,0.1343,1,V,9.0
V9,95.0,46.0,36.0,25.0,20.0,25,4357.0,square3,i,0.2126,2,V,9.0
V9,96.0,43.0,39.0,27.0,16.0,16,4373.0,square4,f,0.1856,3,V,9.0
V9,97.0,48.0,39.0,30.0,16.0,48,4421.0,square1,r,0.3737,0,V,9.0
V9,98.0,49.0,40.0,26.0,20.0,49,4470.0,square1,r,0.3311,0,V,9.0
V9,99.0,49.0,41.0,27.0,18.0,49,4519.0,square1,r,0.1297,0,V,9.0
V5,0.0,46.0,21.0,37.0,28.0,99999,0.0,invalid,,,-1,V,5.0
V5,1.0,43.0,27.0,36.0,31.0,27,27.0,square2,r,0.0545,1,V,5.0
V5,2.0,50.0,18.0,43.0,32.0,50,77.0,square1,i,0.1983,0,V,5.0
V5,3.0,53.0,23.0,36.0,34.0,36,113.0,square3,f,0.2796,2,V,5.0
V5,4.0,52.0,19.0,38.0,34.0,34,147.0,square4,j,0.2838,3,V,5.0
V5,5.0,50.0,22.0,41.0,29.0,50,197.0,square1,i,0.1397,0,V,5.0
V5,6.0,52.0,19.0,40.0,33.0,52,249.0,square1,i,0.0689,0,V,5.0
V5,7.0,48.0,24.0,36.0,27.0,48,297.0,square1,i,0.0519,0,V,5.0
V5,8.0,50.0,24.0,35.0,33.0,50,347.0,square1,i,0.7633,0,V,5.0
V5,9.0,48.0,25.0,39.0,34.0,48,395.0,square1,i,0.2486,0,V,5.0
V5,10.0,52.0,19.0,32.0,34.0,52,447.0,square1,i,0.4913,0,V,5.0
V5,11.0,48.0,22.0,32.0,32.0,48,495.0,square1,i,0.0416,0,V,5.0
V5,12.0,47.0,17.0,43.0,29.0,47,542.0,square1,i,0.4774,0,V,5.0
V5,13.0,46.0,21.0,42.0,29.0,46,588.0,square1,i,0.1156,0,V,5.0
V5,14.0,47.0,28.0,42.0,28.0,47,635.0,square1,i,0.0268,0,V,5.0
V5,15.0,50.0,29.0,38.0,36.0,50,685.0,square1,i,0.3738,0,V,5.0
V5,16.0,49.0,24.0,36.0,34.0,24,709.0,square2,r,0.0009,1,V,5.0
V5,17.0,50.0,20.0,38.0,35.0,38,747.0,square3,f,0.0931,2,V,5.0
V5,18.0,49.0,22.0,46.0,29.0,29,776.0,square4,j,0.1586,3,V,5.0
V5,19.0,46.0,23.0,40.0,31.0,46,822.0,square1,i,0.16,0,V,5.0
V5,20.0,51.0,22.0,41.0,28.0,51,873.0,square1,i,0.1114,0,V,5.0
V5,21.0,51.0,26.0,36.0,31.0,51,924.0,square1,i,0.1214,0,V,5.0
V5,22.0,47.0,18.0,41.0,28.0,47,971.0,square1,i,0.2081,0,V,5.0
V5,23.0,52.0,20.0,36.0,29.0,52,1023.0,square1,i,0.1086,0,V,5.0
V5,24.0,51.0,21.0,41.0,34.0,51,1074.0,square1,i,0.1828,0,V,5.0
V5,25.0,50.0,20.0,41.0,27.0,50,1124.0,square1,i,0.0017,0,V,5.0
V5,26.0,49.0,29.0,37.0,28.0,49,1173.0,square1,i,0.0014,0,V,5.0
V5,27.0,10.0,13.0,42.0,32.0,10,1183.0,square1,i,0.256,0,V,5.0
V5,28.0,9.0,19.0,40.0,27.0,9,1192.0,square1,i,0.1148,0,V,5.0
V5,29.0,17.0,17.0,38.0,29.0,17,1209.0,square1,i,0.2885,0,V,5.0
V5,30.0,8.0,18.0,36.0,29.0,18,1227.0,square2,r,0.1513,1,V,5.0
V5,31.0,16.0,24.0,34.0,29.0,34,1261.0,square3,f,0.2206,2,V,5.0
V5,32.0,9.0,17.0,35.0,31.0,31,1292.0,square4,j,0.0391,3,V,5.0
V5,33.0,11.0,19.0,36.0,28.0,36,1328.0,square3,f,0.3828,2,V,5.0
V5,34.0,10.0,19.0,38.0,28.0,10,1338.0,square1,i,0.0138,0,V,5.0
V5,35.0,5.0,23.0,40.0,34.0,40,1378.0,square3,f,0.0354,2,V,5.0
V5,36.0,17.0,20.0,36.0,31.0,36,1414.0,square3,f,0.1685,2,V,5.0
V5,37.0,12.0,13.0,36.0,30.0,36,1450.0,square3,f,0.0016,2,V,5.0
V5,38.0,14.0,24.0,35.0,27.0,35,1485.0,square3,f,0.0811,2,V,5.0
V5,39.0,13.0,20.0,39.0,32.0,32,1517.0,square4,j,0.2276,3,V,5.0
V5,40.0,9.0,15.0,37.0,24.0,15,1532.0,square2,r,0.1031,1,V,5.0
V5,41.0,9.0,14.0,38.0,31.0,9,1541.0,square1,i,0.1443,0,V,5.0
V5,42.0,14.0,17.0,43.0,31.0,31,1572.0,square4,j,0.292,3,V,5.0
V5,43.0,10.0,18.0,39.0,23.0,23,1595.0,square4,j,0.0118,3,V,5.0
V5,44.0,10.0,20.0,33.0,32.0,33,1628.0,square3,f,0.1767,2,V,5.0
V5,45.0,16.0,17.0,37.0,29.0,37,1665.0,square3,f,0.001,2,V,5.0
V5,46.0,9.0,22.0,37.0,25.0,37,1702.0,square3,f,0.0012,2,V,5.0
V5,47.0,10.0,22.0,35.0,26.0,35,1737.0,square3,f,0.108,2,V,5.0
V5,48.0,11.0,16.0,39.0,23.0,39,1776.0,square3,f,0.0277,2,V,5.0
V5,49.0,13.0,16.0,33.0,27.0,33,1809.0,square3,f,0.0012,2,V,5.0
V5,50.0,12.0,16.0,39.0,24.0,39,1848.0,square3,f,0.2086,2,V,5.0
V5,51.0,10.0,21.0,43.0,28.0,10,1858.0,square1,i,0.1105,0,V,5.0
V5,52.0,8.0,15.0,36.0,28.0,15,1873.0,square2,r,0.0316,1,V,5.0
V5,53.0,38.0,20.0,31.0,54.0,54,1927.0,square4,j,0.1256,3,V,5.0
V5,54.0,39.0,20.0,35.0,51.0,51,1978.0,square4,j,0.1582,3,V,5.0
V5,55.0,41.0,21.0,27.0,50.0,50,2028.0,square4,j,0.0309,3,V,5.0
V5,56.0,39.0,23.0,28.0,49.0,49,2077.0,square4,j,0.0507,3,V,5.0
V5,57.0,36.0,28.0,29.0,59.0,59,2136.0,square4,j,0.0707,3,V,5.0
V5,58.0,38.0,22.0,28.0,49.0,49,2185.0,square4,j,0.0156,3,V,5.0
V5,59.0,44.0,23.0,30.0,51.0,51,2236.0,square4,j,0.0724,3,V,5.0
V5,60.0,43.0,21.0,31.0,48.0,48,2284.0,square4,j,0.0949,3,V,5.0
V5,61.0,39.0,24.0,35.0,50.0,50,2334.0,square4,j,0.0441,3,V,5.0
V5,62.0,38.0,25.0,31.0,52.0,52,2386.0,square4,j,0.1328,3,V,5.0
V5,63.0,41.0,14.0,31.0,52.0,52,2438.0,square4,j,0.1109,3,V,5.0
V5,64.0,43.0,23.0,30.0,51.0,51,2489.0,square4,j,0.0947,3,V,5.0
V5,65.0,41.0,23.0,35.0,52.0,52,2541.0,square4,j,0.1429,3,V,5.0
V5,66.0,41.0,17.0,33.0,47.0,47,2588.0,square4,j,0.1774,3,V,5.0
V5,67.0,44.0,23.0,32.0,49.0,49,2637.0,square4,j,0.1552,3,V,5.0
V5,68.0,44.0,24.0,31.0,44.0,31,2668.0,square3,f,0.0013,2,V,5.0
V5,69.0,43.0,28.0,27.0,48.0,28,2696.0,square2,r,0.1185,1,V,5.0
V5,70.0,38.0,22.0,26.0,50.0,38,2734.0,square1,i,0.1625,0,V,5.0
V5,71.0,41.0,29.0,26.0,53.0,53,2787.0,square4,j,0.0317,3,V,5.0
V5,72.0,40.0,20.0,28.0,51.0,51,2838.0,square4,j,0.0177,3,V,5.0
V5,73.0,59.0,44.0,51.0,35.0,35,2873.0,square4,j,0.0804,3,V,5.0
V5,74.0,60.0,38.0,55.0,43.0,43,2916.0,square4,j,0.1313,3,V,5.0
V5,75.0,63.0,45.0,50.0,37.0,37,2953.0,square4,j,0.007,3,V,5.0
V5,76.0,62.0,42.0,50.0,37.0,37,2990.0,square4,j,0.0225,3,V,5.0
V5,77.0,57.0,37.0,52.0,35.0,35,3025.0,square4,j,0.0411,3,V,5.0
V5,78.0,66.0,45.0,54.0,37.0,54,3079.0,square3,f,0.0394,2,V,5.0
V5,79.0,64.0,37.0,48.0,35.0,48,3127.0,square3,f,0.141,2,V,5.0
V5,80.0,63.0,40.0,56.0,38.0,56,3183.0,square3,f,0.1752,2,V,5.0
V5,81.0,62.0,41.0,54.0,32.0,54,3237.0,square3,f,0.0084,2,V,5.0
V5,82.0,58.0,41.0,59.0,39.0,59,3296.0,square3,f,0.0889,2,V,5.0
V5,83.0,66.0,46.0,54.0,35.0,54,3350.0,square3,f,0.1569,2,V,5.0
V5,84.0,67.0,44.0,52.0,33.0,52,3402.0,square3,f,0.1513,2,V,5.0
V5,85.0,67.0,45.0,46.0,36.0,46,3448.0,square3,f,0.1216,2,V,5.0
V5,86.0,65.0,44.0,51.0,38.0,51,3499.0,square3,f,0.1829,2,V,5.0
V5,87.0,64.0,49.0,48.0,35.0,48,3547.0,square3,f,0.2053,2,V,5.0
V5,88.0,68.0,47.0,56.0,36.0,56,3603.0,square3,f,0.1128,2,V,5.0
V5,89.0,60.0,42.0,57.0,32.0,57,3660.0,square3,f,0.0922,2,V,5.0
V5,90.0,59.0,43.0,53.0,34.0,59,3719.0,square1,i,0.159,0,V,5.0
V5,91.0,64.0,43.0,51.0,34.0,43,3762.0,square2,r,0.098,1,V,5.0
V5,92.0,65.0,41.0,57.0,38.0,38,3800.0,square4,j,0.0785,3,V,5.0
V5,93.0,59.0,48.0,54.0,40.0,59,3859.0,square1,i,0.0015,0,V,5.0
V5,94.0,66.0,44.0,53.0,43.0,66,3925.0,square1,i,0.1211,0,V,5.0
V5,95.0,63.0,43.0,50.0,40.0,63,3988.0,square1,i,0.1784,0,V,5.0
V5,96.0,62.0,44.0,50.0,33.0,62,4050.0,square1,i,0.0097,0,V,5.0
V5,97.0,64.0,49.0,55.0,37.0,64,4114.0,square1,i,0.0342,0,V,5.0
V5,98.0,65.0,44.0,53.0,36.0,65,4179.0,square1,i,0.0019,0,V,5.0
V5,99.0,65.0,42.0,55.0,35.0,65,4244.0,square1,i,0.1115,0,V,5.0
V10,0.0,28.0,21.0,37.0,46.0,46,46.0,square4,f,1.2727,3,V,10.0
V10,1.0,26.0,19.0,41.0,49.0,41,87.0,square3,i,0.023,2,V,10.0
V10,2.0,29.0,20.0,43.0,48.0,20,107.0,square2,j,0.1756,1,V,10.0
V10,3.0,27.0,27.0,37.0,44.0,27,134.0,square1,r,0.0424,0,V,10.0
V10,4.0,28.0,16.0,36.0,47.0,47,181.0,square4,f,0.0087,3,V,10.0
V10,5.0,33.0,25.0,42.0,54.0,54,235.0,square4,f,0.1087,3,V,10.0
V10,6.0,28.0,19.0,35.0,45.0,45,280.0,square4,f,0.0426,3,V,10.0
V10,7.0,30.0,24.0,35.0,49.0,49,329.0,square4,f,0.0015,3,V,10.0
V10,8.0,37.0,29.0,41.0,47.0,47,376.0,square4,f,0.0249,3,V,10.0
V10,9.0,28.0,21.0,41.0,48.0,48,424.0,square4,f,0.0713,3,V,10.0
V10,10.0,27.0,22.0,39.0,42.0,42,466.0,square4,f,0.0017,3,V,10.0
V10,11.0,32.0,16.0,41.0,48.0,41,507.0,square3,i,0.0367,2,V,10.0
V10,12.0,34.0,15.0,33.0,49.0,15,522.0,square2,j,0.1473,1,V,10.0
V10,13.0,36.0,19.0,41.0,45.0,36,558.0,square1,r,0.1789,0,V,10.0
V10,14.0,28.0,23.0,35.0,53.0,53,611.0,square4,f,0.1485,3,V,10.0
V10,15.0,26.0,28.0,40.0,50.0,50,661.0,square4,f,0.1507,3,V,10.0
V10,16.0,30.0,25.0,42.0,47.0,47,708.0,square4,f,0.0985,3,V,10.0
V10,17.0,31.0,19.0,38.0,50.0,50,758.0,square4,f,0.0723,3,V,10.0
V10,18.0,34.0,21.0,35.0,48.0,48,806.0,square4,f,0.1182,3,V,10.0
V10,19.0,31.0,24.0,39.0,46.0,46,852.0,square4,f,0.0013,3,V,10.0
V10,20.0,28.0,22.0,42.0,47.0,47,899.0,square4,f,0.173,3,V,10.0
V10,21.0,24.0,20.0,41.0,47.0,41,940.0,square3,i,0.0479,2,V,10.0
V10,22.0,32.0,22.0,34.0,44.0,32,972.0,square1,r,0.0638,0,V,10.0
V10,23.0,29.0,23.0,37.0,47.0,23,995.0,square2,j,0.0793,1,V,10.0
V10,24.0,25.0,25.0,38.0,46.0,46,1041.0,square4,f,0.145,3,V,10.0
V10,25.0,30.0,24.0,41.0,45.0,45,1086.0,square4,f,0.1726,3,V,10.0
V10,26.0,32.0,17.0,38.0,49.0,49,1135.0,square4,f,0.1307,3,V,10.0
V10,27.0,34.0,21.0,38.0,47.0,47,1182.0,square4,f,0.1958,3,V,10.0
V10,28.0,29.0,21.0,37.0,45.0,45,1227.0,square4,f,0.1783,3,V,10.0
V10,29.0,30.0,20.0,31.0,47.0,47,1274.0,square4,f,0.0787,3,V,10.0
V10,30.0,28.0,21.0,35.0,44.0,44,1318.0,square4,f,0.0556,3,V,10.0
V10,31.0,36.0,25.0,14.0,8.0,8,1326.0,square4,f,0.2136,3,V,10.0
V10,32.0,38.0,27.0,19.0,11.0,19,1345.0,square3,i,0.0989,2,V,10.0
V10,33.0,39.0,21.0,20.0,13.0,21,1366.0,square2,j,0.5347,1,V,10.0
V10,34.0,34.0,24.0,20.0,10.0,34,1400.0,square1,r,0.0741,0,V,10.0
V10,35.0,44.0,29.0,17.0,11.0,44,1444.0,square1,r,0.0232,0,V,10.0
V10,36.0,33.0,30.0,17.0,9.0,33,1477.0,square1,r,0.0593,0,V,10.0
V10,37.0,31.0,27.0,12.0,6.0,31,1508.0,square1,r,0.1087,0,V,10.0
V10,38.0,34.0,29.0,15.0,10.0,34,1542.0,square1,r,0.1925,0,V,10.0
V10,39.0,35.0,21.0,19.0,5.0,35,1577.0,square1,r,0.1914,0,V,10.0
V10,40.0,32.0,26.0,18.0,6.0,18,1595.0,square3,i,0.0239,2,V,10.0
V10,41.0,34.0,32.0,13.0,9.0,32,1627.0,square2,j,0.5089,1,V,10.0
V10,42.0,35.0,30.0,16.0,8.0,8,1635.0,square4,f,0.4431,3,V,10.0
V10,43.0,38.0,32.0,16.0,8.0,32,1667.0,square2,j,0.1628,1,V,10.0
V10,44.0,34.0,20.0,18.0,3.0,20,1687.0,square2,j,0.0966,1,V,10.0
V10,45.0,38.0,22.0,23.0,9.0,22,1709.0,square2,j,0.1224,1,V,10.0
V10,46.0,36.0,28.0,16.0,10.0,36,1745.0,square1,r,0.1295,0,V,10.0
V10,47.0,36.0,27.0,13.0,8.0,36,1781.0,square1,r,0.1557,0,V,10.0
V10,48.0,35.0,27.0,14.0,12.0,35,1816.0,square1,r,0.0916,0,V,10.0
V10,49.0,33.0,28.0,16.0,10.0,33,1849.0,square1,r,0.1286,0,V,10.0
V10,50.0,31.0,29.0,19.0,8.0,31,1880.0,square1,r,0.1571,0,V,10.0
V10,51.0,32.0,21.0,20.0,12.0,32,1912.0,square1,r,0.1262,0,V,10.0
V10,52.0,29.0,25.0,21.0,10.0,29,1941.0,square1,r,0.1599,0,V,10.0
V10,53.0,39.0,29.0,23.0,2.0,23,1964.0,square3,i,0.0917,2,V,10.0
V10,54.0,33.0,28.0,19.0,7.0,7,1971.0,square4,f,0.0261,3,V,10.0
V10,55.0,34.0,24.0,15.0,8.0,24,1995.0,square2,j,0.2255,1,V,10.0
V10,56.0,35.0,20.0,21.0,9.0,35,2030.0,square1,r,0.5312,0,V,10.0
V10,57.0,33.0,27.0,19.0,7.0,33,2063.0,square1,r,0.1322,0,V,10.0
V10,58.0,38.0,24.0,16.0,7.0,38,2101.0,square1,r,0.1827,0,V,10.0
V10,59.0,34.0,29.0,15.0,5.0,34,2135.0,square1,r,0.1439,0,V,10.0
V10,60.0,34.0,22.0,19.0,9.0,34,2169.0,square1,r,0.1779,0,V,10.0
V10,61.0,39.0,31.0,20.0,10.0,39,2208.0,square1,r,0.0016,0,V,10.0
V10,62.0,35.0,24.0,18.0,6.0,35,2243.0,square1,r,0.1802,0,V,10.0
V10,63.0,35.0,26.0,18.0,9.0,18,2261.0,square3,i,0.002,2,V,10.0
V10,64.0,31.0,55.0,23.0,23.0,55,2316.0,square2,j,0.0852,1,V,10.0
V10,65.0,35.0,50.0,22.0,27.0,50,2366.0,square2,j,0.0882,1,V,10.0
V10,66.0,35.0,53.0,25.0,29.0,29,2395.0,square4,f,0.2819,3,V,10.0
V10,67.0,38.0,44.0,17.0,29.0,44,2439.0,square2,j,0.1657,1,V,10.0
V10,68.0,36.0,48.0,22.0,27.0,48,2487.0,square2,j,0.1232,1,V,10.0
V10,69.0,41.0,53.0,17.0,28.0,53,2540.0,square2,j,0.0018,1,V,10.0
V10,70.0,40.0,48.0,23.0,28.0,48,2588.0,square2,j,0.0025,1,V,10.0
V10,71.0,39.0,43.0,24.0,20.0,43,2631.0,square2,j,0.1569,1,V,10.0
V10,72.0,36.0,49.0,19.0,25.0,49,2680.0,square2,j,0.0013,1,V,10.0
V10,73.0,39.0,49.0,23.0,32.0,49,2729.0,square2,j,0.0815,1,V,10.0
V10,74.0,36.0,44.0,17.0,29.0,44,2773.0,square2,j,0.0819,1,V,10.0
V10,75.0,37.0,46.0,20.0,30.0,46,2819.0,square2,j,0.0686,1,V,10.0
V10,76.0,38.0,47.0,23.0,30.0,47,2866.0,square2,j,0.0803,1,V,10.0
V10,77.0,36.0,49.0,22.0,32.0,36,2902.0,square1,r,0.0292,0,V,10.0
V10,78.0,41.0,44.0,19.0,27.0,19,2921.0,square3,i,0.0546,2,V,10.0
V10,79.0,41.0,48.0,22.0,27.0,27,2948.0,square4,f,0.1551,3,V,10.0
V10,80.0,34.0,44.0,26.0,29.0,44,2992.0,square2,j,0.083,1,V,10.0
V10,81.0,38.0,47.0,18.0,29.0,47,3039.0,square2,j,0.0121,1,V,10.0
V10,82.0,43.0,43.0,23.0,28.0,43,3082.0,square2,j,0.0437,1,V,10.0
V10,83.0,34.0,51.0,23.0,26.0,51,3133.0,square2,j,0.0183,1,V,10.0
V10,84.0,36.0,46.0,18.0,25.0,46,3179.0,square2,j,0.0276,1,V,10.0
V10,85.0,39.0,46.0,25.0,26.0,46,3225.0,square2,j,0.0421,1,V,10.0
V10,86.0,39.0,50.0,27.0,27.0,50,3275.0,square2,j,0.1228,1,V,10.0
V10,87.0,38.0,46.0,20.0,30.0,46,3321.0,square2,j,0.1144,1,V,10.0
V10,88.0,37.0,49.0,22.0,28.0,49,3370.0,square2,j,0.1612,1,V,10.0
V10,89.0,34.0,51.0,25.0,26.0,51,3421.0,square2,j,0.1578,1,V,10.0
V10,90.0,41.0,49.0,22.0,29.0,49,3470.0,square2,j,0.1492,1,V,10.0
V10,91.0,37.0,45.0,26.0,32.0,45,3515.0,square2,j,0.0691,1,V,10.0
V10,92.0,42.0,42.0,27.0,28.0,42,3557.0,square2,j,0.1373,1,V,10.0
V10,93.0,41.0,48.0,19.0,36.0,41,3598.0,square1,r,0.0619,0,V,10.0
V10,94.0,43.0,49.0,23.0,31.0,23,3621.0,square3,i,0.0545,2,V,10.0
V10,95.0,39.0,46.0,18.0,27.0,27,3648.0,square4,f,0.1739,3,V,10.0
V10,96.0,37.0,48.0,24.0,27.0,48,3696.0,square2,j,0.1634,1,V,10.0
V10,97.0,42.0,50.0,23.0,31.0,50,3746.0,square2,j,0.0782,1,V,10.0
V10,98.0,33.0,47.0,25.0,32.0,47,3793.0,square2,j,0.0457,1,V,10.0
V10,99.0,39.0,48.0,23.0,32.0,48,3841.0,square2,j,0.015,1,V,10.0
S8,0.0,58.0,60.0,52.0,45.0,52,52.0,square3,r,1.3777,2,S,8.0
S8,1.0,55.0,57.0,56.0,52.0,57,109.0,square2,f,0.4672,1,S,8.0
S8,2.0,54.0,58.0,58.0,49.0,54,163.0,square1,j,0.2479,0,S,8.0
S8,3.0,55.0,62.0,52.0,53.0,53,216.0,square4,i,0.082,3,S,8.0
S8,4.0,55.0,60.0,49.0,51.0,60,276.0,square2,f,0.2854,1,S,8.0
S8,5.0,48.0,63.0,61.0,49.0,63,339.0,square2,f,0.0805,1,S,8.0
S8,6.0,58.0,63.0,59.0,55.0,63,402.0,square2,f,0.0496,1,S,8.0
S8,7.0,56.0,53.0,49.0,51.0,53,455.0,square2,f,0.1113,1,S,8.0
S8,8.0,61.0,63.0,66.0,49.0,63,518.0,square2,f,0.0208,1,S,8.0
S8,9.0,60.0,59.0,53.0,47.0,47,565.0,square4,i,0.1167,3,S,8.0
S8,10.0,55.0,63.0,52.0,55.0,52,617.0,square3,r,0.3732,2,S,8.0
S8,11.0,62.0,60.0,54.0,50.0,62,679.0,square1,j,1.5222,0,S,8.0
S8,12.0,58.0,64.0,51.0,52.0,64,743.0,square2,f,0.357,1,S,8.0
S8,13.0,62.0,59.0,53.0,53.0,59,802.0,square2,f,0.0796,1,S,8.0
S8,14.0,51.0,62.0,61.0,54.0,51,853.0,square1,j,0.9618,0,S,8.0
S8,15.0,56.0,68.0,56.0,50.0,68,921.0,square2,f,0.1352,1,S,8.0
S8,16.0,58.0,64.0,56.0,50.0,64,985.0,square2,f,0.0357,1,S,8.0
S8,17.0,64.0,63.0,60.0,42.0,63,1048.0,square2,f,0.1101,1,S,8.0
S8,18.0,54.0,64.0,57.0,55.0,64,1112.0,square2,f,0.0368,1,S,8.0
S8,19.0,56.0,53.0,57.0,53.0,53,1165.0,square2,f,0.4705,1,S,8.0
S8,20.0,59.0,64.0,56.0,49.0,64,1229.0,square2,f,0.4294,1,S,8.0
S8,21.0,54.0,59.0,55.0,48.0,59,1288.0,square2,f,0.4935,1,S,8.0
S8,22.0,63.0,63.0,59.0,49.0,63,1351.0,square2,f,0.1288,1,S,8.0
S8,23.0,59.0,60.0,48.0,52.0,48,1399.0,square3,r,0.4216,2,S,8.0
S8,24.0,55.0,53.0,60.0,50.0,50,1449.0,square4,i,0.2302,3,S,8.0
S8,25.0,57.0,60.0,55.0,54.0,57,1506.0,square1,j,0.3865,0,S,8.0
S8,26.0,62.0,66.0,57.0,58.0,66,1572.0,square2,f,0.3492,1,S,8.0
S8,27.0,58.0,55.0,52.0,48.0,55,1627.0,square2,f,0.01,1,S,8.0
S8,28.0,53.0,59.0,53.0,55.0,59,1686.0,square2,f,0.0661,1,S,8.0
S8,29.0,60.0,58.0,57.0,53.0,58,1744.0,square2,f,0.0572,1,S,8.0
S8,30.0,57.0,67.0,52.0,56.0,67,1811.0,square2,f,0.0013,1,S,8.0
S8,31.0,60.0,58.0,52.0,50.0,58,1869.0,square2,f,0.1769,1,S,8.0
S8,32.0,54.0,61.0,56.0,57.0,61,1930.0,square2,f,0.0648,1,S,8.0
S8,33.0,66.0,64.0,63.0,52.0,64,1994.0,square2,f,0.1113,1,S,8.0
S8,34.0,54.0,65.0,66.0,56.0,65,2059.0,square2,f,0.0354,1,S,8.0
S8,35.0,54.0,62.0,61.0,48.0,62,2121.0,square2,f,0.0771,1,S,8.0
S8,36.0,53.0,63.0,54.0,55.0,63,2184.0,square2,f,0.1584,1,S,8.0
S8,37.0,64.0,58.0,57.0,51.0,58,2242.0,square2,f,0.1343,1,S,8.0
S8,38.0,68.0,65.0,59.0,57.0,65,2307.0,square2,f,0.0014,1,S,8.0
S8,39.0,64.0,65.0,51.0,55.0,65,2372.0,square2,f,0.1941,1,S,8.0
S8,40.0,63.0,61.0,57.0,47.0,61,2433.0,square2,f,0.2226,1,S,8.0
S8,41.0,65.0,58.0,55.0,49.0,58,2491.0,square2,f,0.1219,1,S,8.0
S8,42.0,52.0,60.0,51.0,56.0,56,2547.0,square4,i,0.0733,3,S,8.0
S8,43.0,63.0,57.0,48.0,50.0,48,2595.0,square3,r,0.5225,2,S,8.0
S8,44.0,59.0,63.0,53.0,53.0,59,2654.0,square1,j,0.1057,0,S,8.0
S8,45.0,62.0,62.0,60.0,53.0,62,2716.0,square2,f,0.1563,1,S,8.0
S8,46.0,56.0,62.0,57.0,60.0,62,2778.0,square2,f,0.1387,1,S,8.0
S8,47.0,60.0,63.0,58.0,56.0,60,2838.0,square1,j,0.3758,0,S,8.0
S8,48.0,59.0,63.0,49.0,53.0,63,2901.0,square2,f,0.1009,1,S,8.0
S8,49.0,67.0,67.0,59.0,55.0,67,2968.0,square2,f,0.1277,1,S,8.0
S7,0.0,68.0,73.0,62.0,57.0,57,57.0,square4,r,0.821,3,S,7.0
S7,1.0,74.0,67.0,66.0,59.0,74,131.0,square1,i,0.2315,0,S,7.0
S7,2.0,68.0,69.0,65.0,60.0,69,200.0,square2,j,1.517,1,S,7.0
S7,3.0,74.0,68.0,65.0,63.0,65,265.0,square3,f,0.1873,2,S,7.0
S7,4.0,68.0,74.0,67.0,63.0,68,333.0,square1,i,0.2044,0,S,7.0
S7,5.0,68.0,67.0,61.0,57.0,68,401.0,square1,i,0.1235,0,S,7.0
S7,6.0,72.0,64.0,65.0,51.0,72,473.0,square1,i,0.2251,0,S,7.0
S7,7.0,69.0,63.0,69.0,63.0,69,542.0,square1,i,0.0892,0,S,7.0
S7,8.0,71.0,68.0,63.0,54.0,71,613.0,square1,i,0.1216,0,S,7.0
S7,9.0,81.0,66.0,68.0,62.0,81,694.0,square1,i,0.152,0,S,7.0
S7,10.0,72.0,73.0,68.0,61.0,72,766.0,square1,i,0.1908,0,S,7.0
S7,11.0,72.0,72.0,62.0,58.0,72,838.0,square1,i,0.0013,0,S,7.0
S7,12.0,66.0,66.0,62.0,61.0,66,904.0,square1,i,0.0012,0,S,7.0
S7,13.0,73.0,75.0,75.0,68.0,73,977.0,square1,i,0.1597,0,S,7.0
S7,14.0,71.0,73.0,72.0,66.0,71,1048.0,square1,i,0.2258,0,S,7.0
S7,15.0,75.0,68.0,68.0,65.0,75,1123.0,square1,i,0.0011,0,S,7.0
S7,16.0,67.0,65.0,62.0,56.0,67,1190.0,square1,i,0.1262,0,S,7.0
S7,17.0,72.0,67.0,63.0,64.0,72,1262.0,square1,i,0.1734,0,S,7.0
S7,18.0,73.0,69.0,66.0,65.0,73,1335.0,square1,i,0.0016,0,S,7.0
S7,19.0,75.0,70.0,62.0,58.0,75,1410.0,square1,i,0.0679,0,S,7.0
S7,20.0,76.0,63.0,67.0,62.0,76,1486.0,square1,i,0.0407,0,S,7.0
S7,21.0,79.0,76.0,63.0,64.0,79,1565.0,square1,i,0.0312,0,S,7.0
S7,22.0,67.0,72.0,63.0,62.0,67,1632.0,square1,i,0.0101,0,S,7.0
S7,23.0,69.0,71.0,70.0,62.0,62,1694.0,square4,r,0.3368,3,S,7.0
S7,24.0,74.0,67.0,70.0,62.0,70,1764.0,square3,f,0.2143,2,S,7.0
S7,25.0,70.0,67.0,72.0,62.0,67,1831.0,square2,j,0.173,1,S,7.0
S7,26.0,72.0,62.0,74.0,65.0,72,1903.0,square1,i,0.2622,0,S,7.0
S7,27.0,69.0,70.0,68.0,62.0,69,1972.0,square1,i,0.0814,0,S,7.0
S7,28.0,65.0,66.0,60.0,62.0,60,2032.0,square3,f,0.2329,2,S,7.0
S7,29.0,70.0,64.0,60.0,68.0,70,2102.0,square1,i,0.0663,0,S,7.0
S7,30.0,69.0,69.0,64.0,57.0,69,2171.0,square1,i,0.1315,0,S,7.0
S7,31.0,77.0,67.0,65.0,60.0,77,2248.0,square1,i,0.4818,0,S,7.0
S7,32.0,67.0,75.0,65.0,58.0,67,2315.0,square1,i,0.112,0,S,7.0
S7,33.0,74.0,66.0,66.0,60.0,74,2389.0,square1,i,0.0473,0,S,7.0
S7,34.0,72.0,72.0,66.0,61.0,72,2461.0,square1,i,0.0122,0,S,7.0
S7,35.0,67.0,68.0,64.0,62.0,67,2528.0,square1,i,0.0319,0,S,7.0
S7,36.0,64.0,63.0,70.0,58.0,64,2592.0,square1,i,0.2034,0,S,7.0
S7,37.0,80.0,72.0,64.0,53.0,80,2672.0,square1,i,0.1897,0,S,7.0
S7,38.0,78.0,69.0,76.0,67.0,67,2739.0,square4,r,0.2968,3,S,7.0
S7,39.0,69.0,66.0,60.0,67.0,60,2799.0,square3,f,0.2002,2,S,7.0
S7,40.0,72.0,71.0,63.0,66.0,71,2870.0,square2,j,0.0798,1,S,7.0
S7,41.0,80.0,73.0,65.0,63.0,80,2950.0,square1,i,0.0015,0,S,7.0
S7,42.0,77.0,60.0,65.0,59.0,77,3027.0,square1,i,0.0013,0,S,7.0
S7,43.0,70.0,72.0,70.0,63.0,70,3097.0,square1,i,0.0406,0,S,7.0
S7,44.0,77.0,70.0,66.0,58.0,77,3174.0,square1,i,0.1661,0,S,7.0
S7,45.0,75.0,69.0,73.0,58.0,75,3249.0,square1,i,0.0015,0,S,7.0
S7,46.0,74.0,71.0,63.0,63.0,74,3323.0,square1,i,0.1041,0,S,7.0
S7,47.0,73.0,75.0,71.0,64.0,73,3396.0,square1,i,0.002,0,S,7.0
S7,48.0,78.0,79.0,64.0,58.0,78,3474.0,square1,i,0.146,0,S,7.0
S7,49.0,75.0,72.0,66.0,72.0,75,3549.0,square1,i,0.0782,0,S,7.0
S4,0.0,18.0,16.0,34.0,20.0,20,20.0,square4,f,1.2208,3,S,4.0
S4,1.0,33.0,26.0,26.0,23.0,33,53.0,square1,j,0.2397,0,S,4.0
S4,2.0,35.0,15.0,33.0,22.0,33,86.0,square3,i,0.0107,2,S,4.0
S4,3.0,28.0,19.0,27.0,27.0,19,105.0,square2,r,0.0591,1,S,4.0
S4,4.0,27.0,16.0,25.0,28.0,28,133.0,square4,f,0.6837,3,S,4.0
S4,5.0,23.0,22.0,31.0,24.0,23,156.0,square1,j,0.0209,0,S,4.0
S4,6.0,25.0,20.0,34.0,23.0,34,190.0,square3,i,0.0743,2,S,4.0
S4,7.0,21.0,22.0,30.0,21.0,30,220.0,square3,i,0.2969,2,S,4.0
S4,8.0,33.0,24.0,33.0,17.0,33,253.0,square3,i,0.1452,2,S,4.0
S4,9.0,24.0,18.0,31.0,28.0,24,277.0,square1,j,0.2542,0,S,4.0
S4,10.0,31.0,26.0,35.0,20.0,20,297.0,square4,f,0.1779,3,S,4.0
S4,11.0,25.0,15.0,31.0,25.0,15,312.0,square2,r,0.1015,1,S,4.0
S4,12.0,24.0,16.0,29.0,22.0,29,341.0,square3,i,0.1569,2,S,4.0
S4,13.0,28.0,23.0,25.0,17.0,25,366.0,square3,i,0.0879,2,S,4.0
S4,14.0,22.0,23.0,21.0,23.0,21,387.0,square3,i,0.1055,2,S,4.0
S4,15.0,25.0,19.0,28.0,25.0,28,415.0,square3,i,0.3092,2,S,4.0
S4,16.0,26.0,17.0,30.0,21.0,30,445.0,square3,i,0.742,2,S,4.0
S4,17.0,22.0,21.0,29.0,22.0,29,474.0,square3,i,0.275,2,S,4.0
S4,18.0,28.0,22.0,32.0,22.0,32,506.0,square3,i,0.0759,2,S,4.0
S4,19.0,26.0,19.0,31.0,26.0,31,537.0,square3,i,0.042,2,S,4.0
S4,20.0,28.0,18.0,28.0,25.0,28,565.0,square3,i,0.0246,2,S,4.0
S4,21.0,33.0,26.0,21.0,29.0,21,586.0,square3,i,0.0087,2,S,4.0
S4,22.0,31.0,19.0,29.0,20.0,29,615.0,square3,i,0.1068,2,S,4.0
S4,23.0,27.0,21.0,36.0,26.0,36,651.0,square3,i,0.0018,2,S,4.0
S4,24.0,28.0,15.0,32.0,21.0,32,683.0,square3,i,0.1588,2,S,4.0
S4,25.0,27.0,18.0,28.0,25.0,28,711.0,square3,i,0.0013,2,S,4.0
S4,26.0,26.0,20.0,27.0,14.0,27,738.0,square3,i,0.074,2,S,4.0
S4,27.0,28.0,19.0,36.0,18.0,36,774.0,square3,i,0.0949,2,S,4.0
S4,28.0,28.0,19.0,28.0,23.0,28,802.0,square1,j,0.0569,0,S,4.0
S4,29.0,25.0,22.0,29.0,23.0,22,824.0,square2,r,0.0971,1,S,4.0
S4,30.0,26.0,16.0,30.0,20.0,20,844.0,square4,f,0.1193,3,S,4.0
S4,31.0,23.0,25.0,26.0,30.0,26,870.0,square3,i,0.0017,2,S,4.0
S4,32.0,21.0,26.0,22.0,23.0,22,892.0,square3,i,0.1194,2,S,4.0
S4,33.0,25.0,22.0,24.0,17.0,25,917.0,square1,j,0.0634,0,S,4.0
S4,34.0,30.0,22.0,33.0,24.0,33,950.0,square3,i,1.2704,2,S,4.0
S4,35.0,23.0,21.0,35.0,26.0,35,985.0,square3,i,0.1082,2,S,4.0
S4,36.0,19.0,21.0,33.0,24.0,33,1018.0,square3,i,0.1401,2,S,4.0
S4,37.0,20.0,17.0,26.0,26.0,26,1044.0,square3,i,0.0021,2,S,4.0
S4,38.0,28.0,20.0,28.0,26.0,28,1072.0,square1,j,0.2389,0,S,4.0
S4,39.0,28.0,23.0,40.0,27.0,23,1095.0,square2,r,0.6251,1,S,4.0
S4,40.0,25.0,24.0,32.0,22.0,22,1117.0,square4,f,0.1246,3,S,4.0
S4,41.0,23.0,23.0,26.0,17.0,23,1140.0,square1,j,0.0095,0,S,4.0
S4,42.0,26.0,18.0,33.0,22.0,33,1173.0,square3,i,0.0906,2,S,4.0
S4,43.0,22.0,21.0,36.0,25.0,36,1209.0,square3,i,0.1245,2,S,4.0
S4,44.0,21.0,18.0,33.0,14.0,33,1242.0,square3,i,0.0902,2,S,4.0
S4,45.0,29.0,19.0,30.0,29.0,30,1272.0,square3,i,0.105,2,S,4.0
S4,46.0,21.0,16.0,22.0,23.0,22,1294.0,square3,i,0.1246,2,S,4.0
S4,47.0,22.0,18.0,28.0,22.0,28,1322.0,square3,i,0.1429,2,S,4.0
S4,48.0,33.0,21.0,32.0,26.0,32,1354.0,square3,i,0.2107,2,S,4.0
S4,49.0,23.0,17.0,20.0,21.0,20,1374.0,square3,i,0.1811,2,S,4.0
S1,0.0,72.0,58.0,70.0,66.0,72,72.0,square1,r,0.9925,0,S,1.0
S1,1.0,75.0,64.0,66.0,69.0,69,141.0,square4,i,0.2979,3,S,1.0
S1,2.0,75.0,62.0,62.0,79.0,62,203.0,square3,j,0.0013,2,S,1.0
S1,3.0,68.0,62.0,63.0,69.0,62,265.0,square2,f,0.0634,1,S,1.0
S1,4.0,82.0,63.0,64.0,73.0,82,347.0,square1,r,0.1446,0,S,1.0
S1,5.0,66.0,70.0,65.0,73.0,66,413.0,square1,r,0.0014,0,S,1.0
S1,6.0,73.0,65.0,62.0,65.0,73,486.0,square1,r,0.1895,0,S,1.0
S1,7.0,70.0,61.0,65.0,66.0,70,556.0,square1,r,0.141,0,S,1.0
S1,8.0,78.0,63.0,67.0,68.0,78,634.0,square1,r,0.2253,0,S,1.0
S1,9.0,74.0,67.0,66.0,68.0,74,708.0,square1,r,0.0103,0,S,1.0
S1,10.0,73.0,59.0,68.0,68.0,73,781.0,square1,r,0.041,0,S,1.0
S1,11.0,76.0,65.0,62.0,81.0,76,857.0,square1,r,0.0248,0,S,1.0
S1,12.0,77.0,66.0,69.0,63.0,77,934.0,square1,r,0.0103,0,S,1.0
S1,13.0,75.0,63.0,68.0,73.0,75,1009.0,square1,r,0.3411,0,S,1.0
S1,14.0,67.0,60.0,67.0,69.0,69,1078.0,square4,i,0.1434,3,S,1.0
S1,15.0,70.0,63.0,69.0,73.0,69,1147.0,square3,j,0.0012,2,S,1.0
S1,16.0,69.0,61.0,69.0,69.0,61,1208.0,square2,f,0.059,1,S,1.0
S1,17.0,73.0,68.0,67.0,73.0,73,1281.0,square1,r,0.1912,0,S,1.0
S1,18.0,70.0,58.0,73.0,66.0,70,1351.0,square1,r,0.0013,0,S,1.0
S1,19.0,75.0,58.0,62.0,68.0,75,1426.0,square1,r,0.225,0,S,1.0
S1,20.0,76.0,58.0,72.0,67.0,76,1502.0,square1,r,0.0421,0,S,1.0
S1,21.0,69.0,66.0,66.0,67.0,69,1571.0,square1,r,0.3075,0,S,1.0
S1,22.0,70.0,68.0,65.0,65.0,70,1641.0,square1,r,0.0246,0,S,1.0
S1,23.0,71.0,60.0,64.0,64.0,71,1712.0,square1,r,0.1254,0,S,1.0
S1,24.0,70.0,72.0,62.0,67.0,70,1782.0,square1,r,0.2103,0,S,1.0
S1,25.0,68.0,60.0,70.0,65.0,68,1850.0,square1,r,0.2301,0,S,1.0
S1,26.0,76.0,64.0,72.0,69.0,76,1926.0,square1,r,0.0809,0,S,1.0
S1,27.0,71.0,56.0,70.0,65.0,71,1997.0,square1,r,0.0944,0,S,1.0
S1,28.0,67.0,67.0,71.0,76.0,67,2064.0,square1,r,0.1026,0,S,1.0
S1,29.0,78.0,64.0,64.0,74.0,78,2142.0,square1,r,0.1275,0,S,1.0
S1,30.0,74.0,63.0,65.0,71.0,74,2216.0,square1,r,0.241,0,S,1.0
S1,31.0,78.0,58.0,69.0,69.0,78,2294.0,square1,r,0.0012,0,S,1.0
S1,32.0,71.0,67.0,68.0,60.0,71,2365.0,square1,r,0.0014,0,S,1.0
S1,33.0,68.0,63.0,65.0,73.0,73,2438.0,square4,i,0.0161,3,S,1.0
S1,34.0,71.0,62.0,74.0,73.0,74,2512.0,square3,j,0.1068,2,S,1.0
S1,35.0,75.0,59.0,67.0,77.0,59,2571.0,square2,f,0.2887,1,S,1.0
S1,36.0,77.0,60.0,66.0,67.0,77,2648.0,square1,r,0.2521,0,S,1.0
S1,37.0,69.0,60.0,69.0,75.0,75,2723.0,square4,i,0.01,3,S,1.0
S1,38.0,77.0,64.0,62.0,70.0,62,2785.0,square3,j,0.3333,2,S,1.0
S1,39.0,72.0,66.0,69.0,65.0,66,2851.0,square2,f,0.0319,1,S,1.0
S1,40.0,69.0,63.0,66.0,69.0,69,2920.0,square1,r,0.1109,0,S,1.0
S1,41.0,72.0,62.0,70.0,70.0,70,2990.0,square4,i,0.0749,3,S,1.0
S1,42.0,78.0,60.0,63.0,62.0,62,3052.0,square4,i,0.2728,3,S,1.0
S1,43.0,71.0,62.0,67.0,73.0,73,3125.0,square4,i,0.0313,3,S,1.0
S1,44.0,75.0,63.0,69.0,73.0,73,3198.0,square4,i,0.3632,3,S,1.0
S1,45.0,66.0,60.0,68.0,73.0,73,3271.0,square4,i,0.1826,3,S,1.0
S1,46.0,74.0,67.0,69.0,71.0,71,3342.0,square4,i,0.1183,3,S,1.0
S1,47.0,71.0,66.0,68.0,70.0,71,3413.0,square1,r,0.3407,0,S,1.0
S1,48.0,72.0,75.0,71.0,77.0,72,3485.0,square1,r,0.1905,0,S,1.0
S1,49.0,65.0,57.0,66.0,75.0,65,3550.0,square1,r,0.1074,0,S,1.0
S6,0.0,40.0,29.0,39.0,26.0,39,39.0,square3,r,0.8794,2,S,6.0
S6,1.0,34.0,40.0,31.0,25.0,40,79.0,square2,i,0.0886,1,S,6.0
S6,2.0,37.0,31.0,25.0,30.0,30,109.0,square4,j,0.3175,3,S,6.0
S6,3.0,39.0,37.0,30.0,27.0,39,148.0,square1,f,0.451,0,S,6.0
S6,4.0,42.0,40.0,28.0,32.0,40,188.0,square2,i,0.0353,1,S,6.0
S6,5.0,35.0,35.0,39.0,29.0,39,227.0,square3,r,0.0564,2,S,6.0
S6,6.0,48.0,30.0,37.0,33.0,33,260.0,square4,j,0.1892,3,S,6.0
S6,7.0,47.0,34.0,31.0,29.0,47,307.0,square1,f,0.083,0,S,6.0
S6,8.0,43.0,35.0,30.0,25.0,35,342.0,square2,i,0.2332,1,S,6.0
S6,9.0,36.0,38.0,35.0,35.0,35,377.0,square3,r,0.0015,2,S,6.0
S6,10.0,38.0,35.0,31.0,21.0,38,415.0,square1,f,0.0022,0,S,6.0
S6,11.0,30.0,36.0,31.0,20.0,20,435.0,square4,j,0.0397,3,S,6.0
S6,12.0,37.0,40.0,33.0,22.0,37,472.0,square1,f,0.1001,0,S,6.0
S6,13.0,32.0,41.0,35.0,29.0,32,504.0,square1,f,0.0615,0,S,6.0
S6,14.0,41.0,29.0,30.0,32.0,41,545.0,square1,f,0.0235,0,S,6.0
S6,15.0,43.0,37.0,31.0,27.0,43,588.0,square1,f,0.023,0,S,6.0
S6,16.0,34.0,34.0,35.0,31.0,34,622.0,square1,f,0.1552,0,S,6.0
S6,17.0,47.0,40.0,29.0,28.0,40,662.0,square2,i,0.119,1,S,6.0
S6,18.0,37.0,38.0,34.0,35.0,34,696.0,square3,r,0.0017,2,S,6.0
S6,19.0,36.0,39.0,31.0,26.0,26,722.0,square4,j,0.0469,3,S,6.0
S6,20.0,44.0,40.0,31.0,25.0,40,762.0,square2,i,0.1374,1,S,6.0
S6,21.0,39.0,41.0,35.0,24.0,41,803.0,square2,i,0.2402,1,S,6.0
S6,22.0,41.0,38.0,41.0,31.0,38,841.0,square2,i,0.1215,1,S,6.0
S6,23.0,37.0,31.0,30.0,32.0,31,872.0,square2,i,0.1214,1,S,6.0
S6,24.0,48.0,34.0,34.0,21.0,34,906.0,square2,i,0.0749,1,S,6.0
S6,25.0,42.0,45.0,26.0,29.0,45,951.0,square2,i,0.1571,1,S,6.0
S6,26.0,40.0,39.0,36.0,28.0,40,991.0,square1,f,0.1076,0,S,6.0
S6,27.0,42.0,33.0,29.0,29.0,42,1033.0,square1,f,0.1226,0,S,6.0
S6,28.0,41.0,30.0,29.0,29.0,41,1074.0,square1,f,0.1247,0,S,6.0
S6,29.0,42.0,40.0,32.0,27.0,42,1116.0,square1,f,0.1576,0,S,6.0
S6,30.0,42.0,36.0,30.0,26.0,42,1158.0,square1,f,0.1913,0,S,6.0
S6,31.0,42.0,34.0,35.0,29.0,34,1192.0,square2,i,0.0746,1,S,6.0
S6,32.0,35.0,36.0,31.0,23.0,36,1228.0,square2,i,0.4229,1,S,6.0
S6,33.0,35.0,31.0,35.0,30.0,30,1258.0,square4,j,0.1584,3,S,6.0
S6,34.0,40.0,38.0,31.0,27.0,31,1289.0,square3,r,0.09,2,S,6.0
S6,35.0,42.0,37.0,34.0,34.0,42,1331.0,square1,f,0.1913,0,S,6.0
S6,36.0,37.0,46.0,31.0,34.0,37,1368.0,square1,f,0.0423,0,S,6.0
S6,37.0,38.0,40.0,30.0,26.0,38,1406.0,square1,f,0.1089,0,S,6.0
S6,38.0,36.0,34.0,31.0,33.0,36,1442.0,square1,f,0.1919,0,S,6.0
S6,39.0,44.0,37.0,33.0,31.0,44,1486.0,square1,f,0.0584,0,S,6.0
S6,40.0,40.0,38.0,31.0,25.0,40,1526.0,square1,f,0.0012,0,S,6.0
S6,41.0,49.0,35.0,35.0,28.0,49,1575.0,square1,f,0.1914,0,S,6.0
S6,42.0,44.0,40.0,32.0,28.0,44,1619.0,square1,f,0.4244,0,S,6.0
S6,43.0,43.0,36.0,33.0,26.0,43,1662.0,square1,f,0.1143,0,S,6.0
S6,44.0,38.0,33.0,34.0,26.0,38,1700.0,square1,f,0.2185,0,S,6.0
S6,45.0,32.0,35.0,30.0,28.0,32,1732.0,square1,f,0.1254,0,S,6.0
S6,46.0,38.0,36.0,34.0,30.0,38,1770.0,square1,f,0.1217,0,S,6.0
S6,47.0,44.0,35.0,32.0,31.0,44,1814.0,square1,f,0.1063,0,S,6.0
S6,48.0,40.0,40.0,31.0,33.0,40,1854.0,square1,f,0.1482,0,S,6.0
S6,49.0,41.0,29.0,29.0,29.0,41,1895.0,square1,f,0.2304,0,S,6.0
S9,0.0,36.0,36.0,32.0,32.0,32,32.0,square3,f,1.0872,2,S,9.0
S9,1.0,40.0,29.0,36.0,24.0,24,56.0,square4,i,0.0017,3,S,9.0
S9,2.0,31.0,43.0,22.0,29.0,43,99.0,square2,r,0.097,1,S,9.0
S9,3.0,41.0,33.0,28.0,27.0,41,140.0,square1,j,0.0611,0,S,9.0
S9,4.0,34.0,29.0,32.0,31.0,29,169.0,square2,r,0.0014,1,S,9.0
S9,5.0,41.0,32.0,22.0,29.0,29,198.0,square4,i,0.0937,3,S,9.0
S9,6.0,44.0,30.0,21.0,28.0,44,242.0,square1,j,0.2977,0,S,9.0
S9,7.0,39.0,37.0,26.0,24.0,26,268.0,square3,f,0.172,2,S,9.0
S9,8.0,41.0,33.0,23.0,20.0,33,301.0,square2,r,0.1387,1,S,9.0
S9,9.0,30.0,35.0,24.0,27.0,27,328.0,square4,i,0.127,3,S,9.0
S9,10.0,41.0,29.0,23.0,28.0,41,369.0,square1,j,0.1413,0,S,9.0
S9,11.0,37.0,38.0,22.0,33.0,37,406.0,square1,j,0.1756,0,S,9.0
S9,12.0,35.0,31.0,27.0,32.0,35,441.0,square1,j,0.0259,0,S,9.0
S9,13.0,38.0,37.0,30.0,29.0,38,479.0,square1,j,0.2248,0,S,9.0
S9,14.0,36.0,38.0,30.0,37.0,36,515.0,square1,j,0.325,0,S,9.0
S9,15.0,40.0,29.0,27.0,24.0,40,555.0,square1,j,0.0079,0,S,9.0
S9,16.0,33.0,37.0,29.0,28.0,33,588.0,square1,j,0.1086,0,S,9.0
S9,17.0,41.0,32.0,36.0,31.0,41,629.0,square1,j,0.1427,0,S,9.0
S9,18.0,39.0,26.0,16.0,35.0,39,668.0,square1,j,0.2658,0,S,9.0
S9,19.0,35.0,30.0,23.0,27.0,35,703.0,square1,j,0.1802,0,S,9.0
S9,20.0,39.0,34.0,23.0,29.0,23,726.0,square3,f,0.2265,2,S,9.0
S9,21.0,35.0,37.0,28.0,31.0,37,763.0,square2,r,0.0022,1,S,9.0
S9,22.0,37.0,30.0,23.0,38.0,38,801.0,square4,i,0.1114,3,S,9.0
S9,23.0,37.0,34.0,27.0,34.0,37,838.0,square1,j,0.0289,0,S,9.0
S9,24.0,31.0,34.0,26.0,27.0,31,869.0,square1,j,0.1448,0,S,9.0
S9,25.0,38.0,40.0,29.0,24.0,38,907.0,square1,j,0.0013,0,S,9.0
S9,26.0,43.0,31.0,21.0,24.0,43,950.0,square1,j,0.1392,0,S,9.0
S9,27.0,30.0,31.0,23.0,28.0,30,980.0,square1,j,0.185,0,S,9.0
S9,28.0,44.0,32.0,31.0,32.0,44,1024.0,square1,j,0.0777,0,S,9.0
S9,29.0,36.0,38.0,22.0,22.0,36,1060.0,square1,j,0.1728,0,S,9.0
S9,30.0,41.0,30.0,26.0,29.0,41,1101.0,square1,j,0.0012,0,S,9.0
S9,31.0,39.0,37.0,30.0,32.0,39,1140.0,square1,j,0.0509,0,S,9.0
S9,32.0,35.0,39.0,28.0,31.0,35,1175.0,square1,j,0.0843,0,S,9.0
S9,33.0,37.0,39.0,29.0,32.0,37,1212.0,square1,j,0.0886,0,S,9.0
S9,34.0,46.0,33.0,21.0,25.0,46,1258.0,square1,j,0.0512,0,S,9.0
S9,35.0,38.0,33.0,28.0,28.0,38,1296.0,square1,j,0.0648,0,S,9.0
S9,36.0,40.0,37.0,21.0,32.0,40,1336.0,square1,j,0.0376,0,S,9.0
S9,37.0,38.0,43.0,23.0,37.0,38,1374.0,square1,j,0.199,0,S,9.0
S9,38.0,36.0,31.0,29.0,29.0,29,1403.0,square3,f,0.1226,2,S,9.0
S9,39.0,41.0,29.0,26.0,28.0,29,1432.0,square2,r,0.0844,1,S,9.0
S9,40.0,32.0,36.0,26.0,28.0,28,1460.0,square4,i,0.0015,3,S,9.0
S9,41.0,40.0,37.0,35.0,28.0,40,1500.0,square1,j,0.0854,0,S,9.0
S9,42.0,43.0,32.0,26.0,37.0,43,1543.0,square1,j,0.1886,0,S,9.0
S9,43.0,40.0,31.0,23.0,31.0,40,1583.0,square1,j,0.1633,0,S,9.0
S9,44.0,42.0,38.0,24.0,40.0,42,1625.0,square1,j,0.0664,0,S,9.0
S9,45.0,36.0,35.0,30.0,33.0,36,1661.0,square1,j,0.1203,0,S,9.0
S9,46.0,38.0,30.0,33.0,26.0,38,1699.0,square1,j,0.0959,0,S,9.0
S9,47.0,39.0,37.0,25.0,26.0,39,1738.0,square1,j,0.1624,0,S,9.0
S9,48.0,36.0,35.0,26.0,27.0,36,1774.0,square1,j,0.1906,0,S,9.0
S9,49.0,40.0,32.0,24.0,28.0,40,1814.0,square1,j,0.0466,0,S,9.0
