block,Trial,square1,square2,square3,square4,currPoints,totalPoints,square,choiceKey.keys,choiceKey.rt,armNum,blockType,blockNum
prac,0.0,100.0,0.0,0.0,0.0,0.0,0.0,square4,,,3,p,0.0
prac,1.0,100.0,0.0,0.0,0.0,0.0,0.0,square3,,,2,p,0.0
prac,2.0,100.0,0.0,0.0,0.0,0.0,0.0,square2,,,1,p,0.0
prac,3.0,100.0,0.0,0.0,0.0,100.0,100.0,square1,,,0,p,0.0
prac,4.0,100.0,0.0,0.0,0.0,0.0,100.0,square2,,,1,p,0.0
prac,5.0,100.0,0.0,0.0,0.0,100.0,200.0,square1,,,0,p,0.0
prac,6.0,100.0,0.0,0.0,0.0,100.0,300.0,square1,,,0,p,0.0
prac,7.0,100.0,0.0,0.0,0.0,100.0,400.0,square1,,,0,p,0.0
prac,8.0,100.0,0.0,0.0,0.0,100.0,500.0,square1,,,0,p,0.0
prac,9.0,100.0,0.0,0.0,0.0,100.0,600.0,square1,,,0,p,0.0
V12,0.0,47.0,30.0,38.0,55.0,30.0,30.0,square2,i,0.6641,1,V,12.0
V12,1.0,46.0,33.0,39.0,57.0,39.0,69.0,square3,r,0.0955,2,V,12.0
V12,2.0,51.0,29.0,42.0,52.0,52.0,121.0,square4,j,0.0643,3,V,12.0
V12,3.0,52.0,30.0,38.0,62.0,62.0,183.0,square4,j,0.2777,3,V,12.0
V12,4.0,48.0,30.0,39.0,62.0,62.0,245.0,square4,j,0.2151,3,V,12.0
V12,5.0,55.0,34.0,43.0,61.0,61.0,306.0,square4,j,0.1822,3,V,12.0
V12,6.0,45.0,35.0,42.0,56.0,42.0,348.0,square3,r,0.1588,2,V,12.0
V12,7.0,48.0,29.0,35.0,57.0,29.0,377.0,square2,i,0.0067,1,V,12.0
V12,8.0,46.0,33.0,38.0,59.0,46.0,423.0,square1,f,0.3491,0,V,12.0
V12,9.0,44.0,31.0,42.0,56.0,56.0,479.0,square4,j,0.0484,3,V,12.0
V12,10.0,48.0,34.0,45.0,55.0,55.0,534.0,square4,j,0.1389,3,V,12.0
V12,11.0,45.0,32.0,41.0,55.0,55.0,589.0,square4,j,0.0938,3,V,12.0
V12,12.0,52.0,26.0,42.0,57.0,57.0,646.0,square4,j,0.1645,3,V,12.0
V12,13.0,56.0,31.0,41.0,54.0,41.0,687.0,square3,r,0.1542,2,V,12.0
V12,14.0,44.0,34.0,40.0,64.0,34.0,721.0,square2,i,0.1875,1,V,12.0
V12,15.0,48.0,32.0,39.0,61.0,61.0,782.0,square4,j,0.0069,3,V,12.0
V12,16.0,49.0,33.0,37.0,58.0,58.0,840.0,square4,j,0.0333,3,V,12.0
V12,17.0,45.0,33.0,43.0,57.0,57.0,897.0,square4,j,0.1737,3,V,12.0
V12,18.0,45.0,28.0,40.0,58.0,58.0,955.0,square4,j,0.0337,3,V,12.0
V12,19.0,42.0,33.0,43.0,59.0,59.0,1014.0,square4,j,0.0191,3,V,12.0
V12,20.0,46.0,30.0,38.0,62.0,62.0,1076.0,square4,j,0.2915,3,V,12.0
V12,21.0,46.0,35.0,40.0,55.0,55.0,1131.0,square4,j,0.2683,3,V,12.0
V12,22.0,46.0,34.0,36.0,63.0,63.0,1194.0,square4,j,0.2056,3,V,12.0
V12,23.0,54.0,34.0,42.0,56.0,56.0,1250.0,square4,j,0.0968,3,V,12.0
V12,24.0,44.0,30.0,41.0,59.0,59.0,1309.0,square4,j,0.0971,3,V,12.0
V12,25.0,49.0,33.0,37.0,64.0,49.0,1358.0,square1,f,0.1564,0,V,12.0
V12,26.0,52.0,34.0,39.0,57.0,57.0,1415.0,square4,j,0.112,3,V,12.0
V12,27.0,50.0,26.0,37.0,55.0,26.0,1441.0,square2,i,0.1273,1,V,12.0
V12,28.0,41.0,29.0,46.0,21.0,21.0,1462.0,square4,j,0.0955,3,V,12.0
V12,29.0,41.0,28.0,51.0,20.0,51.0,1513.0,square3,r,0.2954,2,V,12.0
V12,30.0,32.0,31.0,46.0,22.0,32.0,1545.0,square1,f,0.1409,0,V,12.0
V12,31.0,38.0,28.0,45.0,22.0,28.0,1573.0,square2,i,0.1293,1,V,12.0
V12,32.0,35.0,27.0,44.0,16.0,16.0,1589.0,square4,j,0.0334,3,V,12.0
V12,33.0,39.0,29.0,49.0,21.0,49.0,1638.0,square3,r,0.1426,2,V,12.0
V12,34.0,39.0,28.0,49.0,15.0,49.0,1687.0,square3,r,0.1411,2,V,12.0
V12,35.0,36.0,29.0,50.0,17.0,36.0,1723.0,square1,f,0.1454,0,V,12.0
V12,36.0,41.0,28.0,48.0,12.0,28.0,1751.0,square2,i,0.12,1,V,12.0
V12,37.0,34.0,29.0,46.0,25.0,46.0,1797.0,square3,r,0.0355,2,V,12.0
V12,38.0,38.0,28.0,51.0,19.0,51.0,1848.0,square3,r,0.0853,2,V,12.0
V12,39.0,39.0,31.0,45.0,13.0,45.0,1893.0,square3,r,0.0346,2,V,12.0
V12,40.0,35.0,28.0,46.0,26.0,46.0,1939.0,square3,r,0.1263,2,V,12.0
V12,41.0,38.0,27.0,46.0,20.0,46.0,1985.0,square3,r,0.1154,2,V,12.0
V12,42.0,40.0,26.0,50.0,23.0,50.0,2035.0,square3,r,0.2592,2,V,12.0
V12,43.0,33.0,30.0,45.0,18.0,45.0,2080.0,square3,r,0.0955,2,V,12.0
V12,44.0,39.0,31.0,46.0,22.0,31.0,2111.0,square2,i,0.1409,1,V,12.0
V12,45.0,32.0,26.0,42.0,20.0,42.0,2153.0,square3,r,0.1598,2,V,12.0
V12,46.0,36.0,29.0,43.0,24.0,24.0,2177.0,square4,j,0.2123,3,V,12.0
V12,47.0,37.0,30.0,46.0,21.0,46.0,2223.0,square3,r,0.0526,2,V,12.0
V12,48.0,37.0,27.0,44.0,19.0,44.0,2267.0,square3,r,0.053,2,V,12.0
V12,49.0,36.0,33.0,55.0,16.0,55.0,2322.0,square3,r,0.2426,2,V,12.0
V12,50.0,45.0,28.0,44.0,18.0,44.0,2366.0,square3,r,0.0647,2,V,12.0
V12,51.0,35.0,32.0,49.0,19.0,49.0,2415.0,square3,r,0.1294,2,V,12.0
V12,52.0,36.0,56.0,31.0,52.0,31.0,2446.0,square3,r,0.0505,2,V,12.0
V12,53.0,36.0,57.0,29.0,45.0,36.0,2482.0,square1,f,0.2168,0,V,12.0
V12,54.0,38.0,61.0,28.0,51.0,61.0,2543.0,square2,i,0.1378,1,V,12.0
V12,55.0,35.0,60.0,29.0,47.0,60.0,2603.0,square2,i,0.1092,1,V,12.0
V12,56.0,34.0,62.0,29.0,46.0,62.0,2665.0,square2,i,0.3398,1,V,12.0
V12,57.0,43.0,57.0,32.0,46.0,57.0,2722.0,square2,i,0.1216,1,V,12.0
V12,58.0,40.0,59.0,32.0,50.0,59.0,2781.0,square2,i,0.066,1,V,12.0
V12,59.0,41.0,62.0,33.0,48.0,62.0,2843.0,square2,i,0.2516,1,V,12.0
V12,60.0,36.0,61.0,32.0,49.0,61.0,2904.0,square2,i,0.0828,1,V,12.0
V12,61.0,39.0,56.0,32.0,44.0,56.0,2960.0,square2,i,0.0846,1,V,12.0
V12,62.0,39.0,57.0,30.0,46.0,57.0,3017.0,square2,i,0.1844,1,V,12.0
V12,63.0,42.0,53.0,29.0,46.0,53.0,3070.0,square2,i,0.0066,1,V,12.0
V12,64.0,35.0,57.0,32.0,50.0,50.0,3120.0,square4,j,0.1391,3,V,12.0
V12,65.0,44.0,58.0,32.0,49.0,49.0,3169.0,square4,j,0.1177,3,V,12.0
V12,66.0,44.0,56.0,29.0,52.0,56.0,3225.0,square2,i,0.0961,1,V,12.0
V12,67.0,41.0,60.0,30.0,49.0,60.0,3285.0,square2,i,0.1403,1,V,12.0
V12,68.0,42.0,58.0,32.0,45.0,58.0,3343.0,square2,i,0.0508,1,V,12.0
V12,69.0,36.0,60.0,33.0,50.0,60.0,3403.0,square2,i,0.3103,1,V,12.0
V12,70.0,36.0,57.0,27.0,46.0,57.0,3460.0,square2,i,0.0539,1,V,12.0
V12,71.0,41.0,59.0,32.0,48.0,32.0,3492.0,square3,r,0.0782,2,V,12.0
V12,72.0,34.0,59.0,31.0,49.0,49.0,3541.0,square4,j,0.125,3,V,12.0
V12,73.0,71.0,53.0,65.0,49.0,71.0,3612.0,square1,f,0.0194,0,V,12.0
V12,74.0,69.0,49.0,63.0,45.0,69.0,3681.0,square1,f,0.0489,0,V,12.0
V12,75.0,72.0,51.0,56.0,46.0,72.0,3753.0,square1,f,0.034,0,V,12.0
V12,76.0,72.0,48.0,58.0,43.0,72.0,3825.0,square1,f,0.1248,0,V,12.0
V12,77.0,74.0,57.0,59.0,44.0,74.0,3899.0,square1,f,0.2341,0,V,12.0
V12,78.0,69.0,55.0,63.0,50.0,69.0,3968.0,square1,f,0.2105,0,V,12.0
V12,79.0,73.0,53.0,58.0,43.0,73.0,4041.0,square1,f,0.1729,0,V,12.0
V12,80.0,71.0,47.0,65.0,40.0,71.0,4112.0,square1,f,0.1182,0,V,12.0
V12,81.0,66.0,49.0,57.0,40.0,49.0,4161.0,square2,i,0.0077,1,V,12.0
V12,82.0,71.0,53.0,57.0,48.0,71.0,4232.0,square1,f,0.1879,0,V,12.0
V12,83.0,70.0,50.0,56.0,49.0,70.0,4302.0,square1,f,0.1114,0,V,12.0
V12,84.0,69.0,45.0,64.0,43.0,69.0,4371.0,square1,f,0.0482,0,V,12.0
V12,85.0,64.0,48.0,54.0,42.0,64.0,4435.0,square1,f,0.0457,0,V,12.0
V12,86.0,71.0,49.0,63.0,44.0,71.0,4506.0,square1,f,0.1838,0,V,12.0
V12,87.0,72.0,52.0,55.0,42.0,72.0,4578.0,square1,f,0.1806,0,V,12.0
V12,88.0,64.0,48.0,59.0,44.0,64.0,4642.0,square1,f,0.0333,0,V,12.0
V12,89.0,69.0,48.0,62.0,45.0,69.0,4711.0,square1,f,0.1812,0,V,12.0
V12,90.0,68.0,56.0,60.0,42.0,42.0,4753.0,square4,j,0.2226,3,V,12.0
V12,91.0,69.0,52.0,62.0,45.0,69.0,4822.0,square1,f,0.0972,0,V,12.0
V12,92.0,65.0,50.0,64.0,47.0,65.0,4887.0,square1,f,0.1603,0,V,12.0
V12,93.0,68.0,51.0,62.0,43.0,68.0,4955.0,square1,f,0.1274,0,V,12.0
V12,94.0,68.0,52.0,60.0,38.0,52.0,5007.0,square2,i,0.2889,1,V,12.0
V12,95.0,71.0,52.0,58.0,47.0,58.0,5065.0,square3,r,0.0983,2,V,12.0
V12,96.0,66.0,49.0,59.0,44.0,66.0,5131.0,square1,f,0.0325,0,V,12.0
V12,97.0,74.0,47.0,54.0,47.0,74.0,5205.0,square1,f,0.0518,0,V,12.0
V12,98.0,68.0,43.0,64.0,41.0,68.0,5273.0,square1,f,0.13,0,V,12.0
V12,99.0,71.0,53.0,62.0,44.0,71.0,5344.0,square1,f,0.1894,0,V,12.0
V1,0.0,46.0,61.0,52.0,71.0,71.0,71.0,square4,i,0.6298,3,V,1.0
V1,1.0,45.0,63.0,54.0,78.0,78.0,149.0,square4,i,0.089,3,V,1.0
V1,2.0,51.0,58.0,59.0,77.0,51.0,200.0,square1,j,0.1463,0,V,1.0
V1,3.0,53.0,65.0,56.0,75.0,75.0,275.0,square4,i,0.0218,3,V,1.0
V1,4.0,49.0,68.0,53.0,72.0,68.0,343.0,square2,r,0.073,1,V,1.0
V1,5.0,47.0,70.0,59.0,76.0,59.0,402.0,square3,f,0.0695,2,V,1.0
V1,6.0,55.0,63.0,54.0,76.0,76.0,478.0,square4,i,0.0859,3,V,1.0
V1,7.0,47.0,67.0,55.0,74.0,74.0,552.0,square4,i,0.1011,3,V,1.0
V1,8.0,47.0,65.0,46.0,76.0,76.0,628.0,square4,i,0.1318,3,V,1.0
V1,9.0,46.0,68.0,59.0,78.0,78.0,706.0,square4,i,0.0114,3,V,1.0
V1,10.0,58.0,67.0,58.0,79.0,79.0,785.0,square4,i,0.0374,3,V,1.0
V1,11.0,44.0,61.0,54.0,72.0,72.0,857.0,square4,i,0.0573,3,V,1.0
V1,12.0,44.0,65.0,56.0,75.0,75.0,932.0,square4,i,0.072,3,V,1.0
V1,13.0,47.0,63.0,53.0,73.0,73.0,1005.0,square4,i,0.0081,3,V,1.0
V1,14.0,49.0,66.0,56.0,75.0,75.0,1080.0,square4,i,0.0209,3,V,1.0
V1,15.0,49.0,66.0,52.0,79.0,79.0,1159.0,square4,i,0.1554,3,V,1.0
V1,16.0,51.0,61.0,48.0,72.0,51.0,1210.0,square1,j,0.0408,0,V,1.0
V1,17.0,46.0,61.0,59.0,71.0,71.0,1281.0,square4,i,0.0866,3,V,1.0
V1,18.0,45.0,61.0,53.0,72.0,72.0,1353.0,square4,i,0.0518,3,V,1.0
V1,19.0,49.0,63.0,54.0,76.0,76.0,1429.0,square4,i,0.0238,3,V,1.0
V1,20.0,46.0,66.0,52.0,72.0,72.0,1501.0,square4,i,0.0742,3,V,1.0
V1,21.0,50.0,65.0,51.0,73.0,73.0,1574.0,square4,i,0.1182,3,V,1.0
V1,22.0,56.0,62.0,56.0,77.0,77.0,1651.0,square4,i,0.1391,3,V,1.0
V1,23.0,45.0,67.0,54.0,83.0,83.0,1734.0,square4,i,0.2327,3,V,1.0
V1,24.0,46.0,69.0,57.0,71.0,71.0,1805.0,square4,i,0.1558,3,V,1.0
V1,25.0,41.0,65.0,55.0,76.0,76.0,1881.0,square4,i,0.0528,3,V,1.0
V1,26.0,51.0,60.0,55.0,74.0,74.0,1955.0,square4,i,0.1329,3,V,1.0
V1,27.0,52.0,63.0,56.0,73.0,63.0,2018.0,square2,r,0.1545,1,V,1.0
V1,28.0,50.0,68.0,50.0,76.0,50.0,2068.0,square3,f,0.0839,2,V,1.0
V1,29.0,51.0,60.0,54.0,74.0,74.0,2142.0,square4,i,0.1461,3,V,1.0
V1,30.0,35.0,67.0,57.0,40.0,40.0,2182.0,square4,i,0.3294,3,V,1.0
V1,31.0,38.0,60.0,52.0,35.0,38.0,2220.0,square1,j,0.0533,0,V,1.0
V1,32.0,37.0,67.0,52.0,41.0,67.0,2287.0,square2,r,0.0084,1,V,1.0
V1,33.0,37.0,62.0,53.0,42.0,53.0,2340.0,square3,f,0.348,2,V,1.0
V1,34.0,35.0,58.0,54.0,43.0,58.0,2398.0,square2,r,0.0764,1,V,1.0
V1,35.0,40.0,60.0,50.0,44.0,60.0,2458.0,square2,r,0.0095,1,V,1.0
V1,36.0,39.0,66.0,50.0,39.0,66.0,2524.0,square2,r,0.2674,1,V,1.0
V1,37.0,32.0,59.0,54.0,38.0,59.0,2583.0,square2,r,0.0355,1,V,1.0
V1,38.0,32.0,64.0,50.0,39.0,64.0,2647.0,square2,r,0.0339,1,V,1.0
V1,39.0,37.0,60.0,45.0,40.0,60.0,2707.0,square2,r,0.2357,1,V,1.0
V1,40.0,35.0,61.0,54.0,43.0,61.0,2768.0,square2,r,0.0357,1,V,1.0
V1,41.0,33.0,62.0,49.0,42.0,62.0,2830.0,square2,r,0.0235,1,V,1.0
V1,42.0,31.0,70.0,52.0,42.0,70.0,2900.0,square2,r,0.4305,1,V,1.0
V1,43.0,37.0,59.0,48.0,41.0,59.0,2959.0,square2,r,0.2165,1,V,1.0
V1,44.0,39.0,63.0,53.0,44.0,44.0,3003.0,square4,i,0.0198,3,V,1.0
V1,45.0,37.0,62.0,48.0,41.0,37.0,3040.0,square1,j,0.0872,0,V,1.0
V1,46.0,34.0,65.0,52.0,39.0,52.0,3092.0,square3,f,0.0518,2,V,1.0
V1,47.0,42.0,59.0,52.0,43.0,52.0,3144.0,square3,f,0.0878,2,V,1.0
V1,48.0,39.0,62.0,50.0,38.0,50.0,3194.0,square3,f,0.0862,2,V,1.0
V1,49.0,33.0,63.0,49.0,40.0,49.0,3243.0,square3,f,0.1063,2,V,1.0
V1,50.0,38.0,66.0,54.0,37.0,66.0,3309.0,square2,r,0.0555,1,V,1.0
V1,51.0,33.0,66.0,50.0,37.0,66.0,3375.0,square2,r,0.5064,1,V,1.0
V1,52.0,41.0,65.0,55.0,44.0,65.0,3440.0,square2,r,0.3068,1,V,1.0
V1,53.0,75.0,50.0,46.0,60.0,50.0,3490.0,square2,r,0.2516,1,V,1.0
V1,54.0,74.0,53.0,45.0,61.0,53.0,3543.0,square2,r,0.2146,1,V,1.0
V1,55.0,74.0,54.0,43.0,65.0,65.0,3608.0,square4,i,0.0504,3,V,1.0
V1,56.0,73.0,54.0,44.0,56.0,56.0,3664.0,square4,i,0.1564,3,V,1.0
V1,57.0,67.0,58.0,52.0,63.0,63.0,3727.0,square4,i,0.3224,3,V,1.0
V1,58.0,72.0,51.0,43.0,62.0,62.0,3789.0,square4,i,0.0528,3,V,1.0
V1,59.0,68.0,47.0,49.0,56.0,56.0,3845.0,square4,i,0.2023,3,V,1.0
V1,60.0,72.0,55.0,46.0,65.0,55.0,3900.0,square2,r,0.5854,1,V,1.0
V1,61.0,76.0,50.0,46.0,62.0,46.0,3946.0,square3,f,0.2912,2,V,1.0
V1,62.0,77.0,58.0,46.0,66.0,77.0,4023.0,square1,j,0.0206,0,V,1.0
V1,63.0,72.0,53.0,48.0,66.0,72.0,4095.0,square1,j,0.0069,0,V,1.0
V1,64.0,70.0,49.0,49.0,60.0,70.0,4165.0,square1,j,0.1382,0,V,1.0
V1,65.0,68.0,49.0,46.0,66.0,68.0,4233.0,square1,j,0.0513,0,V,1.0
V1,66.0,77.0,52.0,41.0,64.0,77.0,4310.0,square1,j,0.0892,0,V,1.0
V1,67.0,74.0,56.0,42.0,69.0,74.0,4384.0,square1,j,0.2244,0,V,1.0
V1,68.0,77.0,50.0,46.0,68.0,77.0,4461.0,square1,j,0.1031,0,V,1.0
V1,69.0,76.0,48.0,45.0,63.0,76.0,4537.0,square1,j,0.0659,0,V,1.0
V1,70.0,71.0,53.0,50.0,65.0,71.0,4608.0,square1,j,0.074,0,V,1.0
V1,71.0,70.0,56.0,44.0,59.0,70.0,4678.0,square1,j,0.0873,0,V,1.0
V1,72.0,74.0,54.0,55.0,61.0,74.0,4752.0,square1,j,0.1033,0,V,1.0
V1,73.0,73.0,53.0,47.0,61.0,73.0,4825.0,square1,j,0.1834,0,V,1.0
V1,74.0,71.0,53.0,51.0,65.0,71.0,4896.0,square1,j,0.0239,0,V,1.0
V1,75.0,72.0,51.0,48.0,64.0,72.0,4968.0,square1,j,0.159,0,V,1.0
V1,76.0,72.0,53.0,49.0,62.0,72.0,5040.0,square1,j,0.222,0,V,1.0
V1,77.0,62.0,76.0,64.0,86.0,62.0,5102.0,square1,j,0.0885,0,V,1.0
V1,78.0,61.0,74.0,63.0,87.0,87.0,5189.0,square4,i,0.2378,3,V,1.0
V1,79.0,56.0,78.0,67.0,89.0,89.0,5278.0,square4,i,0.3269,3,V,1.0
V1,80.0,59.0,75.0,63.0,84.0,84.0,5362.0,square4,i,0.0539,3,V,1.0
V1,81.0,63.0,74.0,68.0,82.0,82.0,5444.0,square4,i,0.1489,3,V,1.0
V1,82.0,59.0,75.0,67.0,80.0,80.0,5524.0,square4,i,0.2293,3,V,1.0
V1,83.0,58.0,77.0,63.0,82.0,82.0,5606.0,square4,i,0.0346,3,V,1.0
V1,84.0,57.0,76.0,64.0,87.0,87.0,5693.0,square4,i,0.0079,3,V,1.0
V1,85.0,61.0,73.0,66.0,83.0,83.0,5776.0,square4,i,0.0882,3,V,1.0
V1,86.0,60.0,71.0,66.0,85.0,85.0,5861.0,square4,i,0.0071,3,V,1.0
V1,87.0,61.0,80.0,73.0,84.0,84.0,5945.0,square4,i,0.0574,3,V,1.0
V1,88.0,67.0,77.0,67.0,85.0,85.0,6030.0,square4,i,0.1615,3,V,1.0
V1,89.0,60.0,79.0,63.0,86.0,86.0,6116.0,square4,i,0.0212,3,V,1.0
V1,90.0,60.0,74.0,66.0,88.0,88.0,6204.0,square4,i,0.1762,3,V,1.0
V1,91.0,57.0,81.0,61.0,79.0,79.0,6283.0,square4,i,0.1789,3,V,1.0
V1,92.0,61.0,78.0,61.0,84.0,84.0,6367.0,square4,i,0.0074,3,V,1.0
V1,93.0,64.0,72.0,69.0,83.0,83.0,6450.0,square4,i,0.0087,3,V,1.0
V1,94.0,64.0,73.0,68.0,83.0,83.0,6533.0,square4,i,0.0225,3,V,1.0
V1,95.0,61.0,69.0,68.0,87.0,87.0,6620.0,square4,i,0.1785,3,V,1.0
V1,96.0,55.0,77.0,65.0,88.0,88.0,6708.0,square4,i,0.0088,3,V,1.0
V1,97.0,61.0,75.0,63.0,82.0,82.0,6790.0,square4,i,0.15,3,V,1.0
V1,98.0,59.0,71.0,66.0,82.0,82.0,6872.0,square4,i,0.1773,3,V,1.0
V1,99.0,61.0,69.0,67.0,84.0,84.0,6956.0,square4,i,0.5683,3,V,1.0
V5,0.0,46.0,21.0,37.0,28.0,46.0,46.0,square1,i,0.7071,0,V,5.0
V5,1.0,43.0,27.0,36.0,31.0,36.0,82.0,square3,r,0.0071,2,V,5.0
V5,2.0,50.0,18.0,43.0,32.0,18.0,100.0,square2,j,0.0211,1,V,5.0
V5,3.0,53.0,23.0,36.0,34.0,34.0,134.0,square4,f,0.1543,3,V,5.0
V5,4.0,52.0,19.0,38.0,34.0,52.0,186.0,square1,i,0.1539,0,V,5.0
V5,5.0,50.0,22.0,41.0,29.0,50.0,236.0,square1,i,0.118,0,V,5.0
V5,6.0,52.0,19.0,40.0,33.0,52.0,288.0,square1,i,0.124,0,V,5.0
V5,7.0,48.0,24.0,36.0,27.0,48.0,336.0,square1,i,0.0075,0,V,5.0
V5,8.0,50.0,24.0,35.0,33.0,50.0,386.0,square1,i,0.0945,0,V,5.0
V5,9.0,48.0,25.0,39.0,34.0,48.0,434.0,square1,i,0.0947,0,V,5.0
V5,10.0,52.0,19.0,32.0,34.0,52.0,486.0,square1,i,0.0534,0,V,5.0
V5,11.0,48.0,22.0,32.0,32.0,48.0,534.0,square1,i,0.0374,0,V,5.0
V5,12.0,47.0,17.0,43.0,29.0,43.0,577.0,square3,r,0.0544,2,V,5.0
V5,13.0,46.0,21.0,42.0,29.0,46.0,623.0,square1,i,0.0543,0,V,5.0
V5,14.0,47.0,28.0,42.0,28.0,28.0,651.0,square4,f,0.0092,3,V,5.0
V5,15.0,50.0,29.0,38.0,36.0,50.0,701.0,square1,i,0.0636,0,V,5.0
V5,16.0,49.0,24.0,36.0,34.0,49.0,750.0,square1,i,0.0814,0,V,5.0
V5,17.0,50.0,20.0,38.0,35.0,50.0,800.0,square1,i,0.0441,0,V,5.0
V5,18.0,49.0,22.0,46.0,29.0,49.0,849.0,square1,i,0.171,0,V,5.0
V5,19.0,46.0,23.0,40.0,31.0,46.0,895.0,square1,i,0.0075,0,V,5.0
V5,20.0,51.0,22.0,41.0,28.0,51.0,946.0,square1,i,0.0601,0,V,5.0
V5,21.0,51.0,26.0,36.0,31.0,51.0,997.0,square1,i,0.1101,0,V,5.0
V5,22.0,47.0,18.0,41.0,28.0,47.0,1044.0,square1,i,0.0422,0,V,5.0
V5,23.0,52.0,20.0,36.0,29.0,52.0,1096.0,square1,i,0.1221,0,V,5.0
V5,24.0,51.0,21.0,41.0,34.0,21.0,1117.0,square2,j,0.1003,1,V,5.0
V5,25.0,50.0,20.0,41.0,27.0,50.0,1167.0,square1,i,0.1629,0,V,5.0
V5,26.0,49.0,29.0,37.0,28.0,49.0,1216.0,square1,i,0.0074,0,V,5.0
V5,27.0,10.0,13.0,42.0,32.0,10.0,1226.0,square1,i,0.1797,0,V,5.0
V5,28.0,9.0,19.0,40.0,27.0,40.0,1266.0,square3,r,0.0728,2,V,5.0
V5,29.0,17.0,17.0,38.0,29.0,38.0,1304.0,square3,r,0.1963,2,V,5.0
V5,30.0,8.0,18.0,36.0,29.0,29.0,1333.0,square4,f,0.1102,3,V,5.0
V5,31.0,16.0,24.0,34.0,29.0,34.0,1367.0,square3,r,0.1315,2,V,5.0
V5,32.0,9.0,17.0,35.0,31.0,17.0,1384.0,square2,j,0.1494,1,V,5.0
V5,33.0,11.0,19.0,36.0,28.0,36.0,1420.0,square3,r,0.2105,2,V,5.0
V5,34.0,10.0,19.0,38.0,28.0,38.0,1458.0,square3,r,0.0799,2,V,5.0
V5,35.0,5.0,23.0,40.0,34.0,40.0,1498.0,square3,r,0.0521,2,V,5.0
V5,36.0,17.0,20.0,36.0,31.0,36.0,1534.0,square3,r,0.0445,2,V,5.0
V5,37.0,12.0,13.0,36.0,30.0,36.0,1570.0,square3,r,0.1147,2,V,5.0
V5,38.0,14.0,24.0,35.0,27.0,35.0,1605.0,square3,r,0.1255,2,V,5.0
V5,39.0,13.0,20.0,39.0,32.0,13.0,1618.0,square1,i,0.2614,0,V,5.0
V5,40.0,9.0,15.0,37.0,24.0,24.0,1642.0,square4,f,0.1375,3,V,5.0
V5,41.0,9.0,14.0,38.0,31.0,14.0,1656.0,square2,j,0.0093,1,V,5.0
V5,42.0,14.0,17.0,43.0,31.0,43.0,1699.0,square3,r,0.0952,2,V,5.0
V5,43.0,10.0,18.0,39.0,23.0,39.0,1738.0,square3,r,0.1948,2,V,5.0
V5,44.0,10.0,20.0,33.0,32.0,33.0,1771.0,square3,r,0.1556,2,V,5.0
V5,45.0,16.0,17.0,37.0,29.0,37.0,1808.0,square3,r,0.2259,2,V,5.0
V5,46.0,9.0,22.0,37.0,25.0,37.0,1845.0,square3,r,0.1439,2,V,5.0
V5,47.0,10.0,22.0,35.0,26.0,35.0,1880.0,square3,r,0.1544,2,V,5.0
V5,48.0,11.0,16.0,39.0,23.0,39.0,1919.0,square3,r,0.6446,2,V,5.0
V5,49.0,13.0,16.0,33.0,27.0,16.0,1935.0,square2,j,0.0892,1,V,5.0
V5,50.0,12.0,16.0,39.0,24.0,12.0,1947.0,square1,i,0.0112,0,V,5.0
V5,51.0,10.0,21.0,43.0,28.0,28.0,1975.0,square4,f,0.0675,3,V,5.0
V5,52.0,8.0,15.0,36.0,28.0,36.0,2011.0,square3,r,0.1811,2,V,5.0
V5,53.0,38.0,20.0,31.0,54.0,31.0,2042.0,square3,r,0.2101,2,V,5.0
V5,54.0,39.0,20.0,35.0,51.0,35.0,2077.0,square3,r,0.5353,2,V,5.0
V5,55.0,41.0,21.0,27.0,50.0,27.0,2104.0,square3,r,0.2367,2,V,5.0
V5,56.0,39.0,23.0,28.0,49.0,23.0,2127.0,square2,j,0.0066,1,V,5.0
V5,57.0,36.0,28.0,29.0,59.0,36.0,2163.0,square1,i,0.1974,0,V,5.0
V5,58.0,38.0,22.0,28.0,49.0,38.0,2201.0,square1,i,0.376,0,V,5.0
V5,59.0,44.0,23.0,30.0,51.0,44.0,2245.0,square1,i,0.4605,0,V,5.0
V5,60.0,43.0,21.0,31.0,48.0,43.0,2288.0,square1,i,0.041,0,V,5.0
V5,61.0,39.0,24.0,35.0,50.0,39.0,2327.0,square1,i,0.0383,0,V,5.0
V5,62.0,38.0,25.0,31.0,52.0,38.0,2365.0,square1,i,0.1357,0,V,5.0
V5,63.0,41.0,14.0,31.0,52.0,52.0,2417.0,square4,f,0.0769,3,V,5.0
V5,64.0,43.0,23.0,30.0,51.0,51.0,2468.0,square4,f,0.0077,3,V,5.0
V5,65.0,41.0,23.0,35.0,52.0,52.0,2520.0,square4,f,0.2703,3,V,5.0
V5,66.0,41.0,17.0,33.0,47.0,47.0,2567.0,square4,f,0.0421,3,V,5.0
V5,67.0,44.0,23.0,32.0,49.0,49.0,2616.0,square4,f,0.2009,3,V,5.0
V5,68.0,44.0,24.0,31.0,44.0,44.0,2660.0,square4,f,0.0889,3,V,5.0
V5,69.0,43.0,28.0,27.0,48.0,48.0,2708.0,square4,f,0.0311,3,V,5.0
V5,70.0,38.0,22.0,26.0,50.0,50.0,2758.0,square4,f,0.1184,3,V,5.0
V5,71.0,41.0,29.0,26.0,53.0,53.0,2811.0,square4,f,0.1099,3,V,5.0
V5,72.0,40.0,20.0,28.0,51.0,51.0,2862.0,square4,f,0.0939,3,V,5.0
V5,73.0,59.0,44.0,51.0,35.0,35.0,2897.0,square4,f,0.1144,3,V,5.0
V5,74.0,60.0,38.0,55.0,43.0,60.0,2957.0,square1,i,0.0278,0,V,5.0
V5,75.0,63.0,45.0,50.0,37.0,63.0,3020.0,square1,i,0.1481,0,V,5.0
V5,76.0,62.0,42.0,50.0,37.0,62.0,3082.0,square1,i,0.1869,0,V,5.0
V5,77.0,57.0,37.0,52.0,35.0,57.0,3139.0,square1,i,0.177,0,V,5.0
V5,78.0,66.0,45.0,54.0,37.0,66.0,3205.0,square1,i,0.1122,0,V,5.0
V5,79.0,64.0,37.0,48.0,35.0,64.0,3269.0,square1,i,0.0988,0,V,5.0
V5,80.0,63.0,40.0,56.0,38.0,63.0,3332.0,square1,i,0.199,0,V,5.0
V5,81.0,62.0,41.0,54.0,32.0,62.0,3394.0,square1,i,0.128,0,V,5.0
V5,82.0,58.0,41.0,59.0,39.0,58.0,3452.0,square1,i,0.4226,0,V,5.0
V5,83.0,66.0,46.0,54.0,35.0,46.0,3498.0,square2,j,0.0528,1,V,5.0
V5,84.0,67.0,44.0,52.0,33.0,52.0,3550.0,square3,r,0.2225,2,V,5.0
V5,85.0,67.0,45.0,46.0,36.0,46.0,3596.0,square3,r,0.1838,2,V,5.0
V5,86.0,65.0,44.0,51.0,38.0,51.0,3647.0,square3,r,0.1213,2,V,5.0
V5,87.0,64.0,49.0,48.0,35.0,64.0,3711.0,square1,i,0.1034,0,V,5.0
V5,88.0,68.0,47.0,56.0,36.0,68.0,3779.0,square1,i,0.0086,0,V,5.0
V5,89.0,60.0,42.0,57.0,32.0,60.0,3839.0,square1,i,0.1629,0,V,5.0
V5,90.0,59.0,43.0,53.0,34.0,59.0,3898.0,square1,i,0.0062,0,V,5.0
V5,91.0,64.0,43.0,51.0,34.0,64.0,3962.0,square1,i,0.0431,0,V,5.0
V5,92.0,65.0,41.0,57.0,38.0,65.0,4027.0,square1,i,0.0613,0,V,5.0
V5,93.0,59.0,48.0,54.0,40.0,59.0,4086.0,square1,i,0.5249,0,V,5.0
V5,94.0,66.0,44.0,53.0,43.0,66.0,4152.0,square1,i,0.0355,0,V,5.0
V5,95.0,63.0,43.0,50.0,40.0,63.0,4215.0,square1,i,0.0746,0,V,5.0
V5,96.0,62.0,44.0,50.0,33.0,44.0,4259.0,square2,j,0.4638,1,V,5.0
V5,97.0,64.0,49.0,55.0,37.0,37.0,4296.0,square4,f,0.1532,3,V,5.0
V5,98.0,65.0,44.0,53.0,36.0,65.0,4361.0,square1,i,0.1432,0,V,5.0
V5,99.0,65.0,42.0,55.0,35.0,65.0,4426.0,square1,i,0.1193,0,V,5.0
NS6,0.0,68.0,18.0,30.0,58.0,18.0,18.0,square2,i,0.7769,1,N,6.0
NS6,1.0,62.0,23.0,38.0,67.0,67.0,85.0,square4,j,0.1453,3,N,6.0
NS6,2.0,59.0,30.0,33.0,67.0,67.0,152.0,square4,j,0.0215,3,N,6.0
NS6,3.0,62.0,27.0,39.0,65.0,62.0,214.0,square1,r,0.1064,0,N,6.0
NS6,4.0,65.0,22.0,32.0,67.0,67.0,281.0,square4,j,0.0672,3,N,6.0
NS6,5.0,61.0,28.0,39.0,67.0,39.0,320.0,square3,f,0.0089,2,N,6.0
NS6,6.0,59.0,28.0,39.0,66.0,59.0,379.0,square1,r,0.0073,0,N,6.0
NS6,7.0,56.0,30.0,43.0,63.0,63.0,442.0,square4,j,0.0931,3,N,6.0
NS6,8.0,57.0,26.0,36.0,60.0,60.0,502.0,square4,j,0.1869,3,N,6.0
NS6,9.0,51.0,30.0,38.0,65.0,65.0,567.0,square4,j,0.1182,3,N,6.0
NS6,10.0,46.0,26.0,41.0,61.0,61.0,628.0,square4,j,0.0856,3,N,6.0
NS6,11.0,46.0,30.0,40.0,58.0,58.0,686.0,square4,j,0.083,3,N,6.0
NS6,12.0,44.0,27.0,41.0,56.0,44.0,730.0,square1,r,0.0067,0,N,6.0
NS6,13.0,41.0,32.0,44.0,54.0,54.0,784.0,square4,j,0.0521,3,N,6.0
NS6,14.0,45.0,36.0,41.0,51.0,36.0,820.0,square2,i,0.1181,1,N,6.0
NS6,15.0,37.0,34.0,39.0,54.0,54.0,874.0,square4,j,0.1122,3,N,6.0
NS6,16.0,36.0,37.0,39.0,48.0,48.0,922.0,square4,j,0.0349,3,N,6.0
NS6,17.0,41.0,39.0,36.0,45.0,45.0,967.0,square4,j,0.1382,3,N,6.0
NS6,18.0,39.0,38.0,29.0,48.0,29.0,996.0,square3,f,0.0204,2,N,6.0
NS6,19.0,35.0,40.0,32.0,46.0,40.0,1036.0,square2,i,0.1186,1,N,6.0
NS6,20.0,41.0,40.0,28.0,55.0,55.0,1091.0,square4,j,0.0737,3,N,6.0
NS6,21.0,45.0,44.0,27.0,54.0,54.0,1145.0,square4,j,0.1728,3,N,6.0
NS6,22.0,44.0,51.0,31.0,53.0,53.0,1198.0,square4,j,0.2705,3,N,6.0
NS6,23.0,44.0,50.0,29.0,53.0,53.0,1251.0,square4,j,0.0894,3,N,6.0
NS6,24.0,49.0,49.0,35.0,55.0,55.0,1306.0,square4,j,0.1855,3,N,6.0
NS6,25.0,44.0,51.0,36.0,56.0,56.0,1362.0,square4,j,0.0848,3,N,6.0
NS6,26.0,43.0,46.0,38.0,58.0,58.0,1420.0,square4,j,0.1379,3,N,6.0
NS6,27.0,41.0,44.0,41.0,59.0,59.0,1479.0,square4,j,0.203,3,N,6.0
NS6,28.0,38.0,47.0,39.0,58.0,58.0,1537.0,square4,j,0.1651,3,N,6.0
NS6,29.0,39.0,46.0,37.0,54.0,54.0,1591.0,square4,j,0.1059,3,N,6.0
NS6,30.0,36.0,49.0,40.0,53.0,53.0,1644.0,square4,j,0.1892,3,N,6.0
NS6,31.0,37.0,45.0,36.0,55.0,55.0,1699.0,square4,j,0.3512,3,N,6.0
NS6,32.0,42.0,42.0,40.0,56.0,56.0,1755.0,square4,j,0.0073,3,N,6.0
NS6,33.0,33.0,44.0,32.0,53.0,53.0,1808.0,square4,j,0.14,3,N,6.0
NS6,34.0,32.0,42.0,36.0,49.0,49.0,1857.0,square4,j,0.1203,3,N,6.0
NS6,35.0,35.0,28.0,38.0,51.0,51.0,1908.0,square4,j,0.0717,3,N,6.0
NS6,36.0,38.0,28.0,35.0,52.0,52.0,1960.0,square4,j,0.1231,3,N,6.0
NS6,37.0,44.0,31.0,37.0,55.0,55.0,2015.0,square4,j,0.121,3,N,6.0
NS6,38.0,36.0,31.0,36.0,54.0,54.0,2069.0,square4,j,0.0378,3,N,6.0
NS6,39.0,40.0,29.0,41.0,60.0,40.0,2109.0,square1,r,0.279,0,N,6.0
NS6,40.0,46.0,33.0,36.0,62.0,62.0,2171.0,square4,j,0.1347,3,N,6.0
NS6,41.0,44.0,38.0,34.0,63.0,38.0,2209.0,square2,i,0.4833,1,N,6.0
NS6,42.0,43.0,32.0,29.0,59.0,59.0,2268.0,square4,j,0.1666,3,N,6.0
NS6,43.0,47.0,29.0,38.0,61.0,61.0,2329.0,square4,j,0.1276,3,N,6.0
NS6,44.0,49.0,33.0,36.0,56.0,56.0,2385.0,square4,j,0.0854,3,N,6.0
NS6,45.0,51.0,29.0,32.0,60.0,60.0,2445.0,square4,j,0.1768,3,N,6.0
NS6,46.0,52.0,36.0,41.0,64.0,64.0,2509.0,square4,j,0.1213,3,N,6.0
NS6,47.0,55.0,35.0,46.0,60.0,60.0,2569.0,square4,j,0.1078,3,N,6.0
NS6,48.0,57.0,34.0,40.0,64.0,64.0,2633.0,square4,j,0.0522,3,N,6.0
NS6,49.0,54.0,37.0,42.0,59.0,59.0,2692.0,square4,j,0.0075,3,N,6.0
NS6,50.0,58.0,40.0,35.0,51.0,51.0,2743.0,square4,j,0.095,3,N,6.0
NS6,51.0,64.0,35.0,36.0,53.0,53.0,2796.0,square4,j,0.0837,3,N,6.0
NS6,52.0,60.0,37.0,30.0,52.0,52.0,2848.0,square4,j,0.021,3,N,6.0
NS6,53.0,63.0,40.0,30.0,54.0,30.0,2878.0,square3,f,0.0856,2,N,6.0
NS6,54.0,60.0,37.0,30.0,53.0,60.0,2938.0,square1,r,0.2661,0,N,6.0
NS6,55.0,57.0,40.0,29.0,50.0,57.0,2995.0,square1,r,0.1883,0,N,6.0
NS6,56.0,58.0,30.0,30.0,46.0,58.0,3053.0,square1,r,0.0684,0,N,6.0
NS6,57.0,64.0,34.0,31.0,45.0,64.0,3117.0,square1,r,0.181,0,N,6.0
NS6,58.0,66.0,31.0,34.0,48.0,66.0,3183.0,square1,r,0.1009,0,N,6.0
NS6,59.0,68.0,31.0,35.0,44.0,68.0,3251.0,square1,r,0.1691,0,N,6.0
NS6,60.0,65.0,28.0,27.0,49.0,65.0,3316.0,square1,r,0.0346,0,N,6.0
NS6,61.0,67.0,29.0,25.0,47.0,67.0,3383.0,square1,r,0.1572,0,N,6.0
NS6,62.0,67.0,31.0,27.0,41.0,31.0,3414.0,square2,i,0.1733,1,N,6.0
NS6,63.0,69.0,32.0,24.0,45.0,69.0,3483.0,square1,r,0.0561,0,N,6.0
NS6,64.0,72.0,41.0,30.0,50.0,50.0,3533.0,square4,j,0.0594,3,N,6.0
NS6,65.0,75.0,35.0,33.0,50.0,75.0,3608.0,square1,r,0.1607,0,N,6.0
NS6,66.0,71.0,37.0,26.0,49.0,71.0,3679.0,square1,r,0.0596,0,N,6.0
NS6,67.0,74.0,34.0,21.0,49.0,74.0,3753.0,square1,r,0.1221,0,N,6.0
NS6,68.0,81.0,37.0,27.0,50.0,81.0,3834.0,square1,r,0.0345,0,N,6.0
NS6,69.0,80.0,31.0,25.0,49.0,80.0,3914.0,square1,r,0.0881,0,N,6.0
NS6,70.0,83.0,33.0,31.0,46.0,83.0,3997.0,square1,r,0.0508,0,N,6.0
NS6,71.0,75.0,33.0,34.0,53.0,75.0,4072.0,square1,r,0.0687,0,N,6.0
NS6,72.0,73.0,39.0,32.0,55.0,73.0,4145.0,square1,r,0.0347,0,N,6.0
NS6,73.0,74.0,40.0,33.0,53.0,74.0,4219.0,square1,r,0.1825,0,N,6.0
NS6,74.0,73.0,46.0,32.0,50.0,73.0,4292.0,square1,r,0.066,0,N,6.0
NS6,75.0,71.0,40.0,32.0,49.0,71.0,4363.0,square1,r,0.251,0,N,6.0
NS6,76.0,65.0,43.0,31.0,56.0,65.0,4428.0,square1,r,0.0847,0,N,6.0
NS6,77.0,66.0,41.0,33.0,56.0,56.0,4484.0,square4,j,0.0347,3,N,6.0
NS6,78.0,71.0,40.0,38.0,64.0,71.0,4555.0,square1,r,0.1115,0,N,6.0
NS6,79.0,69.0,36.0,35.0,62.0,69.0,4624.0,square1,r,0.1824,0,N,6.0
NS6,80.0,69.0,34.0,37.0,69.0,34.0,4658.0,square2,i,0.1444,1,N,6.0
NS6,81.0,70.0,37.0,37.0,71.0,70.0,4728.0,square1,r,0.1487,0,N,6.0
NS6,82.0,68.0,38.0,39.0,66.0,68.0,4796.0,square1,r,0.1717,0,N,6.0
NS6,83.0,69.0,42.0,41.0,73.0,41.0,4837.0,square3,f,0.1929,2,N,6.0
NS6,84.0,62.0,42.0,42.0,70.0,62.0,4899.0,square1,r,0.2197,0,N,6.0
NS6,85.0,57.0,45.0,42.0,77.0,77.0,4976.0,square4,j,0.1384,3,N,6.0
NS6,86.0,58.0,47.0,44.0,70.0,70.0,5046.0,square4,j,0.0527,3,N,6.0
NS6,87.0,62.0,44.0,52.0,73.0,73.0,5119.0,square4,j,0.1059,3,N,6.0
NS6,88.0,62.0,45.0,47.0,72.0,72.0,5191.0,square4,j,0.2786,3,N,6.0
NS6,89.0,59.0,50.0,47.0,73.0,73.0,5264.0,square4,j,0.1591,3,N,6.0
NS6,90.0,55.0,45.0,44.0,68.0,68.0,5332.0,square4,j,0.0749,3,N,6.0
NS6,91.0,55.0,51.0,47.0,67.0,67.0,5399.0,square4,j,0.007,3,N,6.0
NS6,92.0,62.0,52.0,35.0,69.0,62.0,5461.0,square1,r,0.0076,0,N,6.0
NS6,93.0,59.0,47.0,32.0,68.0,68.0,5529.0,square4,j,0.0865,3,N,6.0
NS6,94.0,67.0,53.0,44.0,66.0,66.0,5595.0,square4,j,0.5768,3,N,6.0
NS6,95.0,71.0,44.0,47.0,66.0,66.0,5661.0,square4,j,0.128,3,N,6.0
NS6,96.0,68.0,53.0,47.0,66.0,66.0,5727.0,square4,j,0.1142,3,N,6.0
NS6,97.0,65.0,49.0,44.0,64.0,64.0,5791.0,square4,j,0.1778,3,N,6.0
NS6,98.0,66.0,54.0,55.0,57.0,57.0,5848.0,square4,j,0.3174,3,N,6.0
NS6,99.0,69.0,57.0,51.0,56.0,69.0,5917.0,square1,r,1.5014,0,N,6.0
NS3,0.0,52.0,26.0,68.0,52.0,52.0,52.0,square1,i,0.7565,0,N,3.0
NS3,1.0,57.0,23.0,69.0,48.0,48.0,100.0,square4,f,1.2609,3,N,3.0
NS3,2.0,59.0,26.0,70.0,52.0,52.0,152.0,square4,f,0.195,3,N,3.0
NS3,3.0,57.0,24.0,70.0,52.0,24.0,176.0,square2,j,0.1508,1,N,3.0
NS3,4.0,59.0,30.0,74.0,49.0,59.0,235.0,square1,i,0.0063,0,N,3.0
NS3,5.0,55.0,24.0,67.0,51.0,67.0,302.0,square3,r,0.0894,2,N,3.0
NS3,6.0,54.0,27.0,73.0,55.0,73.0,375.0,square3,r,0.1294,2,N,3.0
NS3,7.0,55.0,28.0,66.0,43.0,66.0,441.0,square3,r,0.1086,2,N,3.0
NS3,8.0,57.0,30.0,65.0,45.0,65.0,506.0,square3,r,0.0737,2,N,3.0
NS3,9.0,53.0,33.0,54.0,37.0,54.0,560.0,square3,r,0.0085,2,N,3.0
NS3,10.0,46.0,27.0,54.0,43.0,43.0,603.0,square4,f,0.2516,3,N,3.0
NS3,11.0,48.0,31.0,58.0,51.0,48.0,651.0,square1,i,0.0199,0,N,3.0
NS3,12.0,50.0,27.0,54.0,53.0,54.0,705.0,square3,r,0.0929,2,N,3.0
NS3,13.0,49.0,28.0,62.0,50.0,28.0,733.0,square2,j,0.1448,1,N,3.0
NS3,14.0,53.0,28.0,62.0,52.0,62.0,795.0,square3,r,0.0068,2,N,3.0
NS3,15.0,52.0,25.0,57.0,57.0,57.0,852.0,square3,r,0.07,2,N,3.0
NS3,16.0,48.0,29.0,56.0,56.0,56.0,908.0,square3,r,0.2796,2,N,3.0
NS3,17.0,39.0,21.0,58.0,56.0,58.0,966.0,square3,r,0.0695,2,N,3.0
NS3,18.0,40.0,23.0,58.0,60.0,58.0,1024.0,square3,r,0.084,2,N,3.0
NS3,19.0,40.0,26.0,63.0,58.0,63.0,1087.0,square3,r,0.173,2,N,3.0
NS3,20.0,46.0,24.0,60.0,56.0,60.0,1147.0,square3,r,0.2042,2,N,3.0
NS3,21.0,42.0,27.0,61.0,55.0,61.0,1208.0,square3,r,0.0732,2,N,3.0
NS3,22.0,45.0,26.0,62.0,56.0,62.0,1270.0,square3,r,0.2003,2,N,3.0
NS3,23.0,39.0,21.0,64.0,60.0,39.0,1309.0,square1,i,0.0531,0,N,3.0
NS3,24.0,44.0,21.0,59.0,64.0,59.0,1368.0,square3,r,0.0384,2,N,3.0
NS3,25.0,44.0,22.0,58.0,65.0,65.0,1433.0,square4,f,0.0072,3,N,3.0
NS3,26.0,42.0,26.0,60.0,62.0,62.0,1495.0,square4,f,0.1743,3,N,3.0
NS3,27.0,38.0,18.0,55.0,67.0,67.0,1562.0,square4,f,0.1032,3,N,3.0
NS3,28.0,41.0,23.0,56.0,60.0,60.0,1622.0,square4,f,0.1536,3,N,3.0
NS3,29.0,38.0,16.0,52.0,66.0,66.0,1688.0,square4,f,0.0874,3,N,3.0
NS3,30.0,36.0,13.0,61.0,64.0,64.0,1752.0,square4,f,0.0854,3,N,3.0
NS3,31.0,42.0,13.0,54.0,63.0,54.0,1806.0,square3,r,0.2591,2,N,3.0
NS3,32.0,38.0,18.0,50.0,62.0,18.0,1824.0,square2,j,0.0836,1,N,3.0
NS3,33.0,29.0,20.0,51.0,64.0,29.0,1853.0,square1,i,0.1636,0,N,3.0
NS3,34.0,32.0,21.0,45.0,63.0,63.0,1916.0,square4,f,0.0199,3,N,3.0
NS3,35.0,30.0,17.0,46.0,65.0,46.0,1962.0,square3,r,0.3098,2,N,3.0
NS3,36.0,35.0,16.0,47.0,69.0,69.0,2031.0,square4,f,0.1042,3,N,3.0
NS3,37.0,34.0,18.0,45.0,68.0,68.0,2099.0,square4,f,0.1469,3,N,3.0
NS3,38.0,40.0,14.0,50.0,74.0,74.0,2173.0,square4,f,0.036,3,N,3.0
NS3,39.0,39.0,15.0,49.0,73.0,73.0,2246.0,square4,f,0.1104,3,N,3.0
NS3,40.0,42.0,15.0,51.0,74.0,74.0,2320.0,square4,f,0.203,3,N,3.0
NS3,41.0,38.0,17.0,43.0,74.0,74.0,2394.0,square4,f,0.1837,3,N,3.0
NS3,42.0,36.0,16.0,46.0,74.0,74.0,2468.0,square4,f,0.0896,3,N,3.0
NS3,43.0,41.0,21.0,44.0,76.0,76.0,2544.0,square4,f,0.232,3,N,3.0
NS3,44.0,41.0,26.0,35.0,70.0,70.0,2614.0,square4,f,0.2632,3,N,3.0
NS3,45.0,39.0,27.0,33.0,75.0,75.0,2689.0,square4,f,0.0417,3,N,3.0
NS3,46.0,45.0,25.0,38.0,77.0,77.0,2766.0,square4,f,0.0917,3,N,3.0
NS3,47.0,41.0,20.0,34.0,76.0,76.0,2842.0,square4,f,0.0365,3,N,3.0
NS3,48.0,37.0,25.0,34.0,77.0,77.0,2919.0,square4,f,0.2989,3,N,3.0
NS3,49.0,41.0,18.0,40.0,78.0,78.0,2997.0,square4,f,0.0209,3,N,3.0
NS3,50.0,42.0,17.0,41.0,83.0,83.0,3080.0,square4,f,0.2462,3,N,3.0
NS3,51.0,53.0,18.0,39.0,83.0,83.0,3163.0,square4,f,0.1264,3,N,3.0
NS3,52.0,55.0,19.0,34.0,82.0,82.0,3245.0,square4,f,0.1325,3,N,3.0
NS3,53.0,52.0,17.0,39.0,77.0,77.0,3322.0,square4,f,0.0536,3,N,3.0
NS3,54.0,55.0,21.0,46.0,77.0,77.0,3399.0,square4,f,0.0708,3,N,3.0
NS3,55.0,48.0,21.0,49.0,75.0,75.0,3474.0,square4,f,0.198,3,N,3.0
NS3,56.0,50.0,25.0,51.0,74.0,74.0,3548.0,square4,f,0.0929,3,N,3.0
NS3,57.0,54.0,23.0,46.0,66.0,66.0,3614.0,square4,f,0.0071,3,N,3.0
NS3,58.0,60.0,25.0,50.0,72.0,72.0,3686.0,square4,f,0.2302,3,N,3.0
NS3,59.0,54.0,23.0,46.0,72.0,72.0,3758.0,square4,f,0.0095,3,N,3.0
NS3,60.0,51.0,26.0,50.0,72.0,72.0,3830.0,square4,f,0.2127,3,N,3.0
NS3,61.0,57.0,27.0,54.0,71.0,71.0,3901.0,square4,f,0.1586,3,N,3.0
NS3,62.0,51.0,27.0,54.0,64.0,64.0,3965.0,square4,f,0.0345,3,N,3.0
NS3,63.0,54.0,25.0,42.0,62.0,62.0,4027.0,square4,f,0.2157,3,N,3.0
NS3,64.0,54.0,25.0,47.0,62.0,62.0,4089.0,square4,f,0.1563,3,N,3.0
NS3,65.0,48.0,26.0,45.0,60.0,60.0,4149.0,square4,f,0.2086,3,N,3.0
NS3,66.0,49.0,22.0,47.0,60.0,60.0,4209.0,square4,f,0.1868,3,N,3.0
NS3,67.0,49.0,26.0,45.0,65.0,65.0,4274.0,square4,f,0.0075,3,N,3.0
NS3,68.0,54.0,26.0,47.0,67.0,54.0,4328.0,square1,i,0.161,0,N,3.0
NS3,69.0,48.0,22.0,45.0,56.0,56.0,4384.0,square4,f,0.0717,3,N,3.0
NS3,70.0,55.0,26.0,48.0,61.0,61.0,4445.0,square4,f,0.2602,3,N,3.0
NS3,71.0,55.0,29.0,43.0,60.0,60.0,4505.0,square4,f,0.007,3,N,3.0
NS3,72.0,56.0,30.0,43.0,51.0,43.0,4548.0,square3,r,0.0076,2,N,3.0
NS3,73.0,55.0,27.0,47.0,56.0,56.0,4604.0,square4,f,0.1412,3,N,3.0
NS3,74.0,63.0,26.0,44.0,55.0,26.0,4630.0,square2,j,0.361,1,N,3.0
NS3,75.0,61.0,34.0,45.0,62.0,62.0,4692.0,square4,f,0.1443,3,N,3.0
NS3,76.0,55.0,28.0,45.0,62.0,62.0,4754.0,square4,f,0.1024,3,N,3.0
NS3,77.0,58.0,31.0,53.0,66.0,66.0,4820.0,square4,f,0.0879,3,N,3.0
NS3,78.0,55.0,29.0,51.0,60.0,60.0,4880.0,square4,f,0.2204,3,N,3.0
NS3,79.0,51.0,29.0,52.0,68.0,68.0,4948.0,square4,f,0.2338,3,N,3.0
NS3,80.0,55.0,31.0,48.0,59.0,59.0,5007.0,square4,f,0.1207,3,N,3.0
NS3,81.0,56.0,38.0,56.0,64.0,56.0,5063.0,square1,i,0.0689,0,N,3.0
NS3,82.0,54.0,27.0,54.0,55.0,55.0,5118.0,square4,f,0.1246,3,N,3.0
NS3,83.0,62.0,30.0,49.0,58.0,58.0,5176.0,square4,f,0.1401,3,N,3.0
NS3,84.0,64.0,24.0,47.0,62.0,47.0,5223.0,square3,r,0.1334,2,N,3.0
NS3,85.0,65.0,23.0,54.0,63.0,63.0,5286.0,square4,f,0.1925,3,N,3.0
NS3,86.0,68.0,25.0,56.0,65.0,65.0,5351.0,square4,f,0.1917,3,N,3.0
NS3,87.0,65.0,22.0,55.0,60.0,60.0,5411.0,square4,f,0.1384,3,N,3.0
NS3,88.0,64.0,20.0,58.0,65.0,65.0,5476.0,square4,f,0.1715,3,N,3.0
NS3,89.0,68.0,13.0,62.0,64.0,64.0,5540.0,square4,f,0.1667,3,N,3.0
NS3,90.0,72.0,13.0,52.0,64.0,64.0,5604.0,square4,f,0.2698,3,N,3.0
NS3,91.0,67.0,20.0,52.0,69.0,69.0,5673.0,square4,f,0.0071,3,N,3.0
NS3,92.0,72.0,21.0,58.0,64.0,64.0,5737.0,square4,f,0.1553,3,N,3.0
NS3,93.0,73.0,16.0,54.0,67.0,67.0,5804.0,square4,f,0.0374,3,N,3.0
NS3,94.0,69.0,17.0,51.0,64.0,64.0,5868.0,square4,f,0.0253,3,N,3.0
NS3,95.0,62.0,19.0,60.0,62.0,62.0,5930.0,square4,f,0.0896,3,N,3.0
NS3,96.0,67.0,15.0,56.0,67.0,67.0,5997.0,square4,f,0.1643,3,N,3.0
NS3,97.0,61.0,17.0,58.0,62.0,62.0,6059.0,square4,f,0.0881,3,N,3.0
NS3,98.0,59.0,13.0,58.0,58.0,58.0,6117.0,square4,f,0.093,3,N,3.0
NS3,99.0,62.0,15.0,51.0,60.0,60.0,6177.0,square4,f,0.1199,3,N,3.0
NS10,0.0,61.0,42.0,19.0,80.0,42.0,42.0,square2,i,0.3569,1,N,10.0
NS10,1.0,62.0,41.0,25.0,78.0,41.0,83.0,square2,i,0.1336,1,N,10.0
NS10,2.0,64.0,42.0,22.0,80.0,22.0,105.0,square3,j,0.6933,2,N,10.0
NS10,3.0,66.0,50.0,21.0,73.0,50.0,155.0,square2,i,0.3412,1,N,10.0
NS10,4.0,65.0,48.0,19.0,80.0,80.0,235.0,square4,r,0.5701,3,N,10.0
NS10,5.0,66.0,48.0,23.0,75.0,66.0,301.0,square1,f,0.137,0,N,10.0
NS10,6.0,60.0,47.0,26.0,77.0,77.0,378.0,square4,r,0.0879,3,N,10.0
NS10,7.0,66.0,43.0,25.0,81.0,81.0,459.0,square4,r,0.1539,3,N,10.0
NS10,8.0,72.0,42.0,23.0,80.0,80.0,539.0,square4,r,0.3384,3,N,10.0
NS10,9.0,66.0,45.0,21.0,81.0,81.0,620.0,square4,r,0.0737,3,N,10.0
NS10,10.0,69.0,46.0,29.0,77.0,77.0,697.0,square4,r,0.041,3,N,10.0
NS10,11.0,68.0,44.0,27.0,70.0,70.0,767.0,square4,r,0.0871,3,N,10.0
NS10,12.0,68.0,46.0,27.0,65.0,65.0,832.0,square4,r,0.1029,3,N,10.0
NS10,13.0,67.0,50.0,23.0,65.0,65.0,897.0,square4,r,0.1859,3,N,10.0
NS10,14.0,67.0,49.0,31.0,61.0,61.0,958.0,square4,r,0.5257,3,N,10.0
NS10,15.0,71.0,51.0,28.0,69.0,69.0,1027.0,square4,r,0.249,3,N,10.0
NS10,16.0,71.0,48.0,25.0,64.0,64.0,1091.0,square4,r,0.2661,3,N,10.0
NS10,17.0,68.0,48.0,25.0,60.0,60.0,1151.0,square4,r,0.2656,3,N,10.0
NS10,18.0,68.0,49.0,23.0,66.0,66.0,1217.0,square4,r,0.0064,3,N,10.0
NS10,19.0,67.0,51.0,23.0,64.0,67.0,1284.0,square1,f,0.0352,0,N,10.0
NS10,20.0,65.0,54.0,29.0,58.0,58.0,1342.0,square4,r,0.0742,3,N,10.0
NS10,21.0,61.0,58.0,22.0,61.0,61.0,1403.0,square4,r,0.0202,3,N,10.0
NS10,22.0,67.0,51.0,23.0,60.0,60.0,1463.0,square4,r,0.0363,3,N,10.0
NS10,23.0,65.0,57.0,22.0,60.0,60.0,1523.0,square4,r,0.1778,3,N,10.0
NS10,24.0,67.0,58.0,26.0,56.0,56.0,1579.0,square4,r,0.063,3,N,10.0
NS10,25.0,70.0,67.0,26.0,60.0,70.0,1649.0,square1,f,0.086,0,N,10.0
NS10,26.0,71.0,58.0,24.0,55.0,71.0,1720.0,square1,f,0.0841,0,N,10.0
NS10,27.0,74.0,57.0,24.0,59.0,74.0,1794.0,square1,f,0.1394,0,N,10.0
NS10,28.0,76.0,62.0,24.0,56.0,76.0,1870.0,square1,f,0.1658,0,N,10.0
NS10,29.0,78.0,66.0,21.0,61.0,78.0,1948.0,square1,f,0.1833,0,N,10.0
NS10,30.0,74.0,62.0,20.0,52.0,74.0,2022.0,square1,f,0.0334,0,N,10.0
NS10,31.0,74.0,63.0,21.0,53.0,74.0,2096.0,square1,f,0.1747,0,N,10.0
NS10,32.0,77.0,62.0,19.0,50.0,77.0,2173.0,square1,f,0.1695,0,N,10.0
NS10,33.0,74.0,63.0,21.0,50.0,74.0,2247.0,square1,f,0.1017,0,N,10.0
NS10,34.0,69.0,64.0,16.0,47.0,69.0,2316.0,square1,f,0.1841,0,N,10.0
NS10,35.0,68.0,60.0,14.0,51.0,68.0,2384.0,square1,f,0.0075,0,N,10.0
NS10,36.0,76.0,59.0,13.0,52.0,76.0,2460.0,square1,f,0.1271,0,N,10.0
NS10,37.0,71.0,60.0,16.0,50.0,71.0,2531.0,square1,f,0.1037,0,N,10.0
NS10,38.0,70.0,56.0,27.0,49.0,70.0,2601.0,square1,f,0.124,0,N,10.0
NS10,39.0,75.0,59.0,22.0,49.0,75.0,2676.0,square1,f,0.022,0,N,10.0
NS10,40.0,70.0,56.0,27.0,51.0,70.0,2746.0,square1,f,0.0516,0,N,10.0
NS10,41.0,73.0,57.0,24.0,54.0,73.0,2819.0,square1,f,0.0499,0,N,10.0
NS10,42.0,70.0,58.0,24.0,51.0,70.0,2889.0,square1,f,0.1207,0,N,10.0
NS10,43.0,70.0,60.0,26.0,45.0,70.0,2959.0,square1,f,0.1155,0,N,10.0
NS10,44.0,68.0,58.0,27.0,53.0,68.0,3027.0,square1,f,0.1586,0,N,10.0
NS10,45.0,70.0,61.0,31.0,49.0,70.0,3097.0,square1,f,0.1719,0,N,10.0
NS10,46.0,65.0,60.0,29.0,43.0,43.0,3140.0,square4,r,0.2828,3,N,10.0
NS10,47.0,65.0,61.0,32.0,44.0,65.0,3205.0,square1,f,0.1393,0,N,10.0
NS10,48.0,67.0,58.0,31.0,46.0,58.0,3263.0,square2,i,0.2953,1,N,10.0
NS10,49.0,76.0,55.0,38.0,43.0,76.0,3339.0,square1,f,0.8943,0,N,10.0
NS10,50.0,74.0,65.0,36.0,40.0,65.0,3404.0,square2,i,0.05,1,N,10.0
NS10,51.0,74.0,58.0,34.0,40.0,34.0,3438.0,square3,j,0.498,2,N,10.0
NS10,52.0,69.0,65.0,28.0,43.0,65.0,3503.0,square2,i,0.0892,1,N,10.0
NS10,53.0,69.0,65.0,32.0,40.0,69.0,3572.0,square1,f,0.1041,0,N,10.0
NS10,54.0,72.0,61.0,32.0,41.0,72.0,3644.0,square1,f,0.1017,0,N,10.0
NS10,55.0,65.0,64.0,36.0,33.0,65.0,3709.0,square1,f,0.07,0,N,10.0
NS10,56.0,75.0,64.0,37.0,37.0,75.0,3784.0,square1,f,0.057,0,N,10.0
NS10,57.0,72.0,62.0,36.0,38.0,72.0,3856.0,square1,f,0.0537,0,N,10.0
NS10,58.0,63.0,68.0,38.0,33.0,63.0,3919.0,square1,f,0.1522,0,N,10.0
NS10,59.0,65.0,64.0,43.0,34.0,34.0,3953.0,square4,r,0.1376,3,N,10.0
NS10,60.0,62.0,64.0,51.0,40.0,62.0,4015.0,square1,f,0.0927,0,N,10.0
NS10,61.0,61.0,65.0,45.0,38.0,61.0,4076.0,square1,f,0.1828,0,N,10.0
NS10,62.0,66.0,63.0,41.0,37.0,66.0,4142.0,square1,f,0.182,0,N,10.0
NS10,63.0,67.0,62.0,45.0,41.0,67.0,4209.0,square1,f,0.214,0,N,10.0
NS10,64.0,72.0,60.0,44.0,36.0,72.0,4281.0,square1,f,0.007,0,N,10.0
NS10,65.0,73.0,65.0,42.0,39.0,73.0,4354.0,square1,f,0.307,0,N,10.0
NS10,66.0,72.0,67.0,45.0,43.0,72.0,4426.0,square1,f,0.2164,0,N,10.0
NS10,67.0,66.0,70.0,44.0,40.0,66.0,4492.0,square1,f,0.3442,0,N,10.0
NS10,68.0,61.0,69.0,45.0,44.0,61.0,4553.0,square1,f,0.173,0,N,10.0
NS10,69.0,64.0,68.0,42.0,43.0,64.0,4617.0,square1,f,0.0189,0,N,10.0
NS10,70.0,66.0,72.0,41.0,42.0,66.0,4683.0,square1,f,0.0664,0,N,10.0
NS10,71.0,64.0,72.0,46.0,45.0,64.0,4747.0,square1,f,0.1023,0,N,10.0
NS10,72.0,64.0,69.0,44.0,39.0,64.0,4811.0,square1,f,0.0703,0,N,10.0
NS10,73.0,60.0,74.0,48.0,45.0,60.0,4871.0,square1,f,0.2274,0,N,10.0
NS10,74.0,57.0,75.0,48.0,41.0,41.0,4912.0,square4,r,0.1144,3,N,10.0
NS10,75.0,66.0,75.0,46.0,40.0,66.0,4978.0,square1,f,0.1318,0,N,10.0
NS10,76.0,63.0,77.0,46.0,40.0,77.0,5055.0,square2,i,0.2184,1,N,10.0
NS10,77.0,62.0,74.0,43.0,34.0,74.0,5129.0,square2,i,0.0208,1,N,10.0
NS10,78.0,60.0,71.0,48.0,33.0,71.0,5200.0,square2,i,0.0077,1,N,10.0
NS10,79.0,63.0,68.0,47.0,29.0,68.0,5268.0,square2,i,0.0197,1,N,10.0
NS10,80.0,54.0,71.0,42.0,32.0,71.0,5339.0,square2,i,0.6193,1,N,10.0
NS10,81.0,52.0,72.0,44.0,30.0,72.0,5411.0,square2,i,0.1205,1,N,10.0
NS10,82.0,51.0,77.0,41.0,31.0,77.0,5488.0,square2,i,0.3164,1,N,10.0
NS10,83.0,52.0,63.0,41.0,35.0,41.0,5529.0,square3,j,0.8713,2,N,10.0
NS10,84.0,48.0,70.0,37.0,34.0,70.0,5599.0,square2,i,0.0522,1,N,10.0
NS10,85.0,51.0,73.0,38.0,30.0,73.0,5672.0,square2,i,0.052,1,N,10.0
NS10,86.0,55.0,79.0,45.0,27.0,79.0,5751.0,square2,i,0.2724,1,N,10.0
NS10,87.0,54.0,83.0,47.0,21.0,83.0,5834.0,square2,i,0.1428,1,N,10.0
NS10,88.0,59.0,78.0,45.0,21.0,78.0,5912.0,square2,i,0.0836,1,N,10.0
NS10,89.0,60.0,74.0,45.0,21.0,74.0,5986.0,square2,i,0.1848,1,N,10.0
NS10,90.0,55.0,71.0,50.0,18.0,71.0,6057.0,square2,i,0.0065,1,N,10.0
NS10,91.0,56.0,71.0,46.0,14.0,71.0,6128.0,square2,i,0.0221,1,N,10.0
NS10,92.0,59.0,70.0,46.0,20.0,59.0,6187.0,square1,f,0.0342,0,N,10.0
NS10,93.0,65.0,72.0,46.0,21.0,72.0,6259.0,square2,i,0.0954,1,N,10.0
NS10,94.0,63.0,68.0,46.0,20.0,68.0,6327.0,square2,i,0.0899,1,N,10.0
NS10,95.0,69.0,70.0,48.0,22.0,70.0,6397.0,square2,i,0.1303,1,N,10.0
NS10,96.0,68.0,69.0,45.0,27.0,69.0,6466.0,square2,i,0.0623,1,N,10.0
NS10,97.0,74.0,69.0,43.0,35.0,69.0,6535.0,square2,i,0.0789,1,N,10.0
NS10,98.0,73.0,68.0,43.0,30.0,68.0,6603.0,square2,i,0.0983,1,N,10.0
NS10,99.0,70.0,61.0,39.0,32.0,61.0,6664.0,square2,i,0.1999,1,N,10.0
