block,Trial,square1,square2,square3,square4,currPoints,totalPoints,square,choiceKey.keys,choiceKey.rt,armNum,blockType,blockNum
prac,0.0,100.0,0.0,0.0,0.0,0,0.0,square3,,,2,p,0.0
prac,1.0,100.0,0.0,0.0,0.0,100,100.0,square1,,,0,p,0.0
prac,2.0,100.0,0.0,0.0,0.0,0,100.0,square4,,,3,p,0.0
prac,3.0,100.0,0.0,0.0,0.0,0,100.0,square2,,,1,p,0.0
prac,4.0,100.0,0.0,0.0,0.0,100,200.0,square1,,,0,p,0.0
prac,5.0,100.0,0.0,0.0,0.0,100,300.0,square1,,,0,p,0.0
prac,6.0,100.0,0.0,0.0,0.0,100,400.0,square1,,,0,p,0.0
prac,7.0,100.0,0.0,0.0,0.0,100,500.0,square1,,,0,p,0.0
prac,8.0,100.0,0.0,0.0,0.0,100,600.0,square1,,,0,p,0.0
prac,9.0,100.0,0.0,0.0,0.0,100,700.0,square1,,,0,p,0.0
NS7,0.0,26.0,62.0,36.0,41.0,62,62.0,square2,i,1.3046,1,N,7.0
NS7,1.0,31.0,61.0,40.0,42.0,40,102.0,square3,j,0.5455,2,N,7.0
NS7,2.0,30.0,60.0,46.0,41.0,30,132.0,square1,f,0.2749,0,N,7.0
NS7,3.0,27.0,57.0,46.0,39.0,39,171.0,square4,r,0.2076,3,N,7.0
NS7,4.0,20.0,58.0,45.0,39.0,20,191.0,square1,f,0.3021,0,N,7.0
NS7,5.0,29.0,57.0,46.0,42.0,57,248.0,square2,i,0.2354,1,N,7.0
NS7,6.0,28.0,61.0,44.0,40.0,40,288.0,square4,r,0.05,3,N,7.0
NS7,7.0,24.0,56.0,46.0,40.0,46,334.0,square3,j,0.0421,2,N,7.0
NS7,8.0,25.0,66.0,45.0,36.0,66,400.0,square2,i,0.0254,1,N,7.0
NS7,9.0,27.0,65.0,46.0,40.0,65,465.0,square2,i,0.1834,1,N,7.0
NS7,10.0,27.0,65.0,41.0,46.0,65,530.0,square2,i,0.4644,1,N,7.0
NS7,11.0,26.0,58.0,40.0,51.0,58,588.0,square2,i,0.1347,1,N,7.0
NS7,12.0,19.0,64.0,43.0,57.0,19,607.0,square1,f,0.1924,0,N,7.0
NS7,13.0,21.0,64.0,43.0,54.0,64,671.0,square2,i,0.0342,1,N,7.0
NS7,14.0,26.0,67.0,44.0,55.0,67,738.0,square2,i,0.6663,1,N,7.0
NS7,15.0,20.0,64.0,40.0,61.0,64,802.0,square2,i,0.1004,1,N,7.0
NS7,16.0,20.0,61.0,38.0,66.0,61,863.0,square2,i,0.1344,1,N,7.0
NS7,17.0,20.0,56.0,39.0,64.0,56,919.0,square2,i,0.0003,1,N,7.0
NS7,18.0,21.0,56.0,33.0,65.0,33,952.0,square3,j,0.0352,2,N,7.0
NS7,19.0,21.0,56.0,36.0,68.0,68,1020.0,square4,r,0.1509,3,N,7.0
NS7,20.0,26.0,58.0,37.0,64.0,64,1084.0,square4,r,0.5174,3,N,7.0
NS7,21.0,29.0,62.0,36.0,61.0,61,1145.0,square4,r,0.1948,3,N,7.0
NS7,22.0,24.0,63.0,37.0,55.0,63,1208.0,square2,i,0.3603,1,N,7.0
NS7,23.0,26.0,64.0,38.0,54.0,54,1262.0,square4,r,0.2506,3,N,7.0
NS7,24.0,18.0,65.0,39.0,53.0,65,1327.0,square2,i,0.3518,1,N,7.0
NS7,25.0,20.0,62.0,36.0,53.0,20,1347.0,square1,f,0.2176,0,N,7.0
NS7,26.0,24.0,56.0,39.0,52.0,39,1386.0,square3,j,0.5013,2,N,7.0
NS7,27.0,31.0,58.0,36.0,51.0,58,1444.0,square2,i,0.2742,1,N,7.0
NS7,28.0,28.0,59.0,42.0,53.0,59,1503.0,square2,i,0.3437,1,N,7.0
NS7,29.0,30.0,57.0,36.0,51.0,57,1560.0,square2,i,0.2118,1,N,7.0
NS7,30.0,29.0,57.0,35.0,53.0,53,1613.0,square4,r,0.3254,3,N,7.0
NS7,31.0,27.0,59.0,37.0,48.0,59,1672.0,square2,i,0.2092,1,N,7.0
NS7,32.0,29.0,59.0,38.0,45.0,59,1731.0,square2,i,0.193,1,N,7.0
NS7,33.0,35.0,58.0,37.0,52.0,58,1789.0,square2,i,0.143,1,N,7.0
NS7,34.0,33.0,59.0,43.0,52.0,59,1848.0,square2,i,0.1976,1,N,7.0
NS7,35.0,37.0,61.0,43.0,49.0,61,1909.0,square2,i,0.6595,1,N,7.0
NS7,36.0,36.0,62.0,48.0,54.0,62,1971.0,square2,i,0.1274,1,N,7.0
NS7,37.0,35.0,62.0,46.0,57.0,62,2033.0,square2,i,0.195,1,N,7.0
NS7,38.0,37.0,59.0,52.0,53.0,59,2092.0,square2,i,0.0845,1,N,7.0
NS7,39.0,32.0,57.0,50.0,59.0,57,2149.0,square2,i,0.1099,1,N,7.0
NS7,40.0,30.0,56.0,54.0,59.0,56,2205.0,square2,i,0.1428,1,N,7.0
NS7,41.0,36.0,54.0,52.0,56.0,54,2259.0,square2,i,0.0587,1,N,7.0
NS7,42.0,30.0,55.0,57.0,55.0,55,2314.0,square2,i,0.0674,1,N,7.0
NS7,43.0,35.0,52.0,54.0,58.0,52,2366.0,square2,i,0.094,1,N,7.0
NS7,44.0,30.0,56.0,55.0,57.0,55,2421.0,square3,j,0.2503,2,N,7.0
NS7,45.0,28.0,63.0,57.0,58.0,28,2449.0,square1,f,0.1768,0,N,7.0
NS7,46.0,29.0,60.0,58.0,57.0,57,2506.0,square4,r,0.2179,3,N,7.0
NS7,47.0,31.0,58.0,54.0,53.0,54,2560.0,square3,j,0.258,2,N,7.0
NS7,48.0,27.0,58.0,59.0,48.0,59,2619.0,square3,j,0.2431,2,N,7.0
NS7,49.0,28.0,48.0,60.0,54.0,60,2679.0,square3,j,0.1928,2,N,7.0
NS7,50.0,27.0,49.0,62.0,53.0,62,2741.0,square3,j,0.1806,2,N,7.0
NS7,51.0,41.0,49.0,63.0,56.0,63,2804.0,square3,j,0.1029,2,N,7.0
NS7,52.0,36.0,43.0,66.0,56.0,66,2870.0,square3,j,0.2002,2,N,7.0
NS7,53.0,41.0,51.0,69.0,54.0,69,2939.0,square3,j,0.2078,2,N,7.0
NS7,54.0,37.0,52.0,63.0,53.0,63,3002.0,square3,j,0.1954,2,N,7.0
NS7,55.0,40.0,51.0,60.0,54.0,40,3042.0,square1,f,0.2749,0,N,7.0
NS7,56.0,45.0,57.0,63.0,59.0,45,3087.0,square1,f,0.1919,0,N,7.0
NS7,57.0,42.0,49.0,64.0,53.0,42,3129.0,square1,f,0.2088,0,N,7.0
NS7,58.0,39.0,49.0,62.0,52.0,39,3168.0,square1,f,0.1351,0,N,7.0
NS7,59.0,47.0,49.0,67.0,54.0,47,3215.0,square1,f,0.1663,0,N,7.0
NS7,60.0,43.0,53.0,70.0,55.0,43,3258.0,square1,f,0.1841,0,N,7.0
NS7,61.0,41.0,48.0,69.0,52.0,41,3299.0,square1,f,0.1341,0,N,7.0
NS7,62.0,39.0,48.0,65.0,54.0,54,3353.0,square4,r,0.452,3,N,7.0
NS7,63.0,38.0,48.0,64.0,56.0,56,3409.0,square4,r,0.1597,3,N,7.0
NS7,64.0,34.0,46.0,65.0,51.0,51,3460.0,square4,r,0.2094,3,N,7.0
NS7,65.0,43.0,51.0,63.0,53.0,53,3513.0,square4,r,0.1342,3,N,7.0
NS7,66.0,41.0,51.0,64.0,50.0,50,3563.0,square4,r,0.1929,3,N,7.0
NS7,67.0,44.0,51.0,63.0,54.0,54,3617.0,square4,r,0.1662,3,N,7.0
NS7,68.0,42.0,49.0,62.0,48.0,49,3666.0,square2,i,0.1256,1,N,7.0
NS7,69.0,41.0,50.0,63.0,52.0,50,3716.0,square2,i,0.1271,1,N,7.0
NS7,70.0,45.0,45.0,59.0,53.0,45,3761.0,square2,i,0.2281,1,N,7.0
NS7,71.0,44.0,40.0,52.0,52.0,52,3813.0,square3,j,0.1673,2,N,7.0
NS7,72.0,51.0,38.0,55.0,47.0,55,3868.0,square3,j,0.3092,2,N,7.0
NS7,73.0,42.0,36.0,49.0,47.0,49,3917.0,square3,j,0.2521,2,N,7.0
NS7,74.0,44.0,40.0,46.0,48.0,48,3965.0,square4,r,0.4344,3,N,7.0
NS7,75.0,46.0,38.0,45.0,53.0,38,4003.0,square2,i,0.1019,1,N,7.0
NS7,76.0,48.0,44.0,40.0,53.0,48,4051.0,square1,f,0.201,0,N,7.0
NS7,77.0,45.0,42.0,40.0,55.0,45,4096.0,square1,f,0.2268,0,N,7.0
NS7,78.0,41.0,39.0,40.0,56.0,41,4137.0,square1,f,0.2581,0,N,7.0
NS7,79.0,44.0,38.0,41.0,55.0,41,4178.0,square3,j,0.1429,2,N,7.0
NS7,80.0,48.0,49.0,48.0,62.0,62,4240.0,square4,r,0.0674,3,N,7.0
NS7,81.0,44.0,47.0,43.0,61.0,61,4301.0,square4,r,0.1294,3,N,7.0
NS7,82.0,45.0,46.0,38.0,54.0,54,4355.0,square4,r,0.0578,3,N,7.0
NS7,83.0,44.0,40.0,41.0,57.0,40,4395.0,square2,i,0.1274,1,N,7.0
NS7,84.0,47.0,46.0,41.0,53.0,53,4448.0,square4,r,0.0187,3,N,7.0
NS7,85.0,50.0,45.0,45.0,54.0,54,4502.0,square4,r,0.1676,3,N,7.0
NS7,86.0,45.0,43.0,44.0,54.0,54,4556.0,square4,r,0.1787,3,N,7.0
NS7,87.0,43.0,47.0,49.0,55.0,55,4611.0,square4,r,0.0677,3,N,7.0
NS7,88.0,40.0,48.0,44.0,58.0,58,4669.0,square4,r,0.5265,3,N,7.0
NS7,89.0,40.0,44.0,47.0,54.0,54,4723.0,square4,r,0.2255,3,N,7.0
NS7,90.0,38.0,43.0,48.0,55.0,55,4778.0,square4,r,0.1691,3,N,7.0
NS7,91.0,36.0,45.0,43.0,55.0,55,4833.0,square4,r,0.2178,3,N,7.0
NS7,92.0,29.0,44.0,45.0,53.0,53,4886.0,square4,r,0.2518,3,N,7.0
NS7,93.0,33.0,46.0,44.0,57.0,57,4943.0,square4,r,0.2374,3,N,7.0
NS7,94.0,32.0,43.0,52.0,47.0,47,4990.0,square4,r,0.2583,3,N,7.0
NS7,95.0,41.0,46.0,50.0,51.0,41,5031.0,square1,f,0.2287,0,N,7.0
NS7,96.0,38.0,41.0,46.0,52.0,46,5077.0,square3,j,0.1341,2,N,7.0
NS7,97.0,41.0,44.0,40.0,52.0,40,5117.0,square3,j,0.2506,2,N,7.0
NS7,98.0,45.0,41.0,41.0,55.0,41,5158.0,square2,i,0.1692,1,N,7.0
NS7,99.0,39.0,41.0,39.0,53.0,41,5199.0,square2,i,0.1355,1,N,7.0
NS6,0.0,68.0,18.0,30.0,58.0,99999,0.0,invalid,,,-1,N,6.0
NS6,1.0,62.0,23.0,38.0,67.0,67,67.0,square4,i,0.4168,3,N,6.0
NS6,2.0,59.0,30.0,33.0,67.0,59,126.0,square1,j,0.2107,0,N,6.0
NS6,3.0,62.0,27.0,39.0,65.0,39,165.0,square3,r,0.1261,2,N,6.0
NS6,4.0,65.0,22.0,32.0,67.0,22,187.0,square2,f,0.2424,1,N,6.0
NS6,5.0,61.0,28.0,39.0,67.0,67,254.0,square4,i,0.0009,3,N,6.0
NS6,6.0,59.0,28.0,39.0,66.0,66,320.0,square4,i,0.1722,3,N,6.0
NS6,7.0,56.0,30.0,43.0,63.0,63,383.0,square4,i,0.2087,3,N,6.0
NS6,8.0,57.0,26.0,36.0,60.0,60,443.0,square4,i,0.1945,3,N,6.0
NS6,9.0,51.0,30.0,38.0,65.0,65,508.0,square4,i,0.1011,3,N,6.0
NS6,10.0,46.0,26.0,41.0,61.0,61,569.0,square4,i,0.1262,3,N,6.0
NS6,11.0,46.0,30.0,40.0,58.0,58,627.0,square4,i,0.0569,3,N,6.0
NS6,12.0,44.0,27.0,41.0,56.0,56,683.0,square4,i,0.1093,3,N,6.0
NS6,13.0,41.0,32.0,44.0,54.0,54,737.0,square4,i,0.1093,3,N,6.0
NS6,14.0,45.0,36.0,41.0,51.0,51,788.0,square4,i,0.1405,3,N,6.0
NS6,15.0,37.0,34.0,39.0,54.0,54,842.0,square4,i,0.1268,3,N,6.0
NS6,16.0,36.0,37.0,39.0,48.0,48,890.0,square4,i,0.1348,3,N,6.0
NS6,17.0,41.0,39.0,36.0,45.0,41,931.0,square1,j,0.3841,0,N,6.0
NS6,18.0,39.0,38.0,29.0,48.0,39,970.0,square1,j,0.2437,0,N,6.0
NS6,19.0,35.0,40.0,32.0,46.0,40,1010.0,square2,f,0.2495,1,N,6.0
NS6,20.0,41.0,40.0,28.0,55.0,40,1050.0,square2,f,0.2027,1,N,6.0
NS6,21.0,45.0,44.0,27.0,54.0,27,1077.0,square3,r,0.1432,2,N,6.0
NS6,22.0,44.0,51.0,31.0,53.0,31,1108.0,square3,r,0.2094,2,N,6.0
NS6,23.0,44.0,50.0,29.0,53.0,29,1137.0,square3,r,0.2138,2,N,6.0
NS6,24.0,49.0,49.0,35.0,55.0,55,1192.0,square4,i,0.125,3,N,6.0
NS6,25.0,44.0,51.0,36.0,56.0,56,1248.0,square4,i,0.2007,3,N,6.0
NS6,26.0,43.0,46.0,38.0,58.0,58,1306.0,square4,i,0.143,3,N,6.0
NS6,27.0,41.0,44.0,41.0,59.0,59,1365.0,square4,i,0.1934,3,N,6.0
NS6,28.0,38.0,47.0,39.0,58.0,58,1423.0,square4,i,0.1344,3,N,6.0
NS6,29.0,39.0,46.0,37.0,54.0,54,1477.0,square4,i,0.2337,3,N,6.0
NS6,30.0,36.0,49.0,40.0,53.0,53,1530.0,square4,i,0.0681,3,N,6.0
NS6,31.0,37.0,45.0,36.0,55.0,55,1585.0,square4,i,0.0942,3,N,6.0
NS6,32.0,42.0,42.0,40.0,56.0,56,1641.0,square4,i,0.1604,3,N,6.0
NS6,33.0,33.0,44.0,32.0,53.0,53,1694.0,square4,i,0.0743,3,N,6.0
NS6,34.0,32.0,42.0,36.0,49.0,49,1743.0,square4,i,0.0674,3,N,6.0
NS6,35.0,35.0,28.0,38.0,51.0,35,1778.0,square1,j,0.1007,0,N,6.0
NS6,36.0,38.0,28.0,35.0,52.0,38,1816.0,square1,j,0.1511,0,N,6.0
NS6,37.0,44.0,31.0,37.0,55.0,31,1847.0,square2,f,0.1762,1,N,6.0
NS6,38.0,36.0,31.0,36.0,54.0,31,1878.0,square2,f,0.0556,1,N,6.0
NS6,39.0,40.0,29.0,41.0,60.0,41,1919.0,square3,r,0.0606,2,N,6.0
NS6,40.0,46.0,33.0,36.0,62.0,36,1955.0,square3,r,0.0605,2,N,6.0
NS6,41.0,44.0,38.0,34.0,63.0,63,2018.0,square4,i,0.1013,3,N,6.0
NS6,42.0,43.0,32.0,29.0,59.0,59,2077.0,square4,i,0.0755,3,N,6.0
NS6,43.0,47.0,29.0,38.0,61.0,61,2138.0,square4,i,0.0846,3,N,6.0
NS6,44.0,49.0,33.0,36.0,56.0,56,2194.0,square4,i,0.0759,3,N,6.0
NS6,45.0,51.0,29.0,32.0,60.0,60,2254.0,square4,i,0.1601,3,N,6.0
NS6,46.0,52.0,36.0,41.0,64.0,64,2318.0,square4,i,0.0494,3,N,6.0
NS6,47.0,55.0,35.0,46.0,60.0,60,2378.0,square4,i,0.0424,3,N,6.0
NS6,48.0,57.0,34.0,40.0,64.0,64,2442.0,square4,i,0.0866,3,N,6.0
NS6,49.0,54.0,37.0,42.0,59.0,59,2501.0,square4,i,0.1264,3,N,6.0
NS6,50.0,58.0,40.0,35.0,51.0,51,2552.0,square4,i,0.075,3,N,6.0
NS6,51.0,64.0,35.0,36.0,53.0,53,2605.0,square4,i,0.1681,3,N,6.0
NS6,52.0,60.0,37.0,30.0,52.0,52,2657.0,square4,i,0.1347,3,N,6.0
NS6,53.0,63.0,40.0,30.0,54.0,54,2711.0,square4,i,0.1089,3,N,6.0
NS6,54.0,60.0,37.0,30.0,53.0,53,2764.0,square4,i,0.0527,3,N,6.0
NS6,55.0,57.0,40.0,29.0,50.0,50,2814.0,square4,i,0.1586,3,N,6.0
NS6,56.0,58.0,30.0,30.0,46.0,46,2860.0,square4,i,0.126,3,N,6.0
NS6,57.0,64.0,34.0,31.0,45.0,64,2924.0,square1,j,0.1006,0,N,6.0
NS6,58.0,66.0,31.0,34.0,48.0,66,2990.0,square1,j,0.1917,0,N,6.0
NS6,59.0,68.0,31.0,35.0,44.0,68,3058.0,square1,j,0.2088,0,N,6.0
NS6,60.0,65.0,28.0,27.0,49.0,65,3123.0,square1,j,0.1856,0,N,6.0
NS6,61.0,67.0,29.0,25.0,47.0,67,3190.0,square1,j,0.2262,0,N,6.0
NS6,62.0,67.0,31.0,27.0,41.0,67,3257.0,square1,j,0.193,0,N,6.0
NS6,63.0,69.0,32.0,24.0,45.0,69,3326.0,square1,j,0.2174,0,N,6.0
NS6,64.0,72.0,41.0,30.0,50.0,72,3398.0,square1,j,0.1087,0,N,6.0
NS6,65.0,75.0,35.0,33.0,50.0,75,3473.0,square1,j,0.0752,0,N,6.0
NS6,66.0,71.0,37.0,26.0,49.0,71,3544.0,square1,j,0.122,0,N,6.0
NS6,67.0,74.0,34.0,21.0,49.0,74,3618.0,square1,j,0.1101,0,N,6.0
NS6,68.0,81.0,37.0,27.0,50.0,81,3699.0,square1,j,0.1576,0,N,6.0
NS6,69.0,80.0,31.0,25.0,49.0,80,3779.0,square1,j,0.1431,0,N,6.0
NS6,70.0,83.0,33.0,31.0,46.0,83,3862.0,square1,j,0.1337,0,N,6.0
NS6,71.0,75.0,33.0,34.0,53.0,75,3937.0,square1,j,0.1474,0,N,6.0
NS6,72.0,73.0,39.0,32.0,55.0,73,4010.0,square1,j,0.1907,0,N,6.0
NS6,73.0,74.0,40.0,33.0,53.0,74,4084.0,square1,j,0.1345,0,N,6.0
NS6,74.0,73.0,46.0,32.0,50.0,73,4157.0,square1,j,0.1919,0,N,6.0
NS6,75.0,71.0,40.0,32.0,49.0,71,4228.0,square1,j,0.1164,0,N,6.0
NS6,76.0,65.0,43.0,31.0,56.0,65,4293.0,square1,j,0.0713,0,N,6.0
NS6,77.0,66.0,41.0,33.0,56.0,66,4359.0,square1,j,0.1356,0,N,6.0
NS6,78.0,71.0,40.0,38.0,64.0,71,4430.0,square1,j,0.203,0,N,6.0
NS6,79.0,69.0,36.0,35.0,62.0,69,4499.0,square1,j,0.173,0,N,6.0
NS6,80.0,69.0,34.0,37.0,69.0,69,4568.0,square1,j,0.0925,0,N,6.0
NS6,81.0,70.0,37.0,37.0,71.0,70,4638.0,square1,j,0.1326,0,N,6.0
NS6,82.0,68.0,38.0,39.0,66.0,68,4706.0,square1,j,0.1771,0,N,6.0
NS6,83.0,69.0,42.0,41.0,73.0,69,4775.0,square1,j,0.1443,0,N,6.0
NS6,84.0,62.0,42.0,42.0,70.0,62,4837.0,square1,j,0.1424,0,N,6.0
NS6,85.0,57.0,45.0,42.0,77.0,57,4894.0,square1,j,0.175,0,N,6.0
NS6,86.0,58.0,47.0,44.0,70.0,58,4952.0,square1,j,0.1413,0,N,6.0
NS6,87.0,62.0,44.0,52.0,73.0,62,5014.0,square1,j,0.1528,0,N,6.0
NS6,88.0,62.0,45.0,47.0,72.0,62,5076.0,square1,j,0.0854,0,N,6.0
NS6,89.0,59.0,50.0,47.0,73.0,59,5135.0,square1,j,0.1189,0,N,6.0
NS6,90.0,55.0,45.0,44.0,68.0,55,5190.0,square1,j,0.1425,0,N,6.0
NS6,91.0,55.0,51.0,47.0,67.0,55,5245.0,square1,j,0.1999,0,N,6.0
NS6,92.0,62.0,52.0,35.0,69.0,62,5307.0,square1,j,0.067,0,N,6.0
NS6,93.0,59.0,47.0,32.0,68.0,59,5366.0,square1,j,0.0761,0,N,6.0
NS6,94.0,67.0,53.0,44.0,66.0,67,5433.0,square1,j,0.0927,0,N,6.0
NS6,95.0,71.0,44.0,47.0,66.0,71,5504.0,square1,j,0.0579,0,N,6.0
NS6,96.0,68.0,53.0,47.0,66.0,68,5572.0,square1,j,0.1351,0,N,6.0
NS6,97.0,65.0,49.0,44.0,64.0,65,5637.0,square1,j,0.0253,0,N,6.0
NS6,98.0,66.0,54.0,55.0,57.0,66,5703.0,square1,j,0.0354,0,N,6.0
NS6,99.0,69.0,57.0,51.0,56.0,69,5772.0,square1,j,0.0091,0,N,6.0
NS2,0.0,44.0,66.0,42.0,38.0,44,44.0,square1,r,0.6777,0,N,2.0
NS2,1.0,44.0,66.0,47.0,43.0,44,88.0,square1,r,0.1776,0,N,2.0
NS2,2.0,42.0,62.0,53.0,43.0,53,141.0,square3,i,0.0007,2,N,2.0
NS2,3.0,46.0,58.0,48.0,46.0,48,189.0,square3,i,0.0842,2,N,2.0
NS2,4.0,47.0,61.0,51.0,42.0,61,250.0,square2,j,0.1191,1,N,2.0
NS2,5.0,51.0,58.0,50.0,50.0,58,308.0,square2,j,0.1837,1,N,2.0
NS2,6.0,52.0,58.0,43.0,48.0,48,356.0,square4,f,0.0683,3,N,2.0
NS2,7.0,50.0,52.0,43.0,50.0,50,406.0,square4,f,0.0422,3,N,2.0
NS2,8.0,54.0,58.0,41.0,46.0,46,452.0,square4,f,0.1751,3,N,2.0
NS2,9.0,52.0,59.0,42.0,46.0,42,494.0,square3,i,0.2764,2,N,2.0
NS2,10.0,50.0,52.0,37.0,48.0,52,546.0,square2,j,0.0502,1,N,2.0
NS2,11.0,45.0,56.0,38.0,43.0,38,584.0,square3,i,0.0925,2,N,2.0
NS2,12.0,50.0,56.0,37.0,48.0,37,621.0,square3,i,0.1056,2,N,2.0
NS2,13.0,47.0,63.0,36.0,49.0,36,657.0,square3,i,0.1027,2,N,2.0
NS2,14.0,51.0,56.0,39.0,49.0,39,696.0,square3,i,0.084,2,N,2.0
NS2,15.0,46.0,64.0,39.0,50.0,39,735.0,square3,i,0.1093,2,N,2.0
NS2,16.0,51.0,61.0,37.0,47.0,61,796.0,square2,j,0.1223,1,N,2.0
NS2,17.0,59.0,68.0,46.0,53.0,53,849.0,square4,f,0.1594,3,N,2.0
NS2,18.0,53.0,65.0,42.0,49.0,53,902.0,square1,r,0.0673,0,N,2.0
NS2,19.0,52.0,67.0,47.0,49.0,49,951.0,square4,f,0.0421,3,N,2.0
NS2,20.0,56.0,64.0,45.0,48.0,64,1015.0,square2,j,0.0601,1,N,2.0
NS2,21.0,57.0,73.0,46.0,44.0,73,1088.0,square2,j,0.1024,1,N,2.0
NS2,22.0,54.0,76.0,36.0,47.0,76,1164.0,square2,j,0.0931,1,N,2.0
NS2,23.0,55.0,77.0,35.0,42.0,77,1241.0,square2,j,0.017,1,N,2.0
NS2,24.0,53.0,68.0,35.0,46.0,68,1309.0,square2,j,0.0999,1,N,2.0
NS2,25.0,55.0,73.0,29.0,45.0,73,1382.0,square2,j,0.1177,1,N,2.0
NS2,26.0,52.0,69.0,30.0,49.0,69,1451.0,square2,j,0.0352,1,N,2.0
NS2,27.0,52.0,62.0,33.0,52.0,62,1513.0,square2,j,0.1338,1,N,2.0
NS2,28.0,58.0,62.0,33.0,47.0,62,1575.0,square2,j,0.7757,1,N,2.0
NS2,29.0,56.0,65.0,38.0,46.0,65,1640.0,square2,j,0.1599,1,N,2.0
NS2,30.0,56.0,66.0,37.0,50.0,66,1706.0,square2,j,0.1753,1,N,2.0
NS2,31.0,50.0,64.0,35.0,45.0,64,1770.0,square2,j,0.209,1,N,2.0
NS2,32.0,56.0,62.0,38.0,45.0,62,1832.0,square2,j,0.1753,1,N,2.0
NS2,33.0,59.0,58.0,34.0,48.0,58,1890.0,square2,j,0.2257,1,N,2.0
NS2,34.0,55.0,59.0,36.0,48.0,59,1949.0,square2,j,0.1673,1,N,2.0
NS2,35.0,54.0,57.0,33.0,48.0,33,1982.0,square3,i,0.4228,2,N,2.0
NS2,36.0,53.0,58.0,34.0,51.0,53,2035.0,square1,r,0.1824,0,N,2.0
NS2,37.0,46.0,53.0,32.0,55.0,46,2081.0,square1,r,0.0921,0,N,2.0
NS2,38.0,46.0,59.0,37.0,49.0,49,2130.0,square4,f,0.026,3,N,2.0
NS2,39.0,53.0,59.0,36.0,48.0,48,2178.0,square4,f,0.2001,3,N,2.0
NS2,40.0,46.0,60.0,37.0,42.0,60,2238.0,square2,j,0.1179,1,N,2.0
NS2,41.0,51.0,57.0,42.0,41.0,57,2295.0,square2,j,0.0336,1,N,2.0
NS2,42.0,49.0,53.0,46.0,41.0,53,2348.0,square2,j,0.1177,1,N,2.0
NS2,43.0,49.0,57.0,43.0,39.0,43,2391.0,square3,i,0.0894,2,N,2.0
NS2,44.0,48.0,55.0,48.0,37.0,55,2446.0,square2,j,0.0249,1,N,2.0
NS2,45.0,49.0,52.0,34.0,36.0,49,2495.0,square1,r,0.2326,0,N,2.0
NS2,46.0,50.0,46.0,39.0,34.0,34,2529.0,square4,f,0.0199,3,N,2.0
NS2,47.0,55.0,48.0,39.0,26.0,48,2577.0,square2,j,0.017,1,N,2.0
NS2,48.0,55.0,42.0,41.0,31.0,42,2619.0,square2,j,0.5692,1,N,2.0
NS2,49.0,55.0,41.0,36.0,36.0,36,2655.0,square3,i,0.2755,2,N,2.0
NS2,50.0,50.0,43.0,43.0,36.0,50,2705.0,square1,r,0.2011,0,N,2.0
NS2,51.0,49.0,40.0,44.0,32.0,49,2754.0,square1,r,0.225,0,N,2.0
NS2,52.0,54.0,45.0,40.0,32.0,32,2786.0,square4,f,0.1759,3,N,2.0
NS2,53.0,55.0,44.0,42.0,38.0,44,2830.0,square2,j,0.0834,1,N,2.0
NS2,54.0,57.0,44.0,42.0,37.0,44,2874.0,square2,j,0.1783,1,N,2.0
NS2,55.0,56.0,47.0,35.0,29.0,47,2921.0,square2,j,0.15,1,N,2.0
NS2,56.0,56.0,45.0,31.0,36.0,45,2966.0,square2,j,0.2351,1,N,2.0
NS2,57.0,48.0,43.0,33.0,36.0,48,3014.0,square1,r,0.1012,0,N,2.0
NS2,58.0,46.0,44.0,30.0,40.0,46,3060.0,square1,r,0.0521,0,N,2.0
NS2,59.0,45.0,36.0,33.0,37.0,45,3105.0,square1,r,0.1177,0,N,2.0
NS2,60.0,45.0,37.0,32.0,38.0,45,3150.0,square1,r,0.1848,0,N,2.0
NS2,61.0,47.0,37.0,31.0,37.0,47,3197.0,square1,r,0.1011,0,N,2.0
NS2,62.0,46.0,36.0,28.0,34.0,46,3243.0,square1,r,0.2441,0,N,2.0
NS2,63.0,53.0,36.0,26.0,43.0,26,3269.0,square3,i,0.1027,2,N,2.0
NS2,64.0,53.0,37.0,24.0,45.0,45,3314.0,square4,f,0.2336,3,N,2.0
NS2,65.0,49.0,34.0,27.0,49.0,34,3348.0,square2,j,0.0592,1,N,2.0
NS2,66.0,50.0,30.0,26.0,57.0,57,3405.0,square4,f,0.0854,3,N,2.0
NS2,67.0,49.0,28.0,32.0,55.0,55,3460.0,square4,f,0.2011,3,N,2.0
NS2,68.0,53.0,23.0,35.0,55.0,55,3515.0,square4,f,0.1439,3,N,2.0
NS2,69.0,49.0,29.0,33.0,51.0,51,3566.0,square4,f,0.1424,3,N,2.0
NS2,70.0,54.0,27.0,30.0,60.0,60,3626.0,square4,f,0.1085,3,N,2.0
NS2,71.0,57.0,28.0,31.0,59.0,59,3685.0,square4,f,0.178,3,N,2.0
NS2,72.0,55.0,25.0,29.0,61.0,61,3746.0,square4,f,0.0594,3,N,2.0
NS2,73.0,63.0,29.0,31.0,56.0,56,3802.0,square4,f,0.1,3,N,2.0
NS2,74.0,59.0,34.0,34.0,58.0,58,3860.0,square4,f,0.0195,3,N,2.0
NS2,75.0,58.0,37.0,31.0,53.0,53,3913.0,square4,f,0.1341,3,N,2.0
NS2,76.0,62.0,41.0,25.0,53.0,53,3966.0,square4,f,0.0645,3,N,2.0
NS2,77.0,60.0,37.0,30.0,52.0,52,4018.0,square4,f,0.1346,3,N,2.0
NS2,78.0,63.0,37.0,37.0,50.0,50,4068.0,square4,f,0.0181,3,N,2.0
NS2,79.0,66.0,44.0,32.0,47.0,47,4115.0,square4,f,0.0252,3,N,2.0
NS2,80.0,65.0,41.0,30.0,45.0,45,4160.0,square4,f,0.1508,3,N,2.0
NS2,81.0,60.0,37.0,26.0,49.0,49,4209.0,square4,f,0.1177,3,N,2.0
NS2,82.0,68.0,38.0,28.0,46.0,46,4255.0,square4,f,0.0623,3,N,2.0
NS2,83.0,63.0,42.0,30.0,49.0,49,4304.0,square4,f,0.0925,3,N,2.0
NS2,84.0,71.0,41.0,37.0,51.0,51,4355.0,square4,f,0.1015,3,N,2.0
NS2,85.0,63.0,47.0,29.0,40.0,40,4395.0,square4,f,0.1013,3,N,2.0
NS2,86.0,67.0,42.0,36.0,44.0,44,4439.0,square4,f,0.0496,3,N,2.0
NS2,87.0,62.0,45.0,31.0,41.0,62,4501.0,square1,r,0.9535,0,N,2.0
NS2,88.0,63.0,39.0,32.0,44.0,63,4564.0,square1,r,0.6649,0,N,2.0
NS2,89.0,66.0,39.0,37.0,39.0,66,4630.0,square1,r,0.2828,0,N,2.0
NS2,90.0,53.0,38.0,35.0,40.0,53,4683.0,square1,r,0.2015,0,N,2.0
NS2,91.0,57.0,39.0,38.0,43.0,57,4740.0,square1,r,0.1929,0,N,2.0
NS2,92.0,53.0,36.0,40.0,47.0,53,4793.0,square1,r,0.1432,0,N,2.0
NS2,93.0,47.0,39.0,43.0,38.0,47,4840.0,square1,r,0.1938,0,N,2.0
NS2,94.0,45.0,33.0,46.0,40.0,45,4885.0,square1,r,0.0923,0,N,2.0
NS2,95.0,49.0,38.0,53.0,36.0,53,4938.0,square3,i,0.042,2,N,2.0
NS2,96.0,50.0,39.0,46.0,34.0,46,4984.0,square3,i,0.0928,2,N,2.0
NS2,97.0,57.0,37.0,44.0,41.0,37,5021.0,square2,j,0.0344,1,N,2.0
NS2,98.0,55.0,43.0,39.0,43.0,39,5060.0,square3,i,0.6512,2,N,2.0
NS2,99.0,56.0,46.0,41.0,41.0,41,5101.0,square4,f,0.1009,3,N,2.0
V1,0.0,46.0,61.0,52.0,71.0,99999,0.0,invalid,,,-1,V,1.0
V1,1.0,45.0,63.0,54.0,78.0,45,45.0,square1,j,0.2565,0,V,1.0
V1,2.0,51.0,58.0,59.0,77.0,77,122.0,square4,i,0.0589,3,V,1.0
V1,3.0,53.0,65.0,56.0,75.0,56,178.0,square3,r,0.1594,2,V,1.0
V1,4.0,49.0,68.0,53.0,72.0,68,246.0,square2,f,0.1088,1,V,1.0
V1,5.0,47.0,70.0,59.0,76.0,76,322.0,square4,i,0.1848,3,V,1.0
V1,6.0,55.0,63.0,54.0,76.0,76,398.0,square4,i,0.1674,3,V,1.0
V1,7.0,47.0,67.0,55.0,74.0,74,472.0,square4,i,0.1589,3,V,1.0
V1,8.0,47.0,65.0,46.0,76.0,76,548.0,square4,i,0.1182,3,V,1.0
V1,9.0,46.0,68.0,59.0,78.0,78,626.0,square4,i,0.1686,3,V,1.0
V1,10.0,58.0,67.0,58.0,79.0,79,705.0,square4,i,0.1239,3,V,1.0
V1,11.0,44.0,61.0,54.0,72.0,72,777.0,square4,i,0.1664,3,V,1.0
V1,12.0,44.0,65.0,56.0,75.0,75,852.0,square4,i,0.1243,3,V,1.0
V1,13.0,47.0,63.0,53.0,73.0,73,925.0,square4,i,0.1266,3,V,1.0
V1,14.0,49.0,66.0,56.0,75.0,75,1000.0,square4,i,0.1421,3,V,1.0
V1,15.0,49.0,66.0,52.0,79.0,79,1079.0,square4,i,0.1244,3,V,1.0
V1,16.0,51.0,61.0,48.0,72.0,72,1151.0,square4,i,0.1258,3,V,1.0
V1,17.0,46.0,61.0,59.0,71.0,71,1222.0,square4,i,0.0764,3,V,1.0
V1,18.0,45.0,61.0,53.0,72.0,72,1294.0,square4,i,0.1182,3,V,1.0
V1,19.0,49.0,63.0,54.0,76.0,76,1370.0,square4,i,0.1353,3,V,1.0
V1,20.0,46.0,66.0,52.0,72.0,72,1442.0,square4,i,0.1583,3,V,1.0
V1,21.0,50.0,65.0,51.0,73.0,73,1515.0,square4,i,0.1211,3,V,1.0
V1,22.0,56.0,62.0,56.0,77.0,77,1592.0,square4,i,0.1169,3,V,1.0
V1,23.0,45.0,67.0,54.0,83.0,83,1675.0,square4,i,0.1101,3,V,1.0
V1,24.0,46.0,69.0,57.0,71.0,71,1746.0,square4,i,0.1763,3,V,1.0
V1,25.0,41.0,65.0,55.0,76.0,76,1822.0,square4,i,0.1423,3,V,1.0
V1,26.0,51.0,60.0,55.0,74.0,74,1896.0,square4,i,0.168,3,V,1.0
V1,27.0,52.0,63.0,56.0,73.0,63,1959.0,square2,f,0.0589,1,V,1.0
V1,28.0,50.0,68.0,50.0,76.0,76,2035.0,square4,i,0.0924,3,V,1.0
V1,29.0,51.0,60.0,54.0,74.0,51,2086.0,square1,j,0.1856,0,V,1.0
V1,30.0,35.0,67.0,57.0,40.0,40,2126.0,square4,i,0.5593,3,V,1.0
V1,31.0,38.0,60.0,52.0,35.0,52,2178.0,square3,r,0.4348,2,V,1.0
V1,32.0,37.0,67.0,52.0,41.0,67,2245.0,square2,f,0.2678,1,V,1.0
V1,33.0,37.0,62.0,53.0,42.0,62,2307.0,square2,f,0.2198,1,V,1.0
V1,34.0,35.0,58.0,54.0,43.0,58,2365.0,square2,f,0.2103,1,V,1.0
V1,35.0,40.0,60.0,50.0,44.0,60,2425.0,square2,f,0.2471,1,V,1.0
V1,36.0,39.0,66.0,50.0,39.0,66,2491.0,square2,f,0.2164,1,V,1.0
V1,37.0,32.0,59.0,54.0,38.0,59,2550.0,square2,f,0.2003,1,V,1.0
V1,38.0,32.0,64.0,50.0,39.0,64,2614.0,square2,f,0.0761,1,V,1.0
V1,39.0,37.0,60.0,45.0,40.0,60,2674.0,square2,f,0.0763,1,V,1.0
V1,40.0,35.0,61.0,54.0,43.0,61,2735.0,square2,f,0.0676,1,V,1.0
V1,41.0,33.0,62.0,49.0,42.0,62,2797.0,square2,f,0.0813,1,V,1.0
V1,42.0,31.0,70.0,52.0,42.0,70,2867.0,square2,f,0.0691,1,V,1.0
V1,43.0,37.0,59.0,48.0,41.0,59,2926.0,square2,f,0.0437,1,V,1.0
V1,44.0,39.0,63.0,53.0,44.0,63,2989.0,square2,f,0.1755,1,V,1.0
V1,45.0,37.0,62.0,48.0,41.0,62,3051.0,square2,f,0.1175,1,V,1.0
V1,46.0,34.0,65.0,52.0,39.0,65,3116.0,square2,f,0.1514,1,V,1.0
V1,47.0,42.0,59.0,52.0,43.0,59,3175.0,square2,f,0.1167,1,V,1.0
V1,48.0,39.0,62.0,50.0,38.0,62,3237.0,square2,f,0.0943,1,V,1.0
V1,49.0,33.0,63.0,49.0,40.0,63,3300.0,square2,f,0.1507,1,V,1.0
V1,50.0,38.0,66.0,54.0,37.0,66,3366.0,square2,f,0.1853,1,V,1.0
V1,51.0,33.0,66.0,50.0,37.0,33,3399.0,square1,j,0.1108,0,V,1.0
V1,52.0,41.0,65.0,55.0,44.0,65,3464.0,square2,f,0.0924,1,V,1.0
V1,53.0,75.0,50.0,46.0,60.0,46,3510.0,square3,r,0.5097,2,V,1.0
V1,54.0,74.0,53.0,45.0,61.0,53,3563.0,square2,f,0.0425,1,V,1.0
V1,55.0,74.0,54.0,43.0,65.0,65,3628.0,square4,i,0.3316,3,V,1.0
V1,56.0,73.0,54.0,44.0,56.0,54,3682.0,square2,f,0.0922,1,V,1.0
V1,57.0,67.0,58.0,52.0,63.0,63,3745.0,square4,i,0.1431,3,V,1.0
V1,58.0,72.0,51.0,43.0,62.0,62,3807.0,square4,i,0.1607,3,V,1.0
V1,59.0,68.0,47.0,49.0,56.0,56,3863.0,square4,i,0.1592,3,V,1.0
V1,60.0,72.0,55.0,46.0,65.0,65,3928.0,square4,i,0.0644,3,V,1.0
V1,61.0,76.0,50.0,46.0,62.0,62,3990.0,square4,i,0.1514,3,V,1.0
V1,62.0,77.0,58.0,46.0,66.0,66,4056.0,square4,i,0.0764,3,V,1.0
V1,63.0,72.0,53.0,48.0,66.0,66,4122.0,square4,i,0.1759,3,V,1.0
V1,64.0,70.0,49.0,49.0,60.0,60,4182.0,square4,i,0.1613,3,V,1.0
V1,65.0,68.0,49.0,46.0,66.0,66,4248.0,square4,i,0.133,3,V,1.0
V1,66.0,77.0,52.0,41.0,64.0,64,4312.0,square4,i,0.1116,3,V,1.0
V1,67.0,74.0,56.0,42.0,69.0,69,4381.0,square4,i,0.1332,3,V,1.0
V1,68.0,77.0,50.0,46.0,68.0,68,4449.0,square4,i,0.1024,3,V,1.0
V1,69.0,76.0,48.0,45.0,63.0,63,4512.0,square4,i,0.0605,3,V,1.0
V1,70.0,71.0,53.0,50.0,65.0,65,4577.0,square4,i,0.1171,3,V,1.0
V1,71.0,70.0,56.0,44.0,59.0,59,4636.0,square4,i,0.1744,3,V,1.0
V1,72.0,74.0,54.0,55.0,61.0,61,4697.0,square4,i,0.0197,3,V,1.0
V1,73.0,73.0,53.0,47.0,61.0,61,4758.0,square4,i,0.1361,3,V,1.0
V1,74.0,71.0,53.0,51.0,65.0,65,4823.0,square4,i,0.0008,3,V,1.0
V1,75.0,72.0,51.0,48.0,64.0,64,4887.0,square4,i,0.0618,3,V,1.0
V1,76.0,72.0,53.0,49.0,62.0,62,4949.0,square4,i,0.5994,3,V,1.0
V1,77.0,62.0,76.0,64.0,86.0,86,5035.0,square4,i,0.384,3,V,1.0
V1,78.0,61.0,74.0,63.0,87.0,87,5122.0,square4,i,0.3603,3,V,1.0
V1,79.0,56.0,78.0,67.0,89.0,89,5211.0,square4,i,0.3351,3,V,1.0
V1,80.0,59.0,75.0,63.0,84.0,84,5295.0,square4,i,0.1914,3,V,1.0
V1,81.0,63.0,74.0,68.0,82.0,82,5377.0,square4,i,0.1609,3,V,1.0
V1,82.0,59.0,75.0,67.0,80.0,80,5457.0,square4,i,0.1246,3,V,1.0
V1,83.0,58.0,77.0,63.0,82.0,82,5539.0,square4,i,0.0334,3,V,1.0
V1,84.0,57.0,76.0,64.0,87.0,87,5626.0,square4,i,0.0187,3,V,1.0
V1,85.0,61.0,73.0,66.0,83.0,83,5709.0,square4,i,0.0431,3,V,1.0
V1,86.0,60.0,71.0,66.0,85.0,85,5794.0,square4,i,0.1256,3,V,1.0
V1,87.0,61.0,80.0,73.0,84.0,84,5878.0,square4,i,0.3861,3,V,1.0
V1,88.0,67.0,77.0,67.0,85.0,85,5963.0,square4,i,0.0009,3,V,1.0
V1,89.0,60.0,79.0,63.0,86.0,86,6049.0,square4,i,0.111,3,V,1.0
V1,90.0,60.0,74.0,66.0,88.0,88,6137.0,square4,i,0.0009,3,V,1.0
V1,91.0,57.0,81.0,61.0,79.0,79,6216.0,square4,i,0.0849,3,V,1.0
V1,92.0,61.0,78.0,61.0,84.0,84,6300.0,square4,i,0.4821,3,V,1.0
V1,93.0,64.0,72.0,69.0,83.0,83,6383.0,square4,i,0.0758,3,V,1.0
V1,94.0,64.0,73.0,68.0,83.0,83,6466.0,square4,i,0.4256,3,V,1.0
V1,95.0,61.0,69.0,68.0,87.0,87,6553.0,square4,i,0.0433,3,V,1.0
V1,96.0,55.0,77.0,65.0,88.0,88,6641.0,square4,i,0.0093,3,V,1.0
V1,97.0,61.0,75.0,63.0,82.0,82,6723.0,square4,i,0.0831,3,V,1.0
V1,98.0,59.0,71.0,66.0,82.0,82,6805.0,square4,i,0.0047,3,V,1.0
V1,99.0,61.0,69.0,67.0,84.0,84,6889.0,square4,i,0.0507,3,V,1.0
V10,0.0,28.0,21.0,37.0,46.0,37,37.0,square3,f,1.2284,2,V,10.0
V10,1.0,26.0,19.0,41.0,49.0,26,63.0,square1,r,0.1549,0,V,10.0
V10,2.0,29.0,20.0,43.0,48.0,43,106.0,square3,f,0.1246,2,V,10.0
V10,3.0,27.0,27.0,37.0,44.0,27,133.0,square2,i,0.192,1,V,10.0
V10,4.0,28.0,16.0,36.0,47.0,36,169.0,square3,f,0.1422,2,V,10.0
V10,5.0,33.0,25.0,42.0,54.0,54,223.0,square4,j,0.0598,3,V,10.0
V10,6.0,28.0,19.0,35.0,45.0,35,258.0,square3,f,0.168,2,V,10.0
V10,7.0,30.0,24.0,35.0,49.0,30,288.0,square1,r,0.1844,0,V,10.0
V10,8.0,37.0,29.0,41.0,47.0,29,317.0,square2,i,0.2089,1,V,10.0
V10,9.0,28.0,21.0,41.0,48.0,48,365.0,square4,j,0.1433,3,V,10.0
V10,10.0,27.0,22.0,39.0,42.0,39,404.0,square3,f,0.2426,2,V,10.0
V10,11.0,32.0,16.0,41.0,48.0,48,452.0,square4,j,0.1491,3,V,10.0
V10,12.0,34.0,15.0,33.0,49.0,34,486.0,square1,r,0.1344,0,V,10.0
V10,13.0,36.0,19.0,41.0,45.0,45,531.0,square4,j,0.0088,3,V,10.0
V10,14.0,28.0,23.0,35.0,53.0,23,554.0,square2,i,0.0009,1,V,10.0
V10,15.0,26.0,28.0,40.0,50.0,50,604.0,square4,j,0.0039,3,V,10.0
V10,16.0,30.0,25.0,42.0,47.0,47,651.0,square4,j,0.1693,3,V,10.0
V10,17.0,31.0,19.0,38.0,50.0,50,701.0,square4,j,0.1102,3,V,10.0
V10,18.0,34.0,21.0,35.0,48.0,48,749.0,square4,j,0.142,3,V,10.0
V10,19.0,31.0,24.0,39.0,46.0,46,795.0,square4,j,0.1683,3,V,10.0
V10,20.0,28.0,22.0,42.0,47.0,47,842.0,square4,j,0.1597,3,V,10.0
V10,21.0,24.0,20.0,41.0,47.0,47,889.0,square4,j,0.0516,3,V,10.0
V10,22.0,32.0,22.0,34.0,44.0,44,933.0,square4,j,0.0046,3,V,10.0
V10,23.0,29.0,23.0,37.0,47.0,47,980.0,square4,j,0.0008,3,V,10.0
V10,24.0,25.0,25.0,38.0,46.0,46,1026.0,square4,j,0.4679,3,V,10.0
V10,25.0,30.0,24.0,41.0,45.0,45,1071.0,square4,j,0.1591,3,V,10.0
V10,26.0,32.0,17.0,38.0,49.0,49,1120.0,square4,j,0.0426,3,V,10.0
V10,27.0,34.0,21.0,38.0,47.0,47,1167.0,square4,j,0.0586,3,V,10.0
V10,28.0,29.0,21.0,37.0,45.0,45,1212.0,square4,j,0.5097,3,V,10.0
V10,29.0,30.0,20.0,31.0,47.0,47,1259.0,square4,j,0.1813,3,V,10.0
V10,30.0,28.0,21.0,35.0,44.0,44,1303.0,square4,j,0.0765,3,V,10.0
V10,31.0,36.0,25.0,14.0,8.0,8,1311.0,square4,j,0.051,3,V,10.0
V10,32.0,38.0,27.0,19.0,11.0,38,1349.0,square1,r,0.1342,0,V,10.0
V10,33.0,39.0,21.0,20.0,13.0,20,1369.0,square3,f,0.0193,2,V,10.0
V10,34.0,34.0,24.0,20.0,10.0,24,1393.0,square2,i,0.4761,1,V,10.0
V10,35.0,44.0,29.0,17.0,11.0,44,1437.0,square1,r,0.0691,0,V,10.0
V10,36.0,33.0,30.0,17.0,9.0,33,1470.0,square1,r,0.1794,0,V,10.0
V10,37.0,31.0,27.0,12.0,6.0,6,1476.0,square4,j,0.1442,3,V,10.0
V10,38.0,34.0,29.0,15.0,10.0,15,1491.0,square3,f,0.0615,2,V,10.0
V10,39.0,35.0,21.0,19.0,5.0,21,1512.0,square2,i,0.1259,1,V,10.0
V10,40.0,32.0,26.0,18.0,6.0,32,1544.0,square1,r,0.0758,0,V,10.0
V10,41.0,34.0,32.0,13.0,9.0,34,1578.0,square1,r,0.078,0,V,10.0
V10,42.0,35.0,30.0,16.0,8.0,8,1586.0,square4,j,0.0919,3,V,10.0
V10,43.0,38.0,32.0,16.0,8.0,38,1624.0,square1,r,0.576,0,V,10.0
V10,44.0,34.0,20.0,18.0,3.0,34,1658.0,square1,r,0.1015,0,V,10.0
V10,45.0,38.0,22.0,23.0,9.0,38,1696.0,square1,r,0.1426,0,V,10.0
V10,46.0,36.0,28.0,16.0,10.0,36,1732.0,square1,r,0.0007,0,V,10.0
V10,47.0,36.0,27.0,13.0,8.0,36,1768.0,square1,r,0.5182,0,V,10.0
V10,48.0,35.0,27.0,14.0,12.0,35,1803.0,square1,r,0.116,0,V,10.0
V10,49.0,33.0,28.0,16.0,10.0,33,1836.0,square1,r,0.0354,0,V,10.0
V10,50.0,31.0,29.0,19.0,8.0,31,1867.0,square1,r,0.0336,0,V,10.0
V10,51.0,32.0,21.0,20.0,12.0,32,1899.0,square1,r,0.0843,0,V,10.0
V10,52.0,29.0,25.0,21.0,10.0,29,1928.0,square1,r,0.1434,0,V,10.0
V10,53.0,39.0,29.0,23.0,2.0,23,1951.0,square3,f,0.3941,2,V,10.0
V10,54.0,33.0,28.0,19.0,7.0,28,1979.0,square2,i,0.0008,1,V,10.0
V10,55.0,34.0,24.0,15.0,8.0,8,1987.0,square4,j,0.1165,3,V,10.0
V10,56.0,35.0,20.0,21.0,9.0,20,2007.0,square2,i,0.0845,1,V,10.0
V10,57.0,33.0,27.0,19.0,7.0,33,2040.0,square1,r,0.0422,0,V,10.0
V10,58.0,38.0,24.0,16.0,7.0,38,2078.0,square1,r,0.091,0,V,10.0
V10,59.0,34.0,29.0,15.0,5.0,34,2112.0,square1,r,0.0256,0,V,10.0
V10,60.0,34.0,22.0,19.0,9.0,34,2146.0,square1,r,0.0686,0,V,10.0
V10,61.0,39.0,31.0,20.0,10.0,39,2185.0,square1,r,0.0434,0,V,10.0
V10,62.0,35.0,24.0,18.0,6.0,35,2220.0,square1,r,0.0355,0,V,10.0
V10,63.0,35.0,26.0,18.0,9.0,35,2255.0,square1,r,0.0736,0,V,10.0
V10,64.0,31.0,55.0,23.0,23.0,31,2286.0,square1,r,0.0838,0,V,10.0
V10,65.0,35.0,50.0,22.0,27.0,35,2321.0,square1,r,0.0686,0,V,10.0
V10,66.0,35.0,53.0,25.0,29.0,35,2356.0,square1,r,0.0937,0,V,10.0
V10,67.0,38.0,44.0,17.0,29.0,38,2394.0,square1,r,0.0588,0,V,10.0
V10,68.0,36.0,48.0,22.0,27.0,36,2430.0,square1,r,0.0041,0,V,10.0
V10,69.0,41.0,53.0,17.0,28.0,53,2483.0,square2,i,0.0846,1,V,10.0
V10,70.0,40.0,48.0,23.0,28.0,48,2531.0,square2,i,0.1838,1,V,10.0
V10,71.0,39.0,43.0,24.0,20.0,20,2551.0,square4,j,0.0349,3,V,10.0
V10,72.0,36.0,49.0,19.0,25.0,49,2600.0,square2,i,0.0334,1,V,10.0
V10,73.0,39.0,49.0,23.0,32.0,23,2623.0,square3,f,0.0091,2,V,10.0
V10,74.0,36.0,44.0,17.0,29.0,44,2667.0,square2,i,0.6519,1,V,10.0
V10,75.0,37.0,46.0,20.0,30.0,37,2704.0,square1,r,0.3595,0,V,10.0
V10,76.0,38.0,47.0,23.0,30.0,47,2751.0,square2,i,0.1672,1,V,10.0
V10,77.0,36.0,49.0,22.0,32.0,49,2800.0,square2,i,0.1094,1,V,10.0
V10,78.0,41.0,44.0,19.0,27.0,44,2844.0,square2,i,0.1513,1,V,10.0
V10,79.0,41.0,48.0,22.0,27.0,48,2892.0,square2,i,0.1525,1,V,10.0
V10,80.0,34.0,44.0,26.0,29.0,44,2936.0,square2,i,0.1425,1,V,10.0
V10,81.0,38.0,47.0,18.0,29.0,47,2983.0,square2,i,0.0727,1,V,10.0
V10,82.0,43.0,43.0,23.0,28.0,43,3026.0,square2,i,0.0846,1,V,10.0
V10,83.0,34.0,51.0,23.0,26.0,51,3077.0,square2,i,0.1004,1,V,10.0
V10,84.0,36.0,46.0,18.0,25.0,46,3123.0,square2,i,0.1263,1,V,10.0
V10,85.0,39.0,46.0,25.0,26.0,26,3149.0,square4,j,0.1186,3,V,10.0
V10,86.0,39.0,50.0,27.0,27.0,27,3176.0,square3,f,0.0521,2,V,10.0
V10,87.0,38.0,46.0,20.0,30.0,46,3222.0,square2,i,0.1506,1,V,10.0
V10,88.0,37.0,49.0,22.0,28.0,37,3259.0,square1,r,0.0007,0,V,10.0
V10,89.0,34.0,51.0,25.0,26.0,51,3310.0,square2,i,0.0758,1,V,10.0
V10,90.0,41.0,49.0,22.0,29.0,49,3359.0,square2,i,0.1589,1,V,10.0
V10,91.0,37.0,45.0,26.0,32.0,45,3404.0,square2,i,0.0949,1,V,10.0
V10,92.0,42.0,42.0,27.0,28.0,42,3446.0,square2,i,0.2169,1,V,10.0
V10,93.0,41.0,48.0,19.0,36.0,48,3494.0,square2,i,0.1426,1,V,10.0
V10,94.0,43.0,49.0,23.0,31.0,49,3543.0,square2,i,0.151,1,V,10.0
V10,95.0,39.0,46.0,18.0,27.0,46,3589.0,square2,i,0.192,1,V,10.0
V10,96.0,37.0,48.0,24.0,27.0,48,3637.0,square2,i,0.167,1,V,10.0
V10,97.0,42.0,50.0,23.0,31.0,50,3687.0,square2,i,0.2425,1,V,10.0
V10,98.0,33.0,47.0,25.0,32.0,47,3734.0,square2,i,0.2089,1,V,10.0
V10,99.0,39.0,48.0,23.0,32.0,48,3782.0,square2,i,0.2427,1,V,10.0
V3,0.0,62.0,45.0,70.0,53.0,62,62.0,square1,i,0.662,0,V,3.0
V3,1.0,63.0,47.0,76.0,60.0,76,138.0,square3,j,0.0689,2,V,3.0
V3,2.0,65.0,54.0,73.0,57.0,65,203.0,square1,i,0.0455,0,V,3.0
V3,3.0,68.0,51.0,71.0,51.0,51,254.0,square2,f,0.0596,1,V,3.0
V3,4.0,61.0,49.0,75.0,53.0,61,315.0,square1,i,0.051,0,V,3.0
V3,5.0,65.0,47.0,74.0,50.0,50,365.0,square4,r,0.0483,3,V,3.0
V3,6.0,61.0,51.0,72.0,57.0,72,437.0,square3,j,0.0497,2,V,3.0
V3,7.0,67.0,49.0,75.0,55.0,49,486.0,square2,f,0.0439,1,V,3.0
V3,8.0,64.0,48.0,76.0,56.0,76,562.0,square3,j,0.1258,2,V,3.0
V3,9.0,67.0,49.0,71.0,56.0,56,618.0,square4,r,0.5588,3,V,3.0
V3,10.0,65.0,50.0,71.0,56.0,71,689.0,square3,j,0.1004,2,V,3.0
V3,11.0,63.0,43.0,78.0,58.0,63,752.0,square1,i,0.0848,0,V,3.0
V3,12.0,66.0,53.0,73.0,54.0,73,825.0,square3,j,0.0174,2,V,3.0
V3,13.0,64.0,46.0,78.0,51.0,78,903.0,square3,j,0.0935,2,V,3.0
V3,14.0,67.0,51.0,71.0,58.0,71,974.0,square3,j,0.0341,2,V,3.0
V3,15.0,61.0,50.0,73.0,54.0,73,1047.0,square3,j,0.0918,2,V,3.0
V3,16.0,64.0,52.0,74.0,54.0,74,1121.0,square3,j,0.026,2,V,3.0
V3,17.0,61.0,48.0,74.0,55.0,74,1195.0,square3,j,0.0666,2,V,3.0
V3,18.0,65.0,50.0,70.0,59.0,70,1265.0,square3,j,0.0612,2,V,3.0
V3,19.0,64.0,52.0,76.0,56.0,76,1341.0,square3,j,0.0168,2,V,3.0
V3,20.0,64.0,50.0,69.0,58.0,50,1391.0,square2,f,0.0167,1,V,3.0
V3,21.0,66.0,50.0,72.0,56.0,72,1463.0,square3,j,0.0194,2,V,3.0
V3,22.0,43.0,48.0,40.0,62.0,62,1525.0,square4,r,0.0557,3,V,3.0
V3,23.0,41.0,51.0,35.0,59.0,35,1560.0,square3,j,0.6259,2,V,3.0
V3,24.0,51.0,51.0,37.0,60.0,51,1611.0,square1,i,0.0247,0,V,3.0
V3,25.0,45.0,53.0,36.0,57.0,57,1668.0,square4,r,0.027,3,V,3.0
V3,26.0,44.0,51.0,38.0,59.0,59,1727.0,square4,r,0.1193,3,V,3.0
V3,27.0,43.0,51.0,34.0,66.0,66,1793.0,square4,r,0.1016,3,V,3.0
V3,28.0,47.0,51.0,40.0,67.0,67,1860.0,square4,r,0.1079,3,V,3.0
V3,29.0,42.0,55.0,35.0,65.0,65,1925.0,square4,r,0.0775,3,V,3.0
V3,30.0,49.0,54.0,36.0,62.0,62,1987.0,square4,r,0.0844,3,V,3.0
V3,31.0,50.0,53.0,42.0,66.0,66,2053.0,square4,r,0.0519,3,V,3.0
V3,32.0,47.0,53.0,34.0,58.0,58,2111.0,square4,r,0.175,3,V,3.0
V3,33.0,45.0,56.0,34.0,62.0,62,2173.0,square4,r,0.1095,3,V,3.0
V3,34.0,48.0,54.0,38.0,64.0,48,2221.0,square1,i,0.0501,0,V,3.0
V3,35.0,39.0,55.0,42.0,65.0,65,2286.0,square4,r,0.0421,3,V,3.0
V3,36.0,46.0,57.0,41.0,63.0,41,2327.0,square3,j,0.4743,2,V,3.0
V3,37.0,43.0,54.0,41.0,65.0,65,2392.0,square4,r,0.1188,3,V,3.0
V3,38.0,47.0,52.0,37.0,63.0,52,2444.0,square2,f,0.3584,1,V,3.0
V3,39.0,47.0,53.0,38.0,55.0,55,2499.0,square4,r,0.4093,3,V,3.0
V3,40.0,41.0,54.0,39.0,64.0,64,2563.0,square4,r,0.0843,3,V,3.0
V3,41.0,48.0,52.0,38.0,64.0,64,2627.0,square4,r,0.1676,3,V,3.0
V3,42.0,45.0,50.0,34.0,63.0,63,2690.0,square4,r,0.0613,3,V,3.0
V3,43.0,44.0,50.0,34.0,62.0,62,2752.0,square4,r,0.1862,3,V,3.0
V3,44.0,47.0,55.0,39.0,65.0,65,2817.0,square4,r,0.1353,3,V,3.0
V3,45.0,45.0,55.0,31.0,63.0,63,2880.0,square4,r,0.0009,3,V,3.0
V3,46.0,42.0,52.0,38.0,64.0,64,2944.0,square4,r,0.1927,3,V,3.0
V3,47.0,44.0,53.0,37.0,55.0,55,2999.0,square4,r,0.2678,3,V,3.0
V3,48.0,44.0,49.0,37.0,58.0,58,3057.0,square4,r,0.034,3,V,3.0
V3,49.0,48.0,58.0,35.0,54.0,54,3111.0,square4,r,0.017,3,V,3.0
V3,50.0,42.0,28.0,30.0,52.0,52,3163.0,square4,r,0.1758,3,V,3.0
V3,51.0,46.0,29.0,32.0,51.0,51,3214.0,square4,r,0.001,3,V,3.0
V3,52.0,37.0,20.0,36.0,50.0,37,3251.0,square1,i,0.0012,0,V,3.0
V3,53.0,44.0,22.0,34.0,55.0,55,3306.0,square4,r,0.0267,3,V,3.0
V3,54.0,37.0,27.0,26.0,50.0,26,3332.0,square3,j,0.1015,2,V,3.0
V3,55.0,41.0,21.0,39.0,53.0,53,3385.0,square4,r,0.1095,3,V,3.0
V3,56.0,40.0,20.0,38.0,51.0,20,3405.0,square2,f,0.1249,1,V,3.0
V3,57.0,44.0,28.0,31.0,57.0,57,3462.0,square4,r,0.1617,3,V,3.0
V3,58.0,46.0,20.0,28.0,49.0,46,3508.0,square1,i,0.0272,0,V,3.0
V3,59.0,44.0,24.0,30.0,55.0,55,3563.0,square4,r,0.0009,3,V,3.0
V3,60.0,42.0,29.0,29.0,51.0,51,3614.0,square4,r,0.0009,3,V,3.0
V3,61.0,41.0,21.0,30.0,46.0,30,3644.0,square3,j,0.1258,2,V,3.0
V3,62.0,41.0,27.0,31.0,49.0,27,3671.0,square2,f,0.1346,1,V,3.0
V3,63.0,42.0,27.0,34.0,51.0,51,3722.0,square4,r,0.0427,3,V,3.0
V3,64.0,41.0,24.0,30.0,47.0,47,3769.0,square4,r,0.4923,3,V,3.0
V3,65.0,36.0,18.0,34.0,48.0,48,3817.0,square4,r,0.2603,3,V,3.0
V3,66.0,39.0,28.0,35.0,45.0,39,3856.0,square1,i,0.2001,0,V,3.0
V3,67.0,42.0,21.0,32.0,46.0,46,3902.0,square4,r,0.192,3,V,3.0
V3,68.0,40.0,24.0,35.0,53.0,53,3955.0,square4,r,0.1765,3,V,3.0
V3,69.0,48.0,23.0,34.0,50.0,50,4005.0,square4,r,0.176,3,V,3.0
V3,70.0,40.0,27.0,31.0,49.0,49,4054.0,square4,r,0.2087,3,V,3.0
V3,71.0,41.0,23.0,28.0,51.0,51,4105.0,square4,r,0.2108,3,V,3.0
V3,72.0,42.0,25.0,33.0,55.0,55,4160.0,square4,r,0.1689,3,V,3.0
V3,73.0,41.0,24.0,35.0,55.0,55,4215.0,square4,r,0.1754,3,V,3.0
V3,74.0,38.0,26.0,28.0,53.0,53,4268.0,square4,r,0.2499,3,V,3.0
V3,75.0,54.0,39.0,69.0,50.0,50,4318.0,square4,r,0.1439,3,V,3.0
V3,76.0,55.0,42.0,64.0,53.0,53,4371.0,square4,r,0.1821,3,V,3.0
V3,77.0,59.0,37.0,66.0,44.0,44,4415.0,square4,r,0.1138,3,V,3.0
V3,78.0,58.0,38.0,60.0,46.0,46,4461.0,square4,r,0.1074,3,V,3.0
V3,79.0,54.0,35.0,66.0,49.0,49,4510.0,square4,r,0.0582,3,V,3.0
V3,80.0,60.0,36.0,68.0,44.0,44,4554.0,square4,r,0.0933,3,V,3.0
V3,81.0,55.0,38.0,66.0,51.0,51,4605.0,square4,r,0.1345,3,V,3.0
V3,82.0,57.0,47.0,64.0,50.0,50,4655.0,square4,r,0.1846,3,V,3.0
V3,83.0,57.0,37.0,63.0,45.0,45,4700.0,square4,r,0.1218,3,V,3.0
V3,84.0,54.0,40.0,65.0,53.0,53,4753.0,square4,r,0.1591,3,V,3.0
V3,85.0,58.0,41.0,63.0,48.0,63,4816.0,square3,j,0.0425,2,V,3.0
V3,86.0,53.0,38.0,57.0,49.0,57,4873.0,square3,j,0.1756,2,V,3.0
V3,87.0,49.0,42.0,60.0,43.0,60,4933.0,square3,j,0.077,2,V,3.0
V3,88.0,56.0,35.0,70.0,46.0,35,4968.0,square2,f,0.1096,1,V,3.0
V3,89.0,58.0,39.0,63.0,52.0,63,5031.0,square3,j,0.0333,2,V,3.0
V3,90.0,59.0,43.0,63.0,45.0,45,5076.0,square4,r,0.0852,3,V,3.0
V3,91.0,54.0,37.0,69.0,49.0,69,5145.0,square3,j,0.4846,2,V,3.0
V3,92.0,56.0,41.0,61.0,47.0,56,5201.0,square1,i,0.0674,0,V,3.0
V3,93.0,58.0,35.0,68.0,47.0,68,5269.0,square3,j,0.0577,2,V,3.0
V3,94.0,61.0,37.0,67.0,51.0,67,5336.0,square3,j,0.1854,2,V,3.0
V3,95.0,57.0,32.0,64.0,47.0,64,5400.0,square3,j,0.0535,2,V,3.0
V3,96.0,53.0,38.0,63.0,48.0,63,5463.0,square3,j,0.0837,2,V,3.0
V3,97.0,57.0,44.0,71.0,50.0,71,5534.0,square3,j,0.1485,2,V,3.0
V3,98.0,56.0,39.0,70.0,47.0,70,5604.0,square3,j,0.043,2,V,3.0
V3,99.0,62.0,40.0,67.0,49.0,67,5671.0,square3,j,0.0009,2,V,3.0
