block,Trial,square1,square2,square3,square4,currPoints,totalPoints,square,choiceKey.keys,choiceKey.rt,armNum,blockType,blockNum
prac,0.0,100.0,0.0,0.0,0.0,99999,0.0,invalid,,,-1,p,0.0
prac,1.0,100.0,0.0,0.0,0.0,99999,0.0,invalid,,,-1,p,0.0
prac,2.0,100.0,0.0,0.0,0.0,99999,0.0,invalid,,,-1,p,0.0
prac,3.0,100.0,0.0,0.0,0.0,99999,0.0,invalid,,,-1,p,0.0
prac,4.0,100.0,0.0,0.0,0.0,99999,0.0,invalid,,,-1,p,0.0
prac,5.0,100.0,0.0,0.0,0.0,0,0.0,square2,,,1,p,0.0
prac,6.0,100.0,0.0,0.0,0.0,99999,0.0,invalid,,,-1,p,0.0
prac,7.0,100.0,0.0,0.0,0.0,0,0.0,square2,,,1,p,0.0
prac,8.0,100.0,0.0,0.0,0.0,99999,0.0,invalid,,,-1,p,0.0
prac,9.0,100.0,0.0,0.0,0.0,99999,0.0,invalid,,,-1,p,0.0
NS1,0.0,60.0,65.0,21.0,53.0,53,53.0,square4,r,0.656,3,N,1.0
NS1,1.0,56.0,62.0,31.0,51.0,62,115.0,square2,i,1.25,1,N,1.0
NS1,2.0,58.0,62.0,24.0,57.0,58,173.0,square1,f,0.336,0,N,1.0
NS1,3.0,56.0,58.0,33.0,58.0,33,206.0,square3,j,0.888,2,N,1.0
NS1,4.0,60.0,58.0,32.0,58.0,58,264.0,square4,r,1.613,3,N,1.0
NS1,5.0,56.0,59.0,31.0,54.0,54,318.0,square4,r,0.259,3,N,1.0
NS1,6.0,58.0,57.0,37.0,56.0,37,355.0,square3,j,0.007,2,N,1.0
NS1,7.0,57.0,53.0,37.0,57.0,57,412.0,square1,f,1.126,0,N,1.0
NS1,8.0,58.0,57.0,37.0,54.0,99999,412.0,invalid,,,-1,N,1.0
NS1,9.0,53.0,50.0,36.0,55.0,53,465.0,square1,f,1.878,0,N,1.0
NS1,10.0,58.0,47.0,32.0,53.0,58,523.0,square1,f,0.115,0,N,1.0
NS1,11.0,55.0,44.0,34.0,53.0,55,578.0,square1,f,1.327,0,N,1.0
NS1,12.0,56.0,44.0,30.0,45.0,30,608.0,square3,j,0.46,2,N,1.0
NS1,13.0,60.0,47.0,34.0,48.0,60,668.0,square1,f,0.246,0,N,1.0
NS1,14.0,54.0,48.0,37.0,54.0,37,705.0,square3,j,0.717,2,N,1.0
NS1,15.0,53.0,44.0,35.0,51.0,53,758.0,square1,f,0.26,0,N,1.0
NS1,16.0,50.0,50.0,35.0,43.0,43,801.0,square4,r,0.332,3,N,1.0
NS1,17.0,53.0,46.0,35.0,44.0,46,847.0,square2,i,0.163,1,N,1.0
NS1,18.0,54.0,51.0,42.0,48.0,54,901.0,square1,f,0.537,0,N,1.0
NS1,19.0,62.0,51.0,44.0,53.0,44,945.0,square3,j,0.405,2,N,1.0
NS1,20.0,63.0,47.0,42.0,47.0,47,992.0,square4,r,0.265,3,N,1.0
NS1,21.0,67.0,51.0,41.0,46.0,51,1043.0,square2,i,0.664,1,N,1.0
NS1,22.0,75.0,44.0,45.0,43.0,75,1118.0,square1,f,0.326,0,N,1.0
NS1,23.0,64.0,42.0,41.0,47.0,41,1159.0,square3,j,1.415,2,N,1.0
NS1,24.0,68.0,41.0,39.0,49.0,39,1198.0,square3,j,0.854,2,N,1.0
NS1,25.0,71.0,43.0,33.0,42.0,71,1269.0,square1,f,0.316,0,N,1.0
NS1,26.0,70.0,41.0,26.0,45.0,41,1310.0,square2,i,0.294,1,N,1.0
NS1,27.0,72.0,42.0,34.0,48.0,48,1358.0,square4,r,0.463,3,N,1.0
NS1,28.0,71.0,41.0,33.0,45.0,71,1429.0,square1,f,0.752,0,N,1.0
NS1,29.0,77.0,42.0,31.0,48.0,31,1460.0,square3,j,1.101,2,N,1.0
NS1,30.0,73.0,41.0,33.0,51.0,99999,1460.0,invalid,,,-1,N,1.0
NS1,31.0,71.0,44.0,35.0,48.0,99999,1460.0,invalid,,,-1,N,1.0
NS1,32.0,81.0,47.0,33.0,50.0,33,1493.0,square3,j,0.091,2,N,1.0
NS1,33.0,75.0,50.0,27.0,42.0,75,1568.0,square1,f,0.321,0,N,1.0
NS1,34.0,71.0,49.0,27.0,44.0,44,1612.0,square4,r,0.171,3,N,1.0
NS1,35.0,69.0,47.0,23.0,47.0,69,1681.0,square1,f,0.301,0,N,1.0
NS1,36.0,71.0,50.0,32.0,45.0,32,1713.0,square3,j,0.448,2,N,1.0
NS1,37.0,66.0,48.0,33.0,52.0,33,1746.0,square3,j,0.282,2,N,1.0
NS1,38.0,64.0,50.0,34.0,51.0,34,1780.0,square3,j,0.285,2,N,1.0
NS1,39.0,65.0,49.0,25.0,47.0,25,1805.0,square3,j,0.222,2,N,1.0
NS1,40.0,66.0,46.0,23.0,50.0,46,1851.0,square2,i,0.82,1,N,1.0
NS1,41.0,68.0,45.0,22.0,50.0,45,1896.0,square2,i,0.263,1,N,1.0
NS1,42.0,74.0,41.0,28.0,50.0,74,1970.0,square1,f,0.33,0,N,1.0
NS1,43.0,69.0,42.0,27.0,52.0,69,2039.0,square1,f,0.099,0,N,1.0
NS1,44.0,71.0,38.0,32.0,49.0,49,2088.0,square4,r,0.255,3,N,1.0
NS1,45.0,68.0,38.0,30.0,55.0,55,2143.0,square4,r,0.403,3,N,1.0
NS1,46.0,66.0,39.0,30.0,56.0,56,2199.0,square4,r,0.299,3,N,1.0
NS1,47.0,62.0,35.0,31.0,50.0,50,2249.0,square4,r,0.284,3,N,1.0
NS1,48.0,68.0,31.0,32.0,49.0,32,2281.0,square3,j,0.985,2,N,1.0
NS1,49.0,66.0,33.0,35.0,46.0,35,2316.0,square3,j,0.181,2,N,1.0
NS1,50.0,64.0,30.0,32.0,46.0,32,2348.0,square3,j,0.379,2,N,1.0
NS1,51.0,66.0,35.0,39.0,43.0,35,2383.0,square2,i,0.213,1,N,1.0
NS1,52.0,67.0,33.0,37.0,49.0,33,2416.0,square2,i,0.23,1,N,1.0
NS1,53.0,70.0,32.0,35.0,47.0,32,2448.0,square2,i,0.212,1,N,1.0
NS1,54.0,62.0,40.0,28.0,43.0,40,2488.0,square2,i,0.337,1,N,1.0
NS1,55.0,66.0,39.0,26.0,43.0,66,2554.0,square1,f,0.19,0,N,1.0
NS1,56.0,64.0,38.0,26.0,44.0,64,2618.0,square1,f,0.123,0,N,1.0
NS1,57.0,63.0,41.0,24.0,48.0,63,2681.0,square1,f,0.211,0,N,1.0
NS1,58.0,67.0,49.0,24.0,48.0,67,2748.0,square1,f,0.053,0,N,1.0
NS1,59.0,57.0,51.0,27.0,43.0,57,2805.0,square1,f,0.245,0,N,1.0
NS1,60.0,56.0,51.0,31.0,42.0,31,2836.0,square3,j,0.532,2,N,1.0
NS1,61.0,55.0,50.0,25.0,49.0,25,2861.0,square3,j,0.123,2,N,1.0
NS1,62.0,55.0,51.0,27.0,50.0,99999,2861.0,invalid,,,-1,N,1.0
NS1,63.0,53.0,51.0,27.0,50.0,50,2911.0,square4,r,0.649,3,N,1.0
NS1,64.0,53.0,56.0,27.0,50.0,50,2961.0,square4,r,0.146,3,N,1.0
NS1,65.0,49.0,56.0,26.0,49.0,56,3017.0,square2,i,0.644,1,N,1.0
NS1,66.0,47.0,61.0,29.0,50.0,47,3064.0,square1,f,0.428,0,N,1.0
NS1,67.0,47.0,56.0,27.0,50.0,27,3091.0,square3,j,0.615,2,N,1.0
NS1,68.0,47.0,64.0,29.0,48.0,47,3138.0,square1,f,0.286,0,N,1.0
NS1,69.0,54.0,67.0,24.0,53.0,54,3192.0,square1,f,0.258,0,N,1.0
NS1,70.0,44.0,70.0,21.0,48.0,44,3236.0,square1,f,0.279,0,N,1.0
NS1,71.0,45.0,67.0,26.0,52.0,45,3281.0,square1,f,0.025,0,N,1.0
NS1,72.0,44.0,64.0,22.0,49.0,49,3330.0,square4,r,0.249,3,N,1.0
NS1,73.0,43.0,60.0,23.0,51.0,51,3381.0,square4,r,0.27,3,N,1.0
NS1,74.0,47.0,59.0,26.0,57.0,57,3438.0,square4,r,0.259,3,N,1.0
NS1,75.0,44.0,56.0,27.0,51.0,51,3489.0,square4,r,0.203,3,N,1.0
NS1,76.0,34.0,55.0,21.0,52.0,21,3510.0,square3,j,0.527,2,N,1.0
NS1,77.0,39.0,64.0,17.0,55.0,39,3549.0,square1,f,0.353,0,N,1.0
NS1,78.0,38.0,64.0,25.0,52.0,64,3613.0,square2,i,0.045,1,N,1.0
NS1,79.0,40.0,65.0,24.0,54.0,65,3678.0,square2,i,0.279,1,N,1.0
NS1,80.0,44.0,66.0,21.0,53.0,66,3744.0,square2,i,0.283,1,N,1.0
NS1,81.0,50.0,60.0,27.0,54.0,60,3804.0,square2,i,0.209,1,N,1.0
NS1,82.0,43.0,62.0,20.0,57.0,20,3824.0,square3,j,0.293,2,N,1.0
NS1,83.0,44.0,55.0,24.0,59.0,24,3848.0,square3,j,0.115,2,N,1.0
NS1,84.0,41.0,51.0,28.0,61.0,28,3876.0,square3,j,0.224,2,N,1.0
NS1,85.0,49.0,49.0,29.0,70.0,29,3905.0,square3,j,0.113,2,N,1.0
NS1,86.0,47.0,44.0,26.0,66.0,26,3931.0,square3,j,0.002,2,N,1.0
NS1,87.0,48.0,48.0,23.0,68.0,48,3979.0,square1,f,0.392,0,N,1.0
NS1,88.0,46.0,51.0,20.0,70.0,46,4025.0,square1,f,0.212,0,N,1.0
NS1,89.0,45.0,50.0,17.0,75.0,45,4070.0,square1,f,0.026,0,N,1.0
NS1,90.0,50.0,48.0,18.0,74.0,50,4120.0,square1,f,0.277,0,N,1.0
NS1,91.0,46.0,53.0,17.0,67.0,46,4166.0,square1,f,0.111,0,N,1.0
NS1,92.0,38.0,56.0,22.0,65.0,65,4231.0,square4,r,0.193,3,N,1.0
NS1,93.0,38.0,53.0,22.0,66.0,66,4297.0,square4,r,0.338,3,N,1.0
NS1,94.0,42.0,49.0,24.0,72.0,72,4369.0,square4,r,0.015,3,N,1.0
NS1,95.0,44.0,48.0,25.0,70.0,48,4417.0,square2,i,0.556,1,N,1.0
NS1,96.0,35.0,50.0,21.0,67.0,50,4467.0,square2,i,0.227,1,N,1.0
NS1,97.0,43.0,55.0,16.0,72.0,55,4522.0,square2,i,0.346,1,N,1.0
NS1,98.0,46.0,50.0,21.0,73.0,50,4572.0,square2,i,0.315,1,N,1.0
NS1,99.0,43.0,46.0,27.0,71.0,43,4615.0,square1,f,1.554,0,N,1.0
NS7,0.0,26.0,62.0,36.0,41.0,62,62.0,square2,r,0.674,1,N,7.0
NS7,1.0,31.0,61.0,40.0,42.0,31,93.0,square1,i,0.069,0,N,7.0
NS7,2.0,30.0,60.0,46.0,41.0,46,139.0,square3,f,1.401,2,N,7.0
NS7,3.0,27.0,57.0,46.0,39.0,39,178.0,square4,j,0.388,3,N,7.0
NS7,4.0,20.0,58.0,45.0,39.0,58,236.0,square2,r,0.317,1,N,7.0
NS7,5.0,29.0,57.0,46.0,42.0,57,293.0,square2,r,0.297,1,N,7.0
NS7,6.0,28.0,61.0,44.0,40.0,28,321.0,square1,i,0.012,0,N,7.0
NS7,7.0,24.0,56.0,46.0,40.0,46,367.0,square3,f,0.26,2,N,7.0
NS7,8.0,25.0,66.0,45.0,36.0,36,403.0,square4,j,0.424,3,N,7.0
NS7,9.0,27.0,65.0,46.0,40.0,46,449.0,square3,f,0.224,2,N,7.0
NS7,10.0,27.0,65.0,41.0,46.0,65,514.0,square2,r,0.383,1,N,7.0
NS7,11.0,26.0,58.0,40.0,51.0,58,572.0,square2,r,0.216,1,N,7.0
NS7,12.0,19.0,64.0,43.0,57.0,19,591.0,square1,i,0.122,0,N,7.0
NS7,13.0,21.0,64.0,43.0,54.0,21,612.0,square1,i,0.29,0,N,7.0
NS7,14.0,26.0,67.0,44.0,55.0,55,667.0,square4,j,0.013,3,N,7.0
NS7,15.0,20.0,64.0,40.0,61.0,61,728.0,square4,j,0.291,3,N,7.0
NS7,16.0,20.0,61.0,38.0,66.0,66,794.0,square4,j,0.28,3,N,7.0
NS7,17.0,20.0,56.0,39.0,64.0,64,858.0,square4,j,0.316,3,N,7.0
NS7,18.0,21.0,56.0,33.0,65.0,56,914.0,square2,r,0.415,1,N,7.0
NS7,19.0,21.0,56.0,36.0,68.0,56,970.0,square2,r,0.216,1,N,7.0
NS7,20.0,26.0,58.0,37.0,64.0,58,1028.0,square2,r,0.097,1,N,7.0
NS7,21.0,29.0,62.0,36.0,61.0,61,1089.0,square4,j,0.605,3,N,7.0
NS7,22.0,24.0,63.0,37.0,55.0,37,1126.0,square3,f,0.853,2,N,7.0
NS7,23.0,26.0,64.0,38.0,54.0,26,1152.0,square1,i,0.186,0,N,7.0
NS7,24.0,18.0,65.0,39.0,53.0,65,1217.0,square2,r,0.314,1,N,7.0
NS7,25.0,20.0,62.0,36.0,53.0,53,1270.0,square4,j,0.603,3,N,7.0
NS7,26.0,24.0,56.0,39.0,52.0,56,1326.0,square2,r,0.178,1,N,7.0
NS7,27.0,31.0,58.0,36.0,51.0,51,1377.0,square4,j,0.242,3,N,7.0
NS7,28.0,28.0,59.0,42.0,53.0,59,1436.0,square2,r,0.196,1,N,7.0
NS7,29.0,30.0,57.0,36.0,51.0,51,1487.0,square4,j,0.189,3,N,7.0
NS7,30.0,29.0,57.0,35.0,53.0,57,1544.0,square2,r,0.432,1,N,7.0
NS7,31.0,27.0,59.0,37.0,48.0,27,1571.0,square1,i,0.264,0,N,7.0
NS7,32.0,29.0,59.0,38.0,45.0,59,1630.0,square2,r,0.157,1,N,7.0
NS7,33.0,35.0,58.0,37.0,52.0,35,1665.0,square1,i,0.332,0,N,7.0
NS7,34.0,33.0,59.0,43.0,52.0,43,1708.0,square3,f,0.29,2,N,7.0
NS7,35.0,37.0,61.0,43.0,49.0,61,1769.0,square2,r,0.099,1,N,7.0
NS7,36.0,36.0,62.0,48.0,54.0,62,1831.0,square2,r,0.5,1,N,7.0
NS7,37.0,35.0,62.0,46.0,57.0,62,1893.0,square2,r,0.22,1,N,7.0
NS7,38.0,37.0,59.0,52.0,53.0,59,1952.0,square2,r,0.231,1,N,7.0
NS7,39.0,32.0,57.0,50.0,59.0,59,2011.0,square4,j,0.679,3,N,7.0
NS7,40.0,30.0,56.0,54.0,59.0,59,2070.0,square4,j,0.123,3,N,7.0
NS7,41.0,36.0,54.0,52.0,56.0,56,2126.0,square4,j,0.668,3,N,7.0
NS7,42.0,30.0,55.0,57.0,55.0,55,2181.0,square2,r,0.444,1,N,7.0
NS7,43.0,35.0,52.0,54.0,58.0,58,2239.0,square4,j,0.02,3,N,7.0
NS7,44.0,30.0,56.0,55.0,57.0,56,2295.0,square2,r,0.556,1,N,7.0
NS7,45.0,28.0,63.0,57.0,58.0,58,2353.0,square4,j,0.938,3,N,7.0
NS7,46.0,29.0,60.0,58.0,57.0,60,2413.0,square2,r,0.622,1,N,7.0
NS7,47.0,31.0,58.0,54.0,53.0,53,2466.0,square4,j,0.823,3,N,7.0
NS7,48.0,27.0,58.0,59.0,48.0,58,2524.0,square2,r,0.446,1,N,7.0
NS7,49.0,28.0,48.0,60.0,54.0,54,2578.0,square4,j,0.415,3,N,7.0
NS7,50.0,27.0,49.0,62.0,53.0,49,2627.0,square2,r,1.152,1,N,7.0
NS7,51.0,41.0,49.0,63.0,56.0,49,2676.0,square2,r,0.188,1,N,7.0
NS7,52.0,36.0,43.0,66.0,56.0,43,2719.0,square2,r,0.692,1,N,7.0
NS7,53.0,41.0,51.0,69.0,54.0,54,2773.0,square4,j,0.55,3,N,7.0
NS7,54.0,37.0,52.0,63.0,53.0,53,2826.0,square4,j,0.729,3,N,7.0
NS7,55.0,40.0,51.0,60.0,54.0,54,2880.0,square4,j,0.169,3,N,7.0
NS7,56.0,45.0,57.0,63.0,59.0,63,2943.0,square3,f,0.621,2,N,7.0
NS7,57.0,42.0,49.0,64.0,53.0,64,3007.0,square3,f,0.04,2,N,7.0
NS7,58.0,39.0,49.0,62.0,52.0,62,3069.0,square3,f,0.581,2,N,7.0
NS7,59.0,47.0,49.0,67.0,54.0,67,3136.0,square3,f,0.382,2,N,7.0
NS7,60.0,43.0,53.0,70.0,55.0,70,3206.0,square3,f,0.159,2,N,7.0
NS7,61.0,41.0,48.0,69.0,52.0,41,3247.0,square1,i,0.479,0,N,7.0
NS7,62.0,39.0,48.0,65.0,54.0,39,3286.0,square1,i,0.295,0,N,7.0
NS7,63.0,38.0,48.0,64.0,56.0,38,3324.0,square1,i,0.0,0,N,7.0
NS7,64.0,34.0,46.0,65.0,51.0,65,3389.0,square3,f,0.647,2,N,7.0
NS7,65.0,43.0,51.0,63.0,53.0,63,3452.0,square3,f,0.198,2,N,7.0
NS7,66.0,41.0,51.0,64.0,50.0,64,3516.0,square3,f,0.019,2,N,7.0
NS7,67.0,44.0,51.0,63.0,54.0,63,3579.0,square3,f,0.186,2,N,7.0
NS7,68.0,42.0,49.0,62.0,48.0,48,3627.0,square4,j,0.231,3,N,7.0
NS7,69.0,41.0,50.0,63.0,52.0,52,3679.0,square4,j,0.236,3,N,7.0
NS7,70.0,45.0,45.0,59.0,53.0,53,3732.0,square4,j,0.299,3,N,7.0
NS7,71.0,44.0,40.0,52.0,52.0,52,3784.0,square4,j,0.298,3,N,7.0
NS7,72.0,51.0,38.0,55.0,47.0,47,3831.0,square4,j,0.04,3,N,7.0
NS7,73.0,42.0,36.0,49.0,47.0,47,3878.0,square4,j,0.003,3,N,7.0
NS7,74.0,44.0,40.0,46.0,48.0,40,3918.0,square2,r,0.78,1,N,7.0
NS7,75.0,46.0,38.0,45.0,53.0,38,3956.0,square2,r,0.114,1,N,7.0
NS7,76.0,48.0,44.0,40.0,53.0,48,4004.0,square1,i,0.614,0,N,7.0
NS7,77.0,45.0,42.0,40.0,55.0,40,4044.0,square3,f,0.478,2,N,7.0
NS7,78.0,41.0,39.0,40.0,56.0,41,4085.0,square1,i,0.75,0,N,7.0
NS7,79.0,44.0,38.0,41.0,55.0,44,4129.0,square1,i,0.514,0,N,7.0
NS7,80.0,48.0,49.0,48.0,62.0,48,4177.0,square1,i,0.594,0,N,7.0
NS7,81.0,44.0,47.0,43.0,61.0,43,4220.0,square3,f,0.844,2,N,7.0
NS7,82.0,45.0,46.0,38.0,54.0,54,4274.0,square4,j,0.68,3,N,7.0
NS7,83.0,44.0,40.0,41.0,57.0,57,4331.0,square4,j,0.303,3,N,7.0
NS7,84.0,47.0,46.0,41.0,53.0,46,4377.0,square2,r,0.058,1,N,7.0
NS7,85.0,50.0,45.0,45.0,54.0,45,4422.0,square2,r,0.743,1,N,7.0
NS7,86.0,45.0,43.0,44.0,54.0,54,4476.0,square4,j,0.381,3,N,7.0
NS7,87.0,43.0,47.0,49.0,55.0,55,4531.0,square4,j,0.226,3,N,7.0
NS7,88.0,40.0,48.0,44.0,58.0,58,4589.0,square4,j,0.745,3,N,7.0
NS7,89.0,40.0,44.0,47.0,54.0,54,4643.0,square4,j,0.528,3,N,7.0
NS7,90.0,38.0,43.0,48.0,55.0,48,4691.0,square3,f,0.125,2,N,7.0
NS7,91.0,36.0,45.0,43.0,55.0,36,4727.0,square1,i,0.549,0,N,7.0
NS7,92.0,29.0,44.0,45.0,53.0,45,4772.0,square3,f,0.431,2,N,7.0
NS7,93.0,33.0,46.0,44.0,57.0,44,4816.0,square3,f,0.289,2,N,7.0
NS7,94.0,32.0,43.0,52.0,47.0,47,4863.0,square4,j,0.969,3,N,7.0
NS7,95.0,41.0,46.0,50.0,51.0,51,4914.0,square4,j,0.826,3,N,7.0
NS7,96.0,38.0,41.0,46.0,52.0,41,4955.0,square2,r,0.545,1,N,7.0
NS7,97.0,41.0,44.0,40.0,52.0,52,5007.0,square4,j,0.788,3,N,7.0
NS7,98.0,45.0,41.0,41.0,55.0,41,5048.0,square2,r,0.283,1,N,7.0
NS7,99.0,39.0,41.0,39.0,53.0,99999,5048.0,invalid,,,-1,N,7.0
NS4,0.0,55.0,53.0,59.0,44.0,99999,0.0,invalid,,,-1,N,4.0
NS4,1.0,49.0,56.0,64.0,41.0,56,56.0,square2,f,0.407,1,N,4.0
NS4,2.0,50.0,54.0,71.0,48.0,71,127.0,square3,i,0.436,2,N,4.0
NS4,3.0,53.0,58.0,67.0,50.0,58,185.0,square2,f,0.125,1,N,4.0
NS4,4.0,49.0,51.0,70.0,55.0,70,255.0,square3,i,0.111,2,N,4.0
NS4,5.0,55.0,59.0,73.0,58.0,73,328.0,square3,i,0.235,2,N,4.0
NS4,6.0,56.0,54.0,71.0,57.0,71,399.0,square3,i,0.249,2,N,4.0
NS4,7.0,60.0,54.0,75.0,52.0,75,474.0,square3,i,0.236,2,N,4.0
NS4,8.0,58.0,53.0,74.0,52.0,74,548.0,square3,i,0.172,2,N,4.0
NS4,9.0,46.0,48.0,78.0,51.0,78,626.0,square3,i,0.146,2,N,4.0
NS4,10.0,55.0,48.0,78.0,51.0,78,704.0,square3,i,0.148,2,N,4.0
NS4,11.0,55.0,44.0,79.0,49.0,49,753.0,square4,r,0.388,3,N,4.0
NS4,12.0,50.0,40.0,79.0,50.0,50,803.0,square1,j,0.248,0,N,4.0
NS4,13.0,45.0,39.0,79.0,53.0,79,882.0,square3,i,0.259,2,N,4.0
NS4,14.0,44.0,38.0,77.0,56.0,77,959.0,square3,i,0.168,2,N,4.0
NS4,15.0,45.0,32.0,68.0,52.0,68,1027.0,square3,i,0.25,2,N,4.0
NS4,16.0,49.0,32.0,74.0,53.0,32,1059.0,square2,f,0.335,1,N,4.0
NS4,17.0,45.0,32.0,69.0,51.0,69,1128.0,square3,i,0.666,2,N,4.0
NS4,18.0,50.0,34.0,69.0,47.0,69,1197.0,square3,i,0.199,2,N,4.0
NS4,19.0,50.0,36.0,65.0,53.0,65,1262.0,square3,i,0.245,2,N,4.0
NS4,20.0,45.0,36.0,62.0,53.0,53,1315.0,square4,r,0.431,3,N,4.0
NS4,21.0,49.0,35.0,62.0,55.0,49,1364.0,square1,j,0.016,0,N,4.0
NS4,22.0,53.0,32.0,61.0,60.0,60,1424.0,square4,r,0.815,3,N,4.0
NS4,23.0,52.0,33.0,58.0,54.0,58,1482.0,square3,i,0.196,2,N,4.0
NS4,24.0,48.0,32.0,52.0,60.0,60,1542.0,square4,r,0.596,3,N,4.0
NS4,25.0,47.0,30.0,53.0,57.0,57,1599.0,square4,r,0.03,3,N,4.0
NS4,26.0,50.0,30.0,60.0,55.0,55,1654.0,square4,r,0.365,3,N,4.0
NS4,27.0,50.0,28.0,62.0,47.0,47,1701.0,square4,r,0.26,3,N,4.0
NS4,28.0,54.0,28.0,58.0,49.0,49,1750.0,square4,r,0.121,3,N,4.0
NS4,29.0,44.0,29.0,50.0,49.0,29,1779.0,square2,f,0.484,1,N,4.0
NS4,30.0,43.0,26.0,55.0,57.0,55,1834.0,square3,i,0.554,2,N,4.0
NS4,31.0,43.0,25.0,60.0,54.0,60,1894.0,square3,i,0.432,2,N,4.0
NS4,32.0,34.0,27.0,58.0,56.0,58,1952.0,square3,i,0.164,2,N,4.0
NS4,33.0,34.0,20.0,60.0,62.0,60,2012.0,square3,i,0.199,2,N,4.0
NS4,34.0,38.0,28.0,58.0,57.0,58,2070.0,square3,i,0.72,2,N,4.0
NS4,35.0,40.0,24.0,63.0,59.0,63,2133.0,square3,i,0.157,2,N,4.0
NS4,36.0,36.0,30.0,56.0,63.0,56,2189.0,square3,i,0.321,2,N,4.0
NS4,37.0,40.0,29.0,54.0,63.0,54,2243.0,square3,i,0.422,2,N,4.0
NS4,38.0,40.0,33.0,53.0,69.0,40,2283.0,square1,j,0.314,0,N,4.0
NS4,39.0,36.0,30.0,57.0,67.0,36,2319.0,square1,j,0.315,0,N,4.0
NS4,40.0,33.0,33.0,58.0,68.0,33,2352.0,square1,j,0.433,0,N,4.0
NS4,41.0,34.0,28.0,58.0,72.0,34,2386.0,square1,j,0.369,0,N,4.0
NS4,42.0,35.0,30.0,60.0,70.0,70,2456.0,square4,r,0.281,3,N,4.0
NS4,43.0,35.0,34.0,57.0,63.0,63,2519.0,square4,r,0.078,3,N,4.0
NS4,44.0,30.0,32.0,59.0,69.0,69,2588.0,square4,r,0.419,3,N,4.0
NS4,45.0,29.0,31.0,60.0,66.0,66,2654.0,square4,r,0.415,3,N,4.0
NS4,46.0,35.0,34.0,66.0,66.0,66,2720.0,square4,r,0.348,3,N,4.0
NS4,47.0,35.0,28.0,63.0,62.0,62,2782.0,square4,r,0.438,3,N,4.0
NS4,48.0,37.0,37.0,61.0,55.0,55,2837.0,square4,r,0.3,3,N,4.0
NS4,49.0,40.0,34.0,59.0,54.0,54,2891.0,square4,r,0.488,3,N,4.0
NS4,50.0,39.0,38.0,68.0,51.0,68,2959.0,square3,i,0.434,2,N,4.0
NS4,51.0,46.0,28.0,69.0,48.0,69,3028.0,square3,i,0.506,2,N,4.0
NS4,52.0,40.0,34.0,62.0,49.0,62,3090.0,square3,i,0.337,2,N,4.0
NS4,53.0,39.0,34.0,63.0,48.0,63,3153.0,square3,i,0.439,2,N,4.0
NS4,54.0,44.0,31.0,58.0,47.0,58,3211.0,square3,i,0.517,2,N,4.0
NS4,55.0,42.0,30.0,68.0,46.0,68,3279.0,square3,i,0.381,2,N,4.0
NS4,56.0,36.0,25.0,69.0,44.0,44,3323.0,square4,r,0.391,3,N,4.0
NS4,57.0,35.0,29.0,71.0,46.0,71,3394.0,square3,i,0.949,2,N,4.0
NS4,58.0,43.0,28.0,68.0,47.0,68,3462.0,square3,i,0.548,2,N,4.0
NS4,59.0,43.0,27.0,67.0,43.0,67,3529.0,square3,i,0.558,2,N,4.0
NS4,60.0,40.0,25.0,72.0,46.0,72,3601.0,square3,i,0.491,2,N,4.0
NS4,61.0,39.0,32.0,63.0,43.0,63,3664.0,square3,i,0.481,2,N,4.0
NS4,62.0,39.0,29.0,61.0,39.0,61,3725.0,square3,i,0.026,2,N,4.0
NS4,63.0,41.0,28.0,59.0,40.0,28,3753.0,square2,f,0.521,1,N,4.0
NS4,64.0,41.0,31.0,57.0,51.0,41,3794.0,square1,j,0.829,0,N,4.0
NS4,65.0,46.0,36.0,59.0,58.0,58,3852.0,square4,r,0.316,3,N,4.0
NS4,66.0,45.0,36.0,53.0,46.0,53,3905.0,square3,i,0.797,2,N,4.0
NS4,67.0,40.0,34.0,49.0,46.0,46,3951.0,square4,r,0.51,3,N,4.0
NS4,68.0,43.0,37.0,48.0,48.0,48,3999.0,square3,i,0.82,2,N,4.0
NS4,69.0,42.0,36.0,44.0,56.0,44,4043.0,square3,i,0.011,2,N,4.0
NS4,70.0,40.0,38.0,47.0,58.0,47,4090.0,square3,i,0.598,2,N,4.0
NS4,71.0,36.0,34.0,42.0,63.0,42,4132.0,square3,i,0.521,2,N,4.0
NS4,72.0,38.0,36.0,36.0,66.0,36,4168.0,square3,i,0.521,2,N,4.0
NS4,73.0,36.0,40.0,40.0,66.0,66,4234.0,square4,r,0.385,3,N,4.0
NS4,74.0,31.0,38.0,46.0,67.0,67,4301.0,square4,r,0.063,3,N,4.0
NS4,75.0,40.0,33.0,42.0,64.0,64,4365.0,square4,r,0.312,3,N,4.0
NS4,76.0,38.0,35.0,42.0,64.0,64,4429.0,square4,r,0.555,3,N,4.0
NS4,77.0,40.0,35.0,39.0,66.0,66,4495.0,square4,r,0.461,3,N,4.0
NS4,78.0,40.0,33.0,38.0,68.0,68,4563.0,square4,r,0.408,3,N,4.0
NS4,79.0,40.0,38.0,31.0,70.0,70,4633.0,square4,r,0.886,3,N,4.0
NS4,80.0,37.0,35.0,33.0,73.0,73,4706.0,square4,r,0.681,3,N,4.0
NS4,81.0,34.0,35.0,30.0,70.0,70,4776.0,square4,r,0.597,3,N,4.0
NS4,82.0,35.0,37.0,31.0,66.0,66,4842.0,square4,r,0.09,3,N,4.0
NS4,83.0,42.0,32.0,28.0,67.0,67,4909.0,square4,r,0.114,3,N,4.0
NS4,84.0,38.0,35.0,30.0,68.0,68,4977.0,square4,r,0.848,3,N,4.0
NS4,85.0,43.0,35.0,32.0,64.0,64,5041.0,square4,r,0.825,3,N,4.0
NS4,86.0,49.0,35.0,32.0,70.0,70,5111.0,square4,r,0.354,3,N,4.0
NS4,87.0,48.0,34.0,32.0,69.0,69,5180.0,square4,r,0.364,3,N,4.0
NS4,88.0,50.0,35.0,30.0,64.0,64,5244.0,square4,r,0.286,3,N,4.0
NS4,89.0,48.0,34.0,32.0,68.0,68,5312.0,square4,r,0.243,3,N,4.0
NS4,90.0,53.0,29.0,27.0,68.0,68,5380.0,square4,r,0.224,3,N,4.0
NS4,91.0,54.0,27.0,34.0,68.0,68,5448.0,square4,r,0.314,3,N,4.0
NS4,92.0,52.0,20.0,35.0,69.0,69,5517.0,square4,r,0.304,3,N,4.0
NS4,93.0,42.0,15.0,33.0,68.0,68,5585.0,square4,r,0.221,3,N,4.0
NS4,94.0,40.0,24.0,37.0,72.0,37,5622.0,square3,i,0.513,2,N,4.0
NS4,95.0,43.0,25.0,43.0,69.0,25,5647.0,square2,f,0.128,1,N,4.0
NS4,96.0,41.0,29.0,43.0,74.0,41,5688.0,square1,j,0.189,0,N,4.0
NS4,97.0,46.0,32.0,42.0,78.0,78,5766.0,square4,r,0.404,3,N,4.0
NS4,98.0,48.0,26.0,46.0,75.0,75,5841.0,square4,r,0.264,3,N,4.0
NS4,99.0,46.0,27.0,45.0,71.0,71,5912.0,square4,r,0.171,3,N,4.0
V7,0.0,86.0,61.0,78.0,68.0,86,86.0,square1,r,0.958,0,V,7.0
V7,1.0,95.0,62.0,79.0,70.0,95,181.0,square1,r,0.207,0,V,7.0
V7,2.0,89.0,67.0,81.0,77.0,77,258.0,square4,i,0.348,3,V,7.0
V7,3.0,90.0,56.0,85.0,72.0,85,343.0,square3,f,0.554,2,V,7.0
V7,4.0,91.0,65.0,77.0,71.0,65,408.0,square2,j,0.217,1,V,7.0
V7,5.0,91.0,58.0,84.0,72.0,91,499.0,square1,r,0.491,0,V,7.0
V7,6.0,94.0,65.0,87.0,72.0,94,593.0,square1,r,0.491,0,V,7.0
V7,7.0,89.0,67.0,79.0,67.0,79,672.0,square3,f,0.592,2,V,7.0
V7,8.0,91.0,65.0,84.0,68.0,84,756.0,square3,f,0.366,2,V,7.0
V7,9.0,92.0,60.0,87.0,69.0,92,848.0,square1,r,0.43,0,V,7.0
V7,10.0,90.0,67.0,81.0,76.0,90,938.0,square1,r,0.51,0,V,7.0
V7,11.0,86.0,67.0,83.0,73.0,86,1024.0,square1,r,0.196,0,V,7.0
V7,12.0,90.0,62.0,80.0,72.0,80,1104.0,square3,f,0.417,2,V,7.0
V7,13.0,84.0,60.0,88.0,71.0,88,1192.0,square3,f,0.399,2,V,7.0
V7,14.0,95.0,64.0,80.0,70.0,80,1272.0,square3,f,0.414,2,V,7.0
V7,15.0,86.0,60.0,81.0,70.0,81,1353.0,square3,f,0.224,2,V,7.0
V7,16.0,85.0,65.0,77.0,69.0,77,1430.0,square3,f,0.18,2,V,7.0
V7,17.0,91.0,65.0,81.0,70.0,91,1521.0,square1,r,0.454,0,V,7.0
V7,18.0,95.0,61.0,81.0,76.0,95,1616.0,square1,r,0.315,0,V,7.0
V7,19.0,90.0,58.0,79.0,72.0,90,1706.0,square1,r,0.481,0,V,7.0
V7,20.0,94.0,68.0,80.0,79.0,94,1800.0,square1,r,0.248,0,V,7.0
V7,21.0,92.0,66.0,82.0,70.0,92,1892.0,square1,r,0.353,0,V,7.0
V7,22.0,92.0,64.0,83.0,72.0,92,1984.0,square1,r,0.318,0,V,7.0
V7,23.0,91.0,68.0,82.0,73.0,91,2075.0,square1,r,0.279,0,V,7.0
V7,24.0,87.0,71.0,82.0,72.0,87,2162.0,square1,r,0.248,0,V,7.0
V7,25.0,91.0,68.0,90.0,74.0,90,2252.0,square3,f,0.379,2,V,7.0
V7,26.0,89.0,65.0,83.0,72.0,83,2335.0,square3,f,0.285,2,V,7.0
V7,27.0,91.0,61.0,81.0,73.0,91,2426.0,square1,r,0.614,0,V,7.0
V7,28.0,90.0,66.0,81.0,72.0,72,2498.0,square4,i,0.404,3,V,7.0
V7,29.0,89.0,67.0,77.0,71.0,71,2569.0,square4,i,0.493,3,V,7.0
V7,30.0,95.0,68.0,84.0,71.0,71,2640.0,square4,i,0.29,3,V,7.0
V7,31.0,95.0,61.0,81.0,70.0,61,2701.0,square2,j,0.499,1,V,7.0
V7,32.0,89.0,65.0,82.0,75.0,89,2790.0,square1,r,0.561,0,V,7.0
V7,33.0,77.0,50.0,80.0,61.0,77,2867.0,square1,r,0.091,0,V,7.0
V7,34.0,76.0,54.0,78.0,61.0,76,2943.0,square1,r,0.143,0,V,7.0
V7,35.0,71.0,51.0,80.0,64.0,71,3014.0,square1,r,0.402,0,V,7.0
V7,36.0,75.0,51.0,80.0,62.0,80,3094.0,square3,f,0.231,2,V,7.0
V7,37.0,73.0,58.0,86.0,63.0,86,3180.0,square3,f,0.396,2,V,7.0
V7,38.0,73.0,50.0,86.0,61.0,86,3266.0,square3,f,0.501,2,V,7.0
V7,39.0,67.0,53.0,78.0,61.0,78,3344.0,square3,f,0.214,2,V,7.0
V7,40.0,71.0,53.0,84.0,58.0,58,3402.0,square4,i,0.764,3,V,7.0
V7,41.0,75.0,51.0,83.0,63.0,63,3465.0,square4,i,0.137,3,V,7.0
V7,42.0,69.0,48.0,87.0,63.0,48,3513.0,square2,j,0.181,1,V,7.0
V7,43.0,70.0,58.0,81.0,60.0,70,3583.0,square1,r,0.249,0,V,7.0
V7,44.0,68.0,56.0,76.0,63.0,68,3651.0,square1,r,0.28,0,V,7.0
V7,45.0,74.0,59.0,76.0,56.0,74,3725.0,square1,r,0.148,0,V,7.0
V7,46.0,72.0,54.0,77.0,61.0,72,3797.0,square1,r,0.081,0,V,7.0
V7,47.0,69.0,47.0,81.0,62.0,69,3866.0,square1,r,0.358,0,V,7.0
V7,48.0,75.0,52.0,81.0,57.0,75,3941.0,square1,r,0.178,0,V,7.0
V7,49.0,74.0,55.0,78.0,60.0,74,4015.0,square1,r,0.283,0,V,7.0
V7,50.0,71.0,51.0,80.0,61.0,80,4095.0,square3,f,0.259,2,V,7.0
V7,51.0,75.0,55.0,85.0,62.0,85,4180.0,square3,f,0.255,2,V,7.0
V7,52.0,75.0,59.0,76.0,59.0,76,4256.0,square3,f,0.436,2,V,7.0
V7,53.0,72.0,53.0,84.0,66.0,84,4340.0,square3,f,0.449,2,V,7.0
V7,54.0,69.0,51.0,81.0,60.0,81,4421.0,square3,f,0.322,2,V,7.0
V7,55.0,74.0,56.0,75.0,54.0,75,4496.0,square3,f,0.089,2,V,7.0
V7,56.0,76.0,51.0,83.0,58.0,83,4579.0,square3,f,0.014,2,V,7.0
V7,57.0,71.0,53.0,80.0,64.0,71,4650.0,square1,r,0.847,0,V,7.0
V7,58.0,81.0,56.0,79.0,61.0,79,4729.0,square3,f,0.699,2,V,7.0
V7,59.0,71.0,55.0,83.0,59.0,83,4812.0,square3,f,0.196,2,V,7.0
V7,60.0,73.0,53.0,83.0,64.0,83,4895.0,square3,f,0.094,2,V,7.0
V7,61.0,70.0,53.0,77.0,63.0,77,4972.0,square3,f,0.051,2,V,7.0
V7,62.0,71.0,54.0,76.0,61.0,76,5048.0,square3,f,0.278,2,V,7.0
V7,63.0,68.0,45.0,79.0,65.0,79,5127.0,square3,f,0.295,2,V,7.0
V7,64.0,65.0,55.0,79.0,59.0,79,5206.0,square3,f,0.283,2,V,7.0
V7,65.0,74.0,54.0,81.0,61.0,74,5280.0,square1,r,0.259,0,V,7.0
V7,66.0,70.0,56.0,81.0,63.0,70,5350.0,square1,r,0.3,0,V,7.0
V7,67.0,70.0,85.0,64.0,92.0,70,5420.0,square1,r,0.264,0,V,7.0
V7,68.0,73.0,85.0,68.0,92.0,73,5493.0,square1,r,0.246,0,V,7.0
V7,69.0,75.0,83.0,70.0,91.0,91,5584.0,square4,i,0.121,3,V,7.0
V7,70.0,75.0,85.0,69.0,91.0,91,5675.0,square4,i,0.233,3,V,7.0
V7,71.0,71.0,86.0,65.0,94.0,94,5769.0,square4,i,0.302,3,V,7.0
V7,72.0,77.0,86.0,65.0,98.0,98,5867.0,square4,i,0.145,3,V,7.0
V7,73.0,77.0,84.0,63.0,94.0,94,5961.0,square4,i,0.228,3,V,7.0
V7,74.0,71.0,86.0,64.0,91.0,91,6052.0,square4,i,0.181,3,V,7.0
V7,75.0,73.0,90.0,60.0,90.0,90,6142.0,square4,i,0.347,3,V,7.0
V7,76.0,79.0,84.0,68.0,95.0,95,6237.0,square4,i,0.947,3,V,7.0
V7,77.0,73.0,85.0,66.0,89.0,89,6326.0,square4,i,0.377,3,V,7.0
V7,78.0,75.0,82.0,67.0,91.0,91,6417.0,square4,i,0.329,3,V,7.0
V7,79.0,72.0,85.0,60.0,90.0,85,6502.0,square2,j,0.814,1,V,7.0
V7,80.0,73.0,83.0,66.0,97.0,83,6585.0,square2,j,0.114,1,V,7.0
V7,81.0,73.0,84.0,67.0,92.0,92,6677.0,square4,i,0.416,3,V,7.0
V7,82.0,69.0,84.0,65.0,91.0,91,6768.0,square4,i,0.327,3,V,7.0
V7,83.0,76.0,83.0,72.0,99.0,99,6867.0,square4,i,0.093,3,V,7.0
V7,84.0,72.0,84.0,70.0,94.0,94,6961.0,square4,i,0.291,3,V,7.0
V7,85.0,77.0,83.0,67.0,88.0,88,7049.0,square4,i,0.258,3,V,7.0
V7,86.0,76.0,80.0,67.0,90.0,76,7125.0,square1,r,0.137,0,V,7.0
V7,87.0,70.0,86.0,67.0,95.0,67,7192.0,square3,f,0.672,2,V,7.0
V7,88.0,76.0,84.0,67.0,100.0,76,7268.0,square1,r,0.147,0,V,7.0
V7,89.0,71.0,88.0,60.0,97.0,97,7365.0,square4,i,0.147,3,V,7.0
V7,90.0,69.0,82.0,71.0,95.0,95,7460.0,square4,i,0.248,3,V,7.0
V7,91.0,80.0,84.0,65.0,92.0,92,7552.0,square4,i,0.249,3,V,7.0
V7,92.0,77.0,85.0,68.0,85.0,85,7637.0,square4,i,0.148,3,V,7.0
V7,93.0,72.0,84.0,66.0,91.0,91,7728.0,square4,i,0.162,3,V,7.0
V7,94.0,69.0,83.0,66.0,95.0,95,7823.0,square4,i,0.254,3,V,7.0
V7,95.0,70.0,86.0,75.0,91.0,91,7914.0,square4,i,0.247,3,V,7.0
V7,96.0,74.0,85.0,66.0,88.0,88,8002.0,square4,i,0.311,3,V,7.0
V7,97.0,77.0,82.0,73.0,91.0,82,8084.0,square2,j,0.243,1,V,7.0
V7,98.0,76.0,91.0,62.0,94.0,94,8178.0,square4,i,0.227,3,V,7.0
V7,99.0,74.0,84.0,67.0,88.0,88,8266.0,square4,i,0.148,3,V,7.0
V1,0.0,46.0,61.0,52.0,71.0,99999,0.0,invalid,,,-1,V,1.0
V1,1.0,45.0,63.0,54.0,78.0,63,63.0,square2,r,0.644,1,V,1.0
V1,2.0,51.0,58.0,59.0,77.0,59,122.0,square3,i,0.001,2,V,1.0
V1,3.0,53.0,65.0,56.0,75.0,53,175.0,square1,f,0.18,0,V,1.0
V1,4.0,49.0,68.0,53.0,72.0,72,247.0,square4,j,0.628,3,V,1.0
V1,5.0,47.0,70.0,59.0,76.0,76,323.0,square4,j,0.806,3,V,1.0
V1,6.0,55.0,63.0,54.0,76.0,76,399.0,square4,j,0.454,3,V,1.0
V1,7.0,47.0,67.0,55.0,74.0,74,473.0,square4,j,1.156,3,V,1.0
V1,8.0,47.0,65.0,46.0,76.0,76,549.0,square4,j,0.261,3,V,1.0
V1,9.0,46.0,68.0,59.0,78.0,68,617.0,square2,r,0.747,1,V,1.0
V1,10.0,58.0,67.0,58.0,79.0,58,675.0,square3,i,0.905,2,V,1.0
V1,11.0,44.0,61.0,54.0,72.0,54,729.0,square3,i,0.461,2,V,1.0
V1,12.0,44.0,65.0,56.0,75.0,65,794.0,square2,r,0.889,1,V,1.0
V1,13.0,47.0,63.0,53.0,73.0,63,857.0,square2,r,0.255,1,V,1.0
V1,14.0,49.0,66.0,56.0,75.0,66,923.0,square2,r,0.047,1,V,1.0
V1,15.0,49.0,66.0,52.0,79.0,49,972.0,square1,f,0.462,0,V,1.0
V1,16.0,51.0,61.0,48.0,72.0,72,1044.0,square4,j,1.42,3,V,1.0
V1,17.0,46.0,61.0,59.0,71.0,71,1115.0,square4,j,0.249,3,V,1.0
V1,18.0,45.0,61.0,53.0,72.0,72,1187.0,square4,j,0.188,3,V,1.0
V1,19.0,49.0,63.0,54.0,76.0,76,1263.0,square4,j,0.051,3,V,1.0
V1,20.0,46.0,66.0,52.0,72.0,72,1335.0,square4,j,0.061,3,V,1.0
V1,21.0,50.0,65.0,51.0,73.0,73,1408.0,square4,j,0.215,3,V,1.0
V1,22.0,56.0,62.0,56.0,77.0,77,1485.0,square4,j,0.112,3,V,1.0
V1,23.0,45.0,67.0,54.0,83.0,83,1568.0,square4,j,0.169,3,V,1.0
V1,24.0,46.0,69.0,57.0,71.0,71,1639.0,square4,j,0.268,3,V,1.0
V1,25.0,41.0,65.0,55.0,76.0,76,1715.0,square4,j,0.181,3,V,1.0
V1,26.0,51.0,60.0,55.0,74.0,74,1789.0,square4,j,0.364,3,V,1.0
V1,27.0,52.0,63.0,56.0,73.0,73,1862.0,square4,j,0.361,3,V,1.0
V1,28.0,50.0,68.0,50.0,76.0,76,1938.0,square4,j,0.314,3,V,1.0
V1,29.0,51.0,60.0,54.0,74.0,74,2012.0,square4,j,0.232,3,V,1.0
V1,30.0,35.0,67.0,57.0,40.0,40,2052.0,square4,j,0.357,3,V,1.0
V1,31.0,38.0,60.0,52.0,35.0,35,2087.0,square4,j,0.284,3,V,1.0
V1,32.0,37.0,67.0,52.0,41.0,41,2128.0,square4,j,0.26,3,V,1.0
V1,33.0,37.0,62.0,53.0,42.0,42,2170.0,square4,j,0.346,3,V,1.0
V1,34.0,35.0,58.0,54.0,43.0,43,2213.0,square4,j,0.727,3,V,1.0
V1,35.0,40.0,60.0,50.0,44.0,60,2273.0,square2,r,0.679,1,V,1.0
V1,36.0,39.0,66.0,50.0,39.0,50,2323.0,square3,i,1.101,2,V,1.0
V1,37.0,32.0,59.0,54.0,38.0,32,2355.0,square1,f,0.56,0,V,1.0
V1,38.0,32.0,64.0,50.0,39.0,64,2419.0,square2,r,0.664,1,V,1.0
V1,39.0,37.0,60.0,45.0,40.0,60,2479.0,square2,r,0.404,1,V,1.0
V1,40.0,35.0,61.0,54.0,43.0,61,2540.0,square2,r,0.3,1,V,1.0
V1,41.0,33.0,62.0,49.0,42.0,62,2602.0,square2,r,1.231,1,V,1.0
V1,42.0,31.0,70.0,52.0,42.0,52,2654.0,square3,i,0.379,2,V,1.0
V1,43.0,37.0,59.0,48.0,41.0,37,2691.0,square1,f,0.599,0,V,1.0
V1,44.0,39.0,63.0,53.0,44.0,44,2735.0,square4,j,0.446,3,V,1.0
V1,45.0,37.0,62.0,48.0,41.0,62,2797.0,square2,r,1.195,1,V,1.0
V1,46.0,34.0,65.0,52.0,39.0,65,2862.0,square2,r,0.197,1,V,1.0
V1,47.0,42.0,59.0,52.0,43.0,59,2921.0,square2,r,0.361,1,V,1.0
V1,48.0,39.0,62.0,50.0,38.0,62,2983.0,square2,r,0.181,1,V,1.0
V1,49.0,33.0,63.0,49.0,40.0,63,3046.0,square2,r,0.503,1,V,1.0
V1,50.0,38.0,66.0,54.0,37.0,66,3112.0,square2,r,0.432,1,V,1.0
V1,51.0,33.0,66.0,50.0,37.0,66,3178.0,square2,r,0.445,1,V,1.0
V1,52.0,41.0,65.0,55.0,44.0,65,3243.0,square2,r,0.924,1,V,1.0
V1,53.0,75.0,50.0,46.0,60.0,50,3293.0,square2,r,0.715,1,V,1.0
V1,54.0,74.0,53.0,45.0,61.0,45,3338.0,square3,i,0.86,2,V,1.0
V1,55.0,74.0,54.0,43.0,65.0,65,3403.0,square4,j,0.731,3,V,1.0
V1,56.0,73.0,54.0,44.0,56.0,73,3476.0,square1,f,0.066,0,V,1.0
V1,57.0,67.0,58.0,52.0,63.0,67,3543.0,square1,f,0.878,0,V,1.0
V1,58.0,72.0,51.0,43.0,62.0,72,3615.0,square1,f,0.348,0,V,1.0
V1,59.0,68.0,47.0,49.0,56.0,68,3683.0,square1,f,0.529,0,V,1.0
V1,60.0,72.0,55.0,46.0,65.0,72,3755.0,square1,f,0.431,0,V,1.0
V1,61.0,76.0,50.0,46.0,62.0,76,3831.0,square1,f,0.329,0,V,1.0
V1,62.0,77.0,58.0,46.0,66.0,77,3908.0,square1,f,0.512,0,V,1.0
V1,63.0,72.0,53.0,48.0,66.0,72,3980.0,square1,f,0.014,0,V,1.0
V1,64.0,70.0,49.0,49.0,60.0,70,4050.0,square1,f,0.3,0,V,1.0
V1,65.0,68.0,49.0,46.0,66.0,68,4118.0,square1,f,0.627,0,V,1.0
V1,66.0,77.0,52.0,41.0,64.0,77,4195.0,square1,f,0.945,0,V,1.0
V1,67.0,74.0,56.0,42.0,69.0,74,4269.0,square1,f,0.081,0,V,1.0
V1,68.0,77.0,50.0,46.0,68.0,77,4346.0,square1,f,0.017,0,V,1.0
V1,69.0,76.0,48.0,45.0,63.0,76,4422.0,square1,f,0.146,0,V,1.0
V1,70.0,71.0,53.0,50.0,65.0,71,4493.0,square1,f,0.778,0,V,1.0
V1,71.0,70.0,56.0,44.0,59.0,70,4563.0,square1,f,0.531,0,V,1.0
V1,72.0,74.0,54.0,55.0,61.0,54,4617.0,square2,r,0.082,1,V,1.0
V1,73.0,73.0,53.0,47.0,61.0,53,4670.0,square2,r,0.001,1,V,1.0
V1,74.0,71.0,53.0,51.0,65.0,51,4721.0,square3,i,0.164,2,V,1.0
V1,75.0,72.0,51.0,48.0,64.0,64,4785.0,square4,j,0.399,3,V,1.0
V1,76.0,72.0,53.0,49.0,62.0,72,4857.0,square1,f,0.456,0,V,1.0
V1,77.0,62.0,76.0,64.0,86.0,62,4919.0,square1,f,0.416,0,V,1.0
V1,78.0,61.0,74.0,63.0,87.0,74,4993.0,square2,r,0.07,1,V,1.0
V1,79.0,56.0,78.0,67.0,89.0,78,5071.0,square2,r,0.479,1,V,1.0
V1,80.0,59.0,75.0,63.0,84.0,75,5146.0,square2,r,0.332,1,V,1.0
V1,81.0,63.0,74.0,68.0,82.0,74,5220.0,square2,r,0.23,1,V,1.0
V1,82.0,59.0,75.0,67.0,80.0,75,5295.0,square2,r,0.214,1,V,1.0
V1,83.0,58.0,77.0,63.0,82.0,77,5372.0,square2,r,0.187,1,V,1.0
V1,84.0,57.0,76.0,64.0,87.0,76,5448.0,square2,r,0.001,1,V,1.0
V1,85.0,61.0,73.0,66.0,83.0,73,5521.0,square2,r,0.195,1,V,1.0
V1,86.0,60.0,71.0,66.0,85.0,71,5592.0,square2,r,0.404,1,V,1.0
V1,87.0,61.0,80.0,73.0,84.0,80,5672.0,square2,r,0.19,1,V,1.0
V1,88.0,67.0,77.0,67.0,85.0,77,5749.0,square2,r,0.159,1,V,1.0
V1,89.0,60.0,79.0,63.0,86.0,79,5828.0,square2,r,0.392,1,V,1.0
V1,90.0,60.0,74.0,66.0,88.0,74,5902.0,square2,r,0.262,1,V,1.0
V1,91.0,57.0,81.0,61.0,79.0,81,5983.0,square2,r,0.327,1,V,1.0
V1,92.0,61.0,78.0,61.0,84.0,78,6061.0,square2,r,0.581,1,V,1.0
V1,93.0,64.0,72.0,69.0,83.0,72,6133.0,square2,r,0.636,1,V,1.0
V1,94.0,64.0,73.0,68.0,83.0,73,6206.0,square2,r,0.4,1,V,1.0
V1,95.0,61.0,69.0,68.0,87.0,69,6275.0,square2,r,0.303,1,V,1.0
V1,96.0,55.0,77.0,65.0,88.0,77,6352.0,square2,r,0.827,1,V,1.0
V1,97.0,61.0,75.0,63.0,82.0,75,6427.0,square2,r,0.635,1,V,1.0
V1,98.0,59.0,71.0,66.0,82.0,71,6498.0,square2,r,0.061,1,V,1.0
V1,99.0,61.0,69.0,67.0,84.0,99999,6498.0,invalid,,,-1,V,1.0
V3,0.0,62.0,45.0,70.0,53.0,62,62.0,square1,r,0.534,0,V,3.0
V3,1.0,63.0,47.0,76.0,60.0,47,109.0,square2,i,0.319,1,V,3.0
V3,2.0,65.0,54.0,73.0,57.0,57,166.0,square4,f,0.454,3,V,3.0
V3,3.0,68.0,51.0,71.0,51.0,71,237.0,square3,j,0.681,2,V,3.0
V3,4.0,61.0,49.0,75.0,53.0,61,298.0,square1,r,0.308,0,V,3.0
V3,5.0,65.0,47.0,74.0,50.0,74,372.0,square3,j,0.076,2,V,3.0
V3,6.0,61.0,51.0,72.0,57.0,72,444.0,square3,j,0.558,2,V,3.0
V3,7.0,67.0,49.0,75.0,55.0,75,519.0,square3,j,0.513,2,V,3.0
V3,8.0,64.0,48.0,76.0,56.0,76,595.0,square3,j,0.696,2,V,3.0
V3,9.0,67.0,49.0,71.0,56.0,71,666.0,square3,j,0.538,2,V,3.0
V3,10.0,65.0,50.0,71.0,56.0,71,737.0,square3,j,0.457,2,V,3.0
V3,11.0,63.0,43.0,78.0,58.0,78,815.0,square3,j,0.378,2,V,3.0
V3,12.0,66.0,53.0,73.0,54.0,53,868.0,square2,i,0.415,1,V,3.0
V3,13.0,64.0,46.0,78.0,51.0,78,946.0,square3,j,0.612,2,V,3.0
V3,14.0,67.0,51.0,71.0,58.0,71,1017.0,square3,j,0.044,2,V,3.0
V3,15.0,61.0,50.0,73.0,54.0,73,1090.0,square3,j,0.668,2,V,3.0
V3,16.0,64.0,52.0,74.0,54.0,74,1164.0,square3,j,0.831,2,V,3.0
V3,17.0,61.0,48.0,74.0,55.0,74,1238.0,square3,j,0.7,2,V,3.0
V3,18.0,65.0,50.0,70.0,59.0,70,1308.0,square3,j,0.505,2,V,3.0
V3,19.0,64.0,52.0,76.0,56.0,64,1372.0,square1,r,0.912,0,V,3.0
V3,20.0,64.0,50.0,69.0,58.0,64,1436.0,square1,r,0.512,0,V,3.0
V3,21.0,66.0,50.0,72.0,56.0,50,1486.0,square2,i,0.477,1,V,3.0
V3,22.0,43.0,48.0,40.0,62.0,62,1548.0,square4,f,0.777,3,V,3.0
V3,23.0,41.0,51.0,35.0,59.0,35,1583.0,square3,j,0.434,2,V,3.0
V3,24.0,51.0,51.0,37.0,60.0,51,1634.0,square1,r,0.503,0,V,3.0
V3,25.0,45.0,53.0,36.0,57.0,45,1679.0,square1,r,0.389,0,V,3.0
V3,26.0,44.0,51.0,38.0,59.0,51,1730.0,square2,i,0.594,1,V,3.0
V3,27.0,43.0,51.0,34.0,66.0,66,1796.0,square4,f,0.214,3,V,3.0
V3,28.0,47.0,51.0,40.0,67.0,67,1863.0,square4,f,0.299,3,V,3.0
V3,29.0,42.0,55.0,35.0,65.0,65,1928.0,square4,f,0.101,3,V,3.0
V3,30.0,49.0,54.0,36.0,62.0,62,1990.0,square4,f,0.001,3,V,3.0
V3,31.0,50.0,53.0,42.0,66.0,42,2032.0,square3,j,0.544,2,V,3.0
V3,32.0,47.0,53.0,34.0,58.0,47,2079.0,square1,r,0.559,0,V,3.0
V3,33.0,45.0,56.0,34.0,62.0,56,2135.0,square2,i,0.046,1,V,3.0
V3,34.0,48.0,54.0,38.0,64.0,64,2199.0,square4,f,0.966,3,V,3.0
V3,35.0,39.0,55.0,42.0,65.0,65,2264.0,square4,f,0.247,3,V,3.0
V3,36.0,46.0,57.0,41.0,63.0,63,2327.0,square4,f,0.027,3,V,3.0
V3,37.0,43.0,54.0,41.0,65.0,65,2392.0,square4,f,0.443,3,V,3.0
V3,38.0,47.0,52.0,37.0,63.0,63,2455.0,square4,f,0.159,3,V,3.0
V3,39.0,47.0,53.0,38.0,55.0,53,2508.0,square2,i,0.397,1,V,3.0
V3,40.0,41.0,54.0,39.0,64.0,64,2572.0,square4,f,0.51,3,V,3.0
V3,41.0,48.0,52.0,38.0,64.0,64,2636.0,square4,f,0.179,3,V,3.0
V3,42.0,45.0,50.0,34.0,63.0,63,2699.0,square4,f,0.339,3,V,3.0
V3,43.0,44.0,50.0,34.0,62.0,62,2761.0,square4,f,0.311,3,V,3.0
V3,44.0,47.0,55.0,39.0,65.0,65,2826.0,square4,f,0.296,3,V,3.0
V3,45.0,45.0,55.0,31.0,63.0,63,2889.0,square4,f,0.095,3,V,3.0
V3,46.0,42.0,52.0,38.0,64.0,42,2931.0,square1,r,0.265,0,V,3.0
V3,47.0,44.0,53.0,37.0,55.0,55,2986.0,square4,f,0.157,3,V,3.0
V3,48.0,44.0,49.0,37.0,58.0,37,3023.0,square3,j,0.583,2,V,3.0
V3,49.0,48.0,58.0,35.0,54.0,58,3081.0,square2,i,0.219,1,V,3.0
V3,50.0,42.0,28.0,30.0,52.0,52,3133.0,square4,f,0.266,3,V,3.0
V3,51.0,46.0,29.0,32.0,51.0,51,3184.0,square4,f,0.303,3,V,3.0
V3,52.0,37.0,20.0,36.0,50.0,50,3234.0,square4,f,0.15,3,V,3.0
V3,53.0,44.0,22.0,34.0,55.0,55,3289.0,square4,f,0.181,3,V,3.0
V3,54.0,37.0,27.0,26.0,50.0,50,3339.0,square4,f,0.001,3,V,3.0
V3,55.0,41.0,21.0,39.0,53.0,53,3392.0,square4,f,0.045,3,V,3.0
V3,56.0,40.0,20.0,38.0,51.0,40,3432.0,square1,r,0.444,0,V,3.0
V3,57.0,44.0,28.0,31.0,57.0,31,3463.0,square3,j,0.111,2,V,3.0
V3,58.0,46.0,20.0,28.0,49.0,20,3483.0,square2,i,0.281,1,V,3.0
V3,59.0,44.0,24.0,30.0,55.0,55,3538.0,square4,f,0.35,3,V,3.0
V3,60.0,42.0,29.0,29.0,51.0,51,3589.0,square4,f,0.364,3,V,3.0
V3,61.0,41.0,21.0,30.0,46.0,46,3635.0,square4,f,0.251,3,V,3.0
V3,62.0,41.0,27.0,31.0,49.0,49,3684.0,square4,f,0.096,3,V,3.0
V3,63.0,42.0,27.0,34.0,51.0,51,3735.0,square4,f,0.347,3,V,3.0
V3,64.0,41.0,24.0,30.0,47.0,47,3782.0,square4,f,0.251,3,V,3.0
V3,65.0,36.0,18.0,34.0,48.0,48,3830.0,square4,f,0.058,3,V,3.0
V3,66.0,39.0,28.0,35.0,45.0,45,3875.0,square4,f,0.05,3,V,3.0
V3,67.0,42.0,21.0,32.0,46.0,46,3921.0,square4,f,0.244,3,V,3.0
V3,68.0,40.0,24.0,35.0,53.0,40,3961.0,square1,r,0.162,0,V,3.0
V3,69.0,48.0,23.0,34.0,50.0,23,3984.0,square2,i,0.291,1,V,3.0
V3,70.0,40.0,27.0,31.0,49.0,31,4015.0,square3,j,0.022,2,V,3.0
V3,71.0,41.0,23.0,28.0,51.0,41,4056.0,square1,r,0.32,0,V,3.0
V3,72.0,42.0,25.0,33.0,55.0,42,4098.0,square1,r,0.003,0,V,3.0
V3,73.0,41.0,24.0,35.0,55.0,41,4139.0,square1,r,0.38,0,V,3.0
V3,74.0,38.0,26.0,28.0,53.0,53,4192.0,square4,f,0.359,3,V,3.0
V3,75.0,54.0,39.0,69.0,50.0,50,4242.0,square4,f,0.123,3,V,3.0
V3,76.0,55.0,42.0,64.0,53.0,53,4295.0,square4,f,0.131,3,V,3.0
V3,77.0,59.0,37.0,66.0,44.0,44,4339.0,square4,f,0.0,3,V,3.0
V3,78.0,58.0,38.0,60.0,46.0,46,4385.0,square4,f,0.046,3,V,3.0
V3,79.0,54.0,35.0,66.0,49.0,49,4434.0,square4,f,0.135,3,V,3.0
V3,80.0,60.0,36.0,68.0,44.0,44,4478.0,square4,f,0.256,3,V,3.0
V3,81.0,55.0,38.0,66.0,51.0,51,4529.0,square4,f,0.17,3,V,3.0
V3,82.0,57.0,47.0,64.0,50.0,50,4579.0,square4,f,0.213,3,V,3.0
V3,83.0,57.0,37.0,63.0,45.0,45,4624.0,square4,f,0.114,3,V,3.0
V3,84.0,54.0,40.0,65.0,53.0,53,4677.0,square4,f,1.061,3,V,3.0
V3,85.0,58.0,41.0,63.0,48.0,48,4725.0,square4,f,0.343,3,V,3.0
V3,86.0,53.0,38.0,57.0,49.0,49,4774.0,square4,f,0.212,3,V,3.0
V3,87.0,49.0,42.0,60.0,43.0,43,4817.0,square4,f,0.15,3,V,3.0
V3,88.0,56.0,35.0,70.0,46.0,46,4863.0,square4,f,0.115,3,V,3.0
V3,89.0,58.0,39.0,63.0,52.0,52,4915.0,square4,f,0.247,3,V,3.0
V3,90.0,59.0,43.0,63.0,45.0,45,4960.0,square4,f,0.947,3,V,3.0
V3,91.0,54.0,37.0,69.0,49.0,54,5014.0,square1,r,0.162,0,V,3.0
V3,92.0,56.0,41.0,61.0,47.0,41,5055.0,square2,i,1.06,1,V,3.0
V3,93.0,58.0,35.0,68.0,47.0,68,5123.0,square3,j,0.0,2,V,3.0
V3,94.0,61.0,37.0,67.0,51.0,67,5190.0,square3,j,0.36,2,V,3.0
V3,95.0,57.0,32.0,64.0,47.0,64,5254.0,square3,j,0.435,2,V,3.0
V3,96.0,53.0,38.0,63.0,48.0,63,5317.0,square3,j,0.033,2,V,3.0
V3,97.0,57.0,44.0,71.0,50.0,71,5388.0,square3,j,0.076,2,V,3.0
V3,98.0,56.0,39.0,70.0,47.0,70,5458.0,square3,j,0.252,2,V,3.0
V3,99.0,62.0,40.0,67.0,49.0,67,5525.0,square3,j,0.648,2,V,3.0
