block,Trial,square1,square2,square3,square4,currPoints,totalPoints,square,choiceKey.keys,choiceKey.rt,armNum,blockType,blockNum
prac,0.0,100.0,0.0,0.0,0.0,99999,0.0,invalid,,,-1,p,0.0
prac,1.0,100.0,0.0,0.0,0.0,0,0.0,square3,,,2,p,0.0
prac,2.0,100.0,0.0,0.0,0.0,0,0.0,square2,,,1,p,0.0
prac,3.0,100.0,0.0,0.0,0.0,0,0.0,square4,,,3,p,0.0
prac,4.0,100.0,0.0,0.0,0.0,0,0.0,square3,,,2,p,0.0
prac,5.0,100.0,0.0,0.0,0.0,0,0.0,square2,,,1,p,0.0
prac,6.0,100.0,0.0,0.0,0.0,0,0.0,square4,,,3,p,0.0
prac,7.0,100.0,0.0,0.0,0.0,100,100.0,square1,,,0,p,0.0
prac,8.0,100.0,0.0,0.0,0.0,100,200.0,square1,,,0,p,0.0
prac,9.0,100.0,0.0,0.0,0.0,100,300.0,square1,,,0,p,0.0
S1,0.0,72.0,58.0,70.0,66.0,58,58.0,square2,r,1.143,1,S,1.0
S1,1.0,75.0,64.0,66.0,69.0,64,122.0,square2,r,0.058,1,S,1.0
S1,2.0,75.0,62.0,62.0,79.0,62,184.0,square2,r,0.196,1,S,1.0
S1,3.0,68.0,62.0,63.0,69.0,62,246.0,square2,r,0.217,1,S,1.0
S1,4.0,82.0,63.0,64.0,73.0,63,309.0,square2,r,0.157,1,S,1.0
S1,5.0,66.0,70.0,65.0,73.0,70,379.0,square2,r,0.058,1,S,1.0
S1,6.0,73.0,65.0,62.0,65.0,65,444.0,square2,r,0.502,1,S,1.0
S1,7.0,70.0,61.0,65.0,66.0,61,505.0,square2,r,0.184,1,S,1.0
S1,8.0,78.0,63.0,67.0,68.0,63,568.0,square2,r,0.059,1,S,1.0
S1,9.0,74.0,67.0,66.0,68.0,67,635.0,square2,r,0.224,1,S,1.0
S1,10.0,73.0,59.0,68.0,68.0,73,708.0,square1,i,0.212,0,S,1.0
S1,11.0,76.0,65.0,62.0,81.0,76,784.0,square1,i,0.063,0,S,1.0
S1,12.0,77.0,66.0,69.0,63.0,69,853.0,square3,j,0.683,2,S,1.0
S1,13.0,75.0,63.0,68.0,73.0,73,926.0,square4,f,0.246,3,S,1.0
S1,14.0,67.0,60.0,67.0,69.0,69,995.0,square4,f,0.087,3,S,1.0
S1,15.0,70.0,63.0,69.0,73.0,70,1065.0,square1,i,0.049,0,S,1.0
S1,16.0,69.0,61.0,69.0,69.0,69,1134.0,square1,i,0.144,0,S,1.0
S1,17.0,73.0,68.0,67.0,73.0,68,1202.0,square2,r,0.39,1,S,1.0
S1,18.0,70.0,58.0,73.0,66.0,70,1272.0,square1,i,0.099,0,S,1.0
S1,19.0,75.0,58.0,62.0,68.0,75,1347.0,square1,i,0.12,0,S,1.0
S1,20.0,76.0,58.0,72.0,67.0,76,1423.0,square1,i,0.017,0,S,1.0
S1,21.0,69.0,66.0,66.0,67.0,69,1492.0,square1,i,0.467,0,S,1.0
S1,22.0,70.0,68.0,65.0,65.0,65,1557.0,square4,f,0.21,3,S,1.0
S1,23.0,71.0,60.0,64.0,64.0,64,1621.0,square3,j,0.174,2,S,1.0
S1,24.0,70.0,72.0,62.0,67.0,62,1683.0,square3,j,0.178,2,S,1.0
S1,25.0,68.0,60.0,70.0,65.0,60,1743.0,square2,r,0.0,1,S,1.0
S1,26.0,76.0,64.0,72.0,69.0,76,1819.0,square1,i,0.044,0,S,1.0
S1,27.0,71.0,56.0,70.0,65.0,71,1890.0,square1,i,0.617,0,S,1.0
S1,28.0,67.0,67.0,71.0,76.0,67,1957.0,square1,i,0.225,0,S,1.0
S1,29.0,78.0,64.0,64.0,74.0,74,2031.0,square4,f,0.392,3,S,1.0
S1,30.0,74.0,63.0,65.0,71.0,71,2102.0,square4,f,0.224,3,S,1.0
S1,31.0,78.0,58.0,69.0,69.0,69,2171.0,square4,f,0.313,3,S,1.0
S1,32.0,71.0,67.0,68.0,60.0,71,2242.0,square1,i,0.12,0,S,1.0
S1,33.0,68.0,63.0,65.0,73.0,68,2310.0,square1,i,0.157,0,S,1.0
S1,34.0,71.0,62.0,74.0,73.0,71,2381.0,square1,i,0.111,0,S,1.0
S1,35.0,75.0,59.0,67.0,77.0,75,2456.0,square1,i,0.546,0,S,1.0
S1,36.0,77.0,60.0,66.0,67.0,77,2533.0,square1,i,0.282,0,S,1.0
S1,37.0,69.0,60.0,69.0,75.0,69,2602.0,square1,i,0.146,0,S,1.0
S1,38.0,77.0,64.0,62.0,70.0,70,2672.0,square4,f,0.126,3,S,1.0
S1,39.0,72.0,66.0,69.0,65.0,66,2738.0,square2,r,0.366,1,S,1.0
S1,40.0,69.0,63.0,66.0,69.0,69,2807.0,square4,f,0.182,3,S,1.0
S1,41.0,72.0,62.0,70.0,70.0,72,2879.0,square1,i,0.177,0,S,1.0
S1,42.0,78.0,60.0,63.0,62.0,78,2957.0,square1,i,0.071,0,S,1.0
S1,43.0,71.0,62.0,67.0,73.0,71,3028.0,square1,i,0.056,0,S,1.0
S1,44.0,75.0,63.0,69.0,73.0,75,3103.0,square1,i,0.007,0,S,1.0
S1,45.0,66.0,60.0,68.0,73.0,66,3169.0,square1,i,0.057,0,S,1.0
S1,46.0,74.0,67.0,69.0,71.0,74,3243.0,square1,i,0.051,0,S,1.0
S1,47.0,71.0,66.0,68.0,70.0,71,3314.0,square1,i,0.171,0,S,1.0
S1,48.0,72.0,75.0,71.0,77.0,72,3386.0,square1,i,0.077,0,S,1.0
S1,49.0,65.0,57.0,66.0,75.0,65,3451.0,square1,i,0.05,0,S,1.0
S7,0.0,68.0,73.0,62.0,57.0,68,68.0,square1,r,1.139,0,S,7.0
S7,1.0,74.0,67.0,66.0,59.0,66,134.0,square3,i,0.39,2,S,7.0
S7,2.0,68.0,69.0,65.0,60.0,69,203.0,square2,f,0.486,1,S,7.0
S7,3.0,74.0,68.0,65.0,63.0,63,266.0,square4,j,0.043,3,S,7.0
S7,4.0,68.0,74.0,67.0,63.0,68,334.0,square1,r,0.219,0,S,7.0
S7,5.0,68.0,67.0,61.0,57.0,67,401.0,square2,f,0.068,1,S,7.0
S7,6.0,72.0,64.0,65.0,51.0,64,465.0,square2,f,0.065,1,S,7.0
S7,7.0,69.0,63.0,69.0,63.0,69,534.0,square1,r,0.077,0,S,7.0
S7,8.0,71.0,68.0,63.0,54.0,71,605.0,square1,r,0.042,0,S,7.0
S7,9.0,81.0,66.0,68.0,62.0,81,686.0,square1,r,0.0,0,S,7.0
S7,10.0,72.0,73.0,68.0,61.0,72,758.0,square1,r,0.101,0,S,7.0
S7,11.0,72.0,72.0,62.0,58.0,72,830.0,square1,r,0.056,0,S,7.0
S7,12.0,66.0,66.0,62.0,61.0,62,892.0,square3,i,0.521,2,S,7.0
S7,13.0,73.0,75.0,75.0,68.0,73,965.0,square1,r,0.061,0,S,7.0
S7,14.0,71.0,73.0,72.0,66.0,71,1036.0,square1,r,0.082,0,S,7.0
S7,15.0,75.0,68.0,68.0,65.0,75,1111.0,square1,r,0.041,0,S,7.0
S7,16.0,67.0,65.0,62.0,56.0,67,1178.0,square1,r,0.109,0,S,7.0
S7,17.0,72.0,67.0,63.0,64.0,72,1250.0,square1,r,0.111,0,S,7.0
S7,18.0,73.0,69.0,66.0,65.0,73,1323.0,square1,r,0.195,0,S,7.0
S7,19.0,75.0,70.0,62.0,58.0,75,1398.0,square1,r,0.025,0,S,7.0
S7,20.0,76.0,63.0,67.0,62.0,76,1474.0,square1,r,0.127,0,S,7.0
S7,21.0,79.0,76.0,63.0,64.0,79,1553.0,square1,r,0.09,0,S,7.0
S7,22.0,67.0,72.0,63.0,62.0,67,1620.0,square1,r,0.117,0,S,7.0
S7,23.0,69.0,71.0,70.0,62.0,69,1689.0,square1,r,0.002,0,S,7.0
S7,24.0,74.0,67.0,70.0,62.0,74,1763.0,square1,r,0.001,0,S,7.0
S7,25.0,70.0,67.0,72.0,62.0,70,1833.0,square1,r,0.184,0,S,7.0
S7,26.0,72.0,62.0,74.0,65.0,72,1905.0,square1,r,0.029,0,S,7.0
S7,27.0,69.0,70.0,68.0,62.0,69,1974.0,square1,r,0.0,0,S,7.0
S7,28.0,65.0,66.0,60.0,62.0,65,2039.0,square1,r,0.0,0,S,7.0
S7,29.0,70.0,64.0,60.0,68.0,70,2109.0,square1,r,0.186,0,S,7.0
S7,30.0,69.0,69.0,64.0,57.0,69,2178.0,square1,r,0.126,0,S,7.0
S7,31.0,77.0,67.0,65.0,60.0,77,2255.0,square1,r,0.001,0,S,7.0
S7,32.0,67.0,75.0,65.0,58.0,67,2322.0,square1,r,0.027,0,S,7.0
S7,33.0,74.0,66.0,66.0,60.0,74,2396.0,square1,r,1.211,0,S,7.0
S7,34.0,72.0,72.0,66.0,61.0,72,2468.0,square1,r,0.054,0,S,7.0
S7,35.0,67.0,68.0,64.0,62.0,67,2535.0,square1,r,0.045,0,S,7.0
S7,36.0,64.0,63.0,70.0,58.0,64,2599.0,square1,r,0.212,0,S,7.0
S7,37.0,80.0,72.0,64.0,53.0,80,2679.0,square1,r,0.094,0,S,7.0
S7,38.0,78.0,69.0,76.0,67.0,78,2757.0,square1,r,0.158,0,S,7.0
S7,39.0,69.0,66.0,60.0,67.0,69,2826.0,square1,r,0.148,0,S,7.0
S7,40.0,72.0,71.0,63.0,66.0,72,2898.0,square1,r,0.109,0,S,7.0
S7,41.0,80.0,73.0,65.0,63.0,80,2978.0,square1,r,0.151,0,S,7.0
S7,42.0,77.0,60.0,65.0,59.0,77,3055.0,square1,r,0.074,0,S,7.0
S7,43.0,70.0,72.0,70.0,63.0,70,3125.0,square1,r,0.051,0,S,7.0
S7,44.0,77.0,70.0,66.0,58.0,77,3202.0,square1,r,0.071,0,S,7.0
S7,45.0,75.0,69.0,73.0,58.0,75,3277.0,square1,r,0.001,0,S,7.0
S7,46.0,74.0,71.0,63.0,63.0,74,3351.0,square1,r,0.094,0,S,7.0
S7,47.0,73.0,75.0,71.0,64.0,73,3424.0,square1,r,0.196,0,S,7.0
S7,48.0,78.0,79.0,64.0,58.0,78,3502.0,square1,r,0.013,0,S,7.0
S7,49.0,75.0,72.0,66.0,72.0,75,3577.0,square1,r,0.044,0,S,7.0
S2,0.0,62.0,57.0,71.0,74.0,74,74.0,square4,r,0.608,3,S,2.0
S2,1.0,64.0,59.0,72.0,67.0,64,138.0,square1,i,0.23,0,S,2.0
S2,2.0,68.0,57.0,75.0,68.0,68,206.0,square1,i,0.043,0,S,2.0
S2,3.0,69.0,57.0,80.0,70.0,69,275.0,square1,i,0.907,0,S,2.0
S2,4.0,66.0,60.0,74.0,68.0,74,349.0,square3,f,0.047,2,S,2.0
S2,5.0,63.0,62.0,77.0,72.0,77,426.0,square3,f,0.067,2,S,2.0
S2,6.0,69.0,61.0,75.0,74.0,75,501.0,square3,f,0.075,2,S,2.0
S2,7.0,74.0,66.0,79.0,72.0,66,567.0,square2,j,0.056,1,S,2.0
S2,8.0,81.0,65.0,76.0,72.0,65,632.0,square2,j,0.055,1,S,2.0
S2,9.0,70.0,66.0,78.0,70.0,66,698.0,square2,j,0.018,1,S,2.0
S2,10.0,70.0,72.0,70.0,74.0,74,772.0,square4,r,0.021,3,S,2.0
S2,11.0,64.0,66.0,72.0,67.0,67,839.0,square4,r,0.009,3,S,2.0
S2,12.0,66.0,57.0,70.0,67.0,67,906.0,square4,r,0.632,3,S,2.0
S2,13.0,68.0,68.0,71.0,73.0,71,977.0,square3,f,0.267,2,S,2.0
S2,14.0,70.0,63.0,77.0,71.0,77,1054.0,square3,f,0.061,2,S,2.0
S2,15.0,64.0,66.0,75.0,66.0,75,1129.0,square3,f,0.0,2,S,2.0
S2,16.0,67.0,61.0,73.0,70.0,73,1202.0,square3,f,0.157,2,S,2.0
S2,17.0,65.0,58.0,71.0,75.0,71,1273.0,square3,f,0.124,2,S,2.0
S2,18.0,72.0,64.0,81.0,61.0,81,1354.0,square3,f,0.068,2,S,2.0
S2,19.0,60.0,63.0,72.0,65.0,72,1426.0,square3,f,0.121,2,S,2.0
S2,20.0,68.0,56.0,71.0,70.0,71,1497.0,square3,f,0.189,2,S,2.0
S2,21.0,65.0,65.0,74.0,71.0,74,1571.0,square3,f,0.123,2,S,2.0
S2,22.0,69.0,62.0,77.0,72.0,77,1648.0,square3,f,0.096,2,S,2.0
S2,23.0,64.0,71.0,74.0,65.0,74,1722.0,square3,f,0.1,2,S,2.0
S2,24.0,66.0,62.0,78.0,70.0,78,1800.0,square3,f,0.148,2,S,2.0
S2,25.0,67.0,69.0,76.0,66.0,76,1876.0,square3,f,0.213,2,S,2.0
S2,26.0,65.0,63.0,74.0,69.0,74,1950.0,square3,f,0.212,2,S,2.0
S2,27.0,68.0,64.0,67.0,68.0,67,2017.0,square3,f,0.377,2,S,2.0
S2,28.0,61.0,52.0,71.0,68.0,71,2088.0,square3,f,0.178,2,S,2.0
S2,29.0,67.0,64.0,73.0,69.0,73,2161.0,square3,f,0.144,2,S,2.0
S2,30.0,67.0,53.0,77.0,67.0,77,2238.0,square3,f,0.001,2,S,2.0
S2,31.0,67.0,69.0,69.0,68.0,69,2307.0,square3,f,0.175,2,S,2.0
S2,32.0,71.0,63.0,73.0,70.0,73,2380.0,square3,f,0.104,2,S,2.0
S2,33.0,61.0,65.0,68.0,71.0,68,2448.0,square3,f,0.178,2,S,2.0
S2,34.0,66.0,55.0,78.0,68.0,78,2526.0,square3,f,0.078,2,S,2.0
S2,35.0,60.0,57.0,66.0,66.0,66,2592.0,square3,f,0.232,2,S,2.0
S2,36.0,64.0,63.0,73.0,72.0,73,2665.0,square3,f,0.203,2,S,2.0
S2,37.0,65.0,62.0,75.0,68.0,75,2740.0,square3,f,0.013,2,S,2.0
S2,38.0,69.0,57.0,71.0,62.0,71,2811.0,square3,f,0.201,2,S,2.0
S2,39.0,72.0,66.0,74.0,74.0,74,2885.0,square3,f,0.043,2,S,2.0
S2,40.0,66.0,63.0,76.0,59.0,76,2961.0,square3,f,0.143,2,S,2.0
S2,41.0,74.0,64.0,67.0,76.0,67,3028.0,square3,f,0.119,2,S,2.0
S2,42.0,62.0,67.0,72.0,68.0,72,3100.0,square3,f,0.188,2,S,2.0
S2,43.0,69.0,63.0,75.0,71.0,75,3175.0,square3,f,0.212,2,S,2.0
S2,44.0,72.0,60.0,74.0,67.0,74,3249.0,square3,f,0.112,2,S,2.0
S2,45.0,69.0,63.0,76.0,73.0,76,3325.0,square3,f,0.177,2,S,2.0
S2,46.0,64.0,71.0,75.0,72.0,75,3400.0,square3,f,0.043,2,S,2.0
S2,47.0,75.0,62.0,75.0,69.0,75,3475.0,square3,f,0.113,2,S,2.0
S2,48.0,66.0,65.0,74.0,68.0,74,3549.0,square3,f,0.267,2,S,2.0
S2,49.0,67.0,64.0,72.0,76.0,72,3621.0,square3,f,0.12,2,S,2.0
S11,0.0,49.0,53.0,49.0,45.0,53,53.0,square2,r,0.711,1,S,11.0
S11,1.0,54.0,56.0,42.0,50.0,56,109.0,square2,r,0.059,1,S,11.0
S11,2.0,39.0,51.0,39.0,43.0,51,160.0,square2,r,0.033,1,S,11.0
S11,3.0,53.0,50.0,38.0,43.0,38,198.0,square3,i,0.052,2,S,11.0
S11,4.0,47.0,54.0,39.0,48.0,39,237.0,square3,i,0.015,2,S,11.0
S11,5.0,47.0,52.0,40.0,46.0,40,277.0,square3,i,0.213,2,S,11.0
S11,6.0,47.0,46.0,44.0,54.0,47,324.0,square1,j,0.099,0,S,11.0
S11,7.0,48.0,51.0,35.0,51.0,48,372.0,square1,j,0.211,0,S,11.0
S11,8.0,52.0,49.0,36.0,43.0,52,424.0,square1,j,0.26,0,S,11.0
S11,9.0,47.0,53.0,41.0,55.0,55,479.0,square4,f,0.053,3,S,11.0
S11,10.0,44.0,48.0,41.0,43.0,43,522.0,square4,f,0.227,3,S,11.0
S11,11.0,41.0,54.0,38.0,43.0,43,565.0,square4,f,0.056,3,S,11.0
S11,12.0,45.0,54.0,44.0,45.0,44,609.0,square3,i,0.071,2,S,11.0
S11,13.0,54.0,52.0,44.0,50.0,44,653.0,square3,i,0.001,2,S,11.0
S11,14.0,57.0,58.0,36.0,45.0,36,689.0,square3,i,0.179,2,S,11.0
S11,15.0,48.0,54.0,43.0,49.0,54,743.0,square2,r,0.0,1,S,11.0
S11,16.0,58.0,47.0,42.0,46.0,47,790.0,square2,r,0.144,1,S,11.0
S11,17.0,41.0,61.0,42.0,53.0,61,851.0,square2,r,0.084,1,S,11.0
S11,18.0,51.0,58.0,33.0,39.0,58,909.0,square2,r,0.146,1,S,11.0
S11,19.0,48.0,49.0,37.0,42.0,49,958.0,square2,r,0.089,1,S,11.0
S11,20.0,52.0,52.0,45.0,46.0,52,1010.0,square2,r,0.098,1,S,11.0
S11,21.0,47.0,53.0,44.0,51.0,53,1063.0,square2,r,0.082,1,S,11.0
S11,22.0,49.0,54.0,37.0,41.0,54,1117.0,square2,r,0.016,1,S,11.0
S11,23.0,52.0,54.0,41.0,45.0,54,1171.0,square2,r,0.008,1,S,11.0
S11,24.0,42.0,56.0,41.0,45.0,56,1227.0,square2,r,0.042,1,S,11.0
S11,25.0,52.0,56.0,42.0,44.0,56,1283.0,square2,r,0.098,1,S,11.0
S11,26.0,43.0,56.0,41.0,45.0,56,1339.0,square2,r,0.197,1,S,11.0
S11,27.0,48.0,50.0,40.0,43.0,50,1389.0,square2,r,0.137,1,S,11.0
S11,28.0,46.0,49.0,38.0,48.0,49,1438.0,square2,r,0.044,1,S,11.0
S11,29.0,46.0,55.0,40.0,42.0,55,1493.0,square2,r,0.181,1,S,11.0
S11,30.0,46.0,56.0,43.0,37.0,56,1549.0,square2,r,0.06,1,S,11.0
S11,31.0,42.0,49.0,44.0,42.0,49,1598.0,square2,r,0.041,1,S,11.0
S11,32.0,51.0,52.0,36.0,40.0,52,1650.0,square2,r,0.142,1,S,11.0
S11,33.0,44.0,53.0,39.0,43.0,53,1703.0,square2,r,0.117,1,S,11.0
S11,34.0,52.0,52.0,43.0,49.0,52,1755.0,square2,r,0.277,1,S,11.0
S11,35.0,53.0,51.0,38.0,45.0,51,1806.0,square2,r,0.007,1,S,11.0
S11,36.0,50.0,44.0,42.0,48.0,44,1850.0,square2,r,0.001,1,S,11.0
S11,37.0,49.0,51.0,40.0,48.0,51,1901.0,square2,r,0.266,1,S,11.0
S11,38.0,47.0,47.0,39.0,38.0,47,1948.0,square2,r,0.031,1,S,11.0
S11,39.0,51.0,55.0,40.0,42.0,55,2003.0,square2,r,0.287,1,S,11.0
S11,40.0,50.0,52.0,41.0,44.0,52,2055.0,square2,r,0.135,1,S,11.0
S11,41.0,47.0,50.0,46.0,50.0,50,2105.0,square2,r,0.21,1,S,11.0
S11,42.0,52.0,48.0,41.0,47.0,48,2153.0,square2,r,0.122,1,S,11.0
S11,43.0,50.0,56.0,34.0,42.0,56,2209.0,square2,r,0.278,1,S,11.0
S11,44.0,42.0,48.0,37.0,49.0,48,2257.0,square2,r,0.227,1,S,11.0
S11,45.0,47.0,47.0,41.0,40.0,47,2304.0,square2,r,0.167,1,S,11.0
S11,46.0,50.0,56.0,40.0,44.0,56,2360.0,square2,r,0.154,1,S,11.0
S11,47.0,46.0,48.0,38.0,47.0,48,2408.0,square2,r,0.176,1,S,11.0
S11,48.0,45.0,54.0,44.0,41.0,54,2462.0,square2,r,0.13,1,S,11.0
S11,49.0,44.0,53.0,41.0,41.0,53,2515.0,square2,r,0.193,1,S,11.0
S6,0.0,40.0,29.0,39.0,26.0,26,26.0,square4,r,0.39,3,S,6.0
S6,1.0,34.0,40.0,31.0,25.0,25,51.0,square4,r,0.001,3,S,6.0
S6,2.0,37.0,31.0,25.0,30.0,30,81.0,square4,r,0.131,3,S,6.0
S6,3.0,39.0,37.0,30.0,27.0,37,118.0,square2,i,0.255,1,S,6.0
S6,4.0,42.0,40.0,28.0,32.0,40,158.0,square2,i,0.014,1,S,6.0
S6,5.0,35.0,35.0,39.0,29.0,35,193.0,square2,i,0.194,1,S,6.0
S6,6.0,48.0,30.0,37.0,33.0,37,230.0,square3,j,0.183,2,S,6.0
S6,7.0,47.0,34.0,31.0,29.0,31,261.0,square3,j,0.002,2,S,6.0
S6,8.0,43.0,35.0,30.0,25.0,30,291.0,square3,j,0.177,2,S,6.0
S6,9.0,36.0,38.0,35.0,35.0,36,327.0,square1,f,0.09,0,S,6.0
S6,10.0,38.0,35.0,31.0,21.0,38,365.0,square1,f,0.119,0,S,6.0
S6,11.0,30.0,36.0,31.0,20.0,30,395.0,square1,f,0.001,0,S,6.0
S6,12.0,37.0,40.0,33.0,22.0,40,435.0,square2,i,0.0,1,S,6.0
S6,13.0,32.0,41.0,35.0,29.0,41,476.0,square2,i,0.095,1,S,6.0
S6,14.0,41.0,29.0,30.0,32.0,29,505.0,square2,i,0.144,1,S,6.0
S6,15.0,43.0,37.0,31.0,27.0,37,542.0,square2,i,0.008,1,S,6.0
S6,16.0,34.0,34.0,35.0,31.0,34,576.0,square2,i,0.176,1,S,6.0
S6,17.0,47.0,40.0,29.0,28.0,28,604.0,square4,r,0.379,3,S,6.0
S6,18.0,37.0,38.0,34.0,35.0,35,639.0,square4,r,0.11,3,S,6.0
S6,19.0,36.0,39.0,31.0,26.0,26,665.0,square4,r,0.031,3,S,6.0
S6,20.0,44.0,40.0,31.0,25.0,44,709.0,square1,f,0.022,0,S,6.0
S6,21.0,39.0,41.0,35.0,24.0,39,748.0,square1,f,0.065,0,S,6.0
S6,22.0,41.0,38.0,41.0,31.0,41,789.0,square1,f,0.11,0,S,6.0
S6,23.0,37.0,31.0,30.0,32.0,37,826.0,square1,f,0.11,0,S,6.0
S6,24.0,48.0,34.0,34.0,21.0,34,860.0,square3,j,0.043,2,S,6.0
S6,25.0,42.0,45.0,26.0,29.0,26,886.0,square3,j,0.083,2,S,6.0
S6,26.0,40.0,39.0,36.0,28.0,36,922.0,square3,j,0.101,2,S,6.0
S6,27.0,42.0,33.0,29.0,29.0,42,964.0,square1,f,0.086,0,S,6.0
S6,28.0,41.0,30.0,29.0,29.0,30,994.0,square2,i,0.47,1,S,6.0
S6,29.0,42.0,40.0,32.0,27.0,40,1034.0,square2,i,0.129,1,S,6.0
S6,30.0,42.0,36.0,30.0,26.0,36,1070.0,square2,i,0.11,1,S,6.0
S6,31.0,42.0,34.0,35.0,29.0,42,1112.0,square1,f,0.012,0,S,6.0
S6,32.0,35.0,36.0,31.0,23.0,35,1147.0,square1,f,0.124,0,S,6.0
S6,33.0,35.0,31.0,35.0,30.0,35,1182.0,square1,f,0.153,0,S,6.0
S6,34.0,40.0,38.0,31.0,27.0,40,1222.0,square1,f,0.075,0,S,6.0
S6,35.0,42.0,37.0,34.0,34.0,42,1264.0,square1,f,0.131,0,S,6.0
S6,36.0,37.0,46.0,31.0,34.0,37,1301.0,square1,f,0.158,0,S,6.0
S6,37.0,38.0,40.0,30.0,26.0,38,1339.0,square1,f,0.143,0,S,6.0
S6,38.0,36.0,34.0,31.0,33.0,36,1375.0,square1,f,0.129,0,S,6.0
S6,39.0,44.0,37.0,33.0,31.0,44,1419.0,square1,f,0.184,0,S,6.0
S6,40.0,40.0,38.0,31.0,25.0,40,1459.0,square1,f,0.001,0,S,6.0
S6,41.0,49.0,35.0,35.0,28.0,49,1508.0,square1,f,0.202,0,S,6.0
S6,42.0,44.0,40.0,32.0,28.0,44,1552.0,square1,f,0.003,0,S,6.0
S6,43.0,43.0,36.0,33.0,26.0,43,1595.0,square1,f,0.051,0,S,6.0
S6,44.0,38.0,33.0,34.0,26.0,38,1633.0,square1,f,0.058,0,S,6.0
S6,45.0,32.0,35.0,30.0,28.0,32,1665.0,square1,f,0.1,0,S,6.0
S6,46.0,38.0,36.0,34.0,30.0,38,1703.0,square1,f,0.057,0,S,6.0
S6,47.0,44.0,35.0,32.0,31.0,44,1747.0,square1,f,0.13,0,S,6.0
S6,48.0,40.0,40.0,31.0,33.0,40,1787.0,square1,f,0.113,0,S,6.0
S6,49.0,41.0,29.0,29.0,29.0,41,1828.0,square1,f,0.752,0,S,6.0
S10,0.0,72.0,76.0,80.0,64.0,76,76.0,square2,r,0.726,1,S,10.0
S10,1.0,76.0,75.0,74.0,65.0,75,151.0,square2,r,0.018,1,S,10.0
S10,2.0,70.0,72.0,79.0,74.0,72,223.0,square2,r,0.067,1,S,10.0
S10,3.0,69.0,77.0,76.0,68.0,69,292.0,square1,i,0.093,0,S,10.0
S10,4.0,72.0,79.0,77.0,70.0,72,364.0,square1,i,0.022,0,S,10.0
S10,5.0,68.0,74.0,72.0,64.0,68,432.0,square1,i,0.142,0,S,10.0
S10,6.0,70.0,77.0,72.0,62.0,72,504.0,square3,f,0.113,2,S,10.0
S10,7.0,78.0,81.0,80.0,74.0,80,584.0,square3,f,0.164,2,S,10.0
S10,8.0,78.0,78.0,82.0,66.0,82,666.0,square3,f,0.179,2,S,10.0
S10,9.0,69.0,76.0,77.0,65.0,77,743.0,square3,f,0.146,2,S,10.0
S10,10.0,72.0,78.0,72.0,75.0,75,818.0,square4,j,0.006,3,S,10.0
S10,11.0,71.0,76.0,78.0,66.0,66,884.0,square4,j,0.047,3,S,10.0
S10,12.0,73.0,83.0,79.0,69.0,69,953.0,square4,j,0.0,3,S,10.0
S10,13.0,68.0,77.0,65.0,65.0,65,1018.0,square3,f,0.191,2,S,10.0
S10,14.0,69.0,84.0,79.0,65.0,79,1097.0,square3,f,0.077,2,S,10.0
S10,15.0,72.0,84.0,70.0,71.0,70,1167.0,square3,f,0.145,2,S,10.0
S10,16.0,79.0,80.0,82.0,67.0,80,1247.0,square2,r,0.143,1,S,10.0
S10,17.0,69.0,83.0,75.0,70.0,83,1330.0,square2,r,0.117,1,S,10.0
S10,18.0,69.0,75.0,69.0,68.0,75,1405.0,square2,r,0.094,1,S,10.0
S10,19.0,70.0,83.0,73.0,66.0,73,1478.0,square3,f,0.113,2,S,10.0
S10,20.0,69.0,83.0,75.0,66.0,75,1553.0,square3,f,0.044,2,S,10.0
S10,21.0,77.0,70.0,75.0,70.0,75,1628.0,square3,f,0.161,2,S,10.0
S10,22.0,73.0,77.0,81.0,69.0,77,1705.0,square2,r,0.026,1,S,10.0
S10,23.0,73.0,78.0,70.0,65.0,78,1783.0,square2,r,0.337,1,S,10.0
S10,24.0,70.0,80.0,75.0,66.0,80,1863.0,square2,r,0.112,1,S,10.0
S10,25.0,70.0,80.0,73.0,72.0,70,1933.0,square1,i,0.05,0,S,10.0
S10,26.0,73.0,75.0,73.0,75.0,73,2006.0,square1,i,0.001,0,S,10.0
S10,27.0,77.0,81.0,83.0,66.0,77,2083.0,square1,i,0.053,0,S,10.0
S10,28.0,73.0,79.0,79.0,73.0,73,2156.0,square4,j,0.045,3,S,10.0
S10,29.0,73.0,79.0,72.0,69.0,69,2225.0,square4,j,0.089,3,S,10.0
S10,30.0,71.0,85.0,79.0,69.0,69,2294.0,square4,j,0.133,3,S,10.0
S10,31.0,71.0,85.0,83.0,66.0,71,2365.0,square1,i,0.022,0,S,10.0
S10,32.0,78.0,79.0,77.0,65.0,78,2443.0,square1,i,0.0,0,S,10.0
S10,33.0,83.0,79.0,72.0,68.0,83,2526.0,square1,i,0.128,0,S,10.0
S10,34.0,68.0,74.0,79.0,72.0,74,2600.0,square2,r,0.081,1,S,10.0
S10,35.0,70.0,83.0,79.0,67.0,83,2683.0,square2,r,0.068,1,S,10.0
S10,36.0,67.0,76.0,75.0,72.0,76,2759.0,square2,r,0.096,1,S,10.0
S10,37.0,76.0,82.0,79.0,60.0,79,2838.0,square3,f,0.143,2,S,10.0
S10,38.0,72.0,75.0,69.0,68.0,69,2907.0,square3,f,0.144,2,S,10.0
S10,39.0,73.0,78.0,76.0,70.0,76,2983.0,square3,f,0.461,2,S,10.0
S10,40.0,76.0,77.0,66.0,60.0,77,3060.0,square2,r,0.088,1,S,10.0
S10,41.0,74.0,83.0,73.0,67.0,83,3143.0,square2,r,0.015,1,S,10.0
S10,42.0,72.0,69.0,80.0,63.0,69,3212.0,square2,r,0.094,1,S,10.0
S10,43.0,69.0,74.0,72.0,68.0,74,3286.0,square2,r,0.063,1,S,10.0
S10,44.0,67.0,76.0,70.0,65.0,76,3362.0,square2,r,0.05,1,S,10.0
S10,45.0,76.0,81.0,74.0,72.0,81,3443.0,square2,r,0.037,1,S,10.0
S10,46.0,76.0,79.0,76.0,66.0,79,3522.0,square2,r,0.065,1,S,10.0
S10,47.0,67.0,81.0,84.0,60.0,81,3603.0,square2,r,0.051,1,S,10.0
S10,48.0,73.0,83.0,75.0,66.0,83,3686.0,square2,r,0.044,1,S,10.0
S10,49.0,66.0,77.0,74.0,71.0,77,3763.0,square2,r,0.135,1,S,10.0
V11,0.0,42.0,67.0,57.0,49.0,57,57.0,square3,r,1.23,2,V,11.0
V11,1.0,42.0,71.0,60.0,53.0,60,117.0,square3,r,0.144,2,V,11.0
V11,2.0,45.0,76.0,58.0,51.0,58,175.0,square3,r,0.157,2,V,11.0
V11,3.0,44.0,65.0,60.0,49.0,49,224.0,square4,i,0.03,3,V,11.0
V11,4.0,46.0,73.0,64.0,51.0,51,275.0,square4,i,0.06,3,V,11.0
V11,5.0,47.0,67.0,58.0,54.0,54,329.0,square4,i,0.031,3,V,11.0
V11,6.0,43.0,68.0,58.0,50.0,43,372.0,square1,f,0.108,0,V,11.0
V11,7.0,42.0,67.0,60.0,58.0,42,414.0,square1,f,0.076,0,V,11.0
V11,8.0,44.0,67.0,60.0,53.0,44,458.0,square1,f,0.108,0,V,11.0
V11,9.0,44.0,67.0,59.0,54.0,67,525.0,square2,j,0.061,1,V,11.0
V11,10.0,49.0,76.0,57.0,52.0,76,601.0,square2,j,0.116,1,V,11.0
V11,11.0,45.0,71.0,58.0,51.0,71,672.0,square2,j,0.042,1,V,11.0
V11,12.0,45.0,72.0,58.0,56.0,58,730.0,square3,r,0.012,2,V,11.0
V11,13.0,49.0,67.0,63.0,54.0,63,793.0,square3,r,0.144,2,V,11.0
V11,14.0,50.0,75.0,57.0,48.0,57,850.0,square3,r,0.0,2,V,11.0
V11,15.0,40.0,71.0,61.0,51.0,71,921.0,square2,j,0.05,1,V,11.0
V11,16.0,47.0,72.0,56.0,54.0,72,993.0,square2,j,0.138,1,V,11.0
V11,17.0,40.0,71.0,61.0,46.0,71,1064.0,square2,j,0.093,1,V,11.0
V11,18.0,44.0,69.0,59.0,51.0,69,1133.0,square2,j,0.133,1,V,11.0
V11,19.0,44.0,73.0,59.0,47.0,73,1206.0,square2,j,0.104,1,V,11.0
V11,20.0,47.0,69.0,64.0,54.0,69,1275.0,square2,j,0.053,1,V,11.0
V11,21.0,78.0,49.0,70.0,65.0,49,1324.0,square2,j,0.066,1,V,11.0
V11,22.0,78.0,56.0,73.0,62.0,62,1386.0,square4,i,0.535,3,V,11.0
V11,23.0,84.0,54.0,71.0,65.0,65,1451.0,square4,i,0.093,3,V,11.0
V11,24.0,80.0,55.0,72.0,67.0,67,1518.0,square4,i,0.093,3,V,11.0
V11,25.0,80.0,55.0,75.0,63.0,63,1581.0,square4,i,0.113,3,V,11.0
V11,26.0,80.0,56.0,67.0,62.0,67,1648.0,square3,r,0.15,2,V,11.0
V11,27.0,80.0,51.0,68.0,62.0,68,1716.0,square3,r,0.012,2,V,11.0
V11,28.0,79.0,57.0,67.0,57.0,67,1783.0,square3,r,0.013,2,V,11.0
V11,29.0,79.0,50.0,67.0,62.0,79,1862.0,square1,f,0.11,0,V,11.0
V11,30.0,88.0,54.0,74.0,61.0,88,1950.0,square1,f,0.024,0,V,11.0
V11,31.0,81.0,51.0,75.0,63.0,81,2031.0,square1,f,0.077,0,V,11.0
V11,32.0,76.0,51.0,69.0,65.0,76,2107.0,square1,f,0.034,0,V,11.0
V11,33.0,78.0,54.0,72.0,64.0,78,2185.0,square1,f,0.013,0,V,11.0
V11,34.0,77.0,53.0,71.0,62.0,77,2262.0,square1,f,0.001,0,V,11.0
V11,35.0,74.0,59.0,75.0,62.0,74,2336.0,square1,f,0.041,0,V,11.0
V11,36.0,79.0,50.0,72.0,62.0,79,2415.0,square1,f,0.095,0,V,11.0
V11,37.0,74.0,54.0,68.0,62.0,74,2489.0,square1,f,0.076,0,V,11.0
V11,38.0,80.0,57.0,65.0,58.0,80,2569.0,square1,f,0.019,0,V,11.0
V11,39.0,73.0,52.0,75.0,66.0,73,2642.0,square1,f,0.044,0,V,11.0
V11,40.0,82.0,57.0,71.0,57.0,82,2724.0,square1,f,0.198,0,V,11.0
V11,41.0,78.0,53.0,73.0,64.0,78,2802.0,square1,f,0.11,0,V,11.0
V11,42.0,72.0,56.0,67.0,59.0,72,2874.0,square1,f,0.162,0,V,11.0
V11,43.0,81.0,54.0,73.0,63.0,81,2955.0,square1,f,0.078,0,V,11.0
V11,44.0,76.0,54.0,75.0,59.0,76,3031.0,square1,f,0.095,0,V,11.0
V11,45.0,79.0,59.0,71.0,64.0,79,3110.0,square1,f,0.013,0,V,11.0
V11,46.0,80.0,55.0,67.0,57.0,80,3190.0,square1,f,0.054,0,V,11.0
V11,47.0,84.0,53.0,75.0,56.0,84,3274.0,square1,f,0.061,0,V,11.0
V11,48.0,83.0,57.0,71.0,60.0,83,3357.0,square1,f,0.07,0,V,11.0
V11,49.0,79.0,52.0,71.0,60.0,79,3436.0,square1,f,0.001,0,V,11.0
V11,50.0,76.0,50.0,69.0,60.0,76,3512.0,square1,f,0.007,0,V,11.0
V11,51.0,79.0,54.0,72.0,57.0,79,3591.0,square1,f,0.127,0,V,11.0
V11,52.0,80.0,54.0,72.0,64.0,80,3671.0,square1,f,0.015,0,V,11.0
V11,53.0,35.0,50.0,55.0,69.0,35,3706.0,square1,f,0.041,0,V,11.0
V11,54.0,45.0,48.0,55.0,73.0,45,3751.0,square1,f,0.029,0,V,11.0
V11,55.0,43.0,53.0,58.0,70.0,43,3794.0,square1,f,0.055,0,V,11.0
V11,56.0,40.0,46.0,60.0,62.0,40,3834.0,square1,f,0.085,0,V,11.0
V11,57.0,44.0,46.0,53.0,71.0,71,3905.0,square4,i,0.027,3,V,11.0
V11,58.0,44.0,52.0,55.0,68.0,68,3973.0,square4,i,0.033,3,V,11.0
V11,59.0,44.0,44.0,57.0,66.0,44,4017.0,square2,j,1.244,1,V,11.0
V11,60.0,40.0,46.0,57.0,62.0,46,4063.0,square2,j,0.215,1,V,11.0
V11,61.0,42.0,52.0,58.0,62.0,58,4121.0,square3,r,0.777,2,V,11.0
V11,62.0,40.0,49.0,56.0,71.0,56,4177.0,square3,r,0.026,2,V,11.0
V11,63.0,40.0,54.0,60.0,66.0,60,4237.0,square3,r,0.156,2,V,11.0
V11,64.0,41.0,43.0,51.0,66.0,51,4288.0,square3,r,0.065,2,V,11.0
V11,65.0,39.0,48.0,59.0,66.0,59,4347.0,square3,r,0.064,2,V,11.0
V11,66.0,40.0,48.0,59.0,69.0,59,4406.0,square3,r,0.051,2,V,11.0
V11,67.0,46.0,45.0,58.0,69.0,58,4464.0,square3,r,0.123,2,V,11.0
V11,68.0,41.0,50.0,56.0,69.0,56,4520.0,square3,r,0.161,2,V,11.0
V11,69.0,48.0,49.0,57.0,71.0,57,4577.0,square3,r,0.086,2,V,11.0
V11,70.0,41.0,47.0,58.0,65.0,58,4635.0,square3,r,0.076,2,V,11.0
V11,71.0,37.0,46.0,58.0,60.0,58,4693.0,square3,r,0.05,2,V,11.0
V11,72.0,41.0,47.0,54.0,65.0,54,4747.0,square3,r,0.07,2,V,11.0
V11,73.0,42.0,47.0,60.0,67.0,60,4807.0,square3,r,0.099,2,V,11.0
V11,74.0,43.0,49.0,57.0,64.0,57,4864.0,square3,r,0.129,2,V,11.0
V11,75.0,38.0,46.0,57.0,66.0,57,4921.0,square3,r,0.096,2,V,11.0
V11,76.0,42.0,50.0,58.0,68.0,58,4979.0,square3,r,0.133,2,V,11.0
V11,77.0,36.0,49.0,58.0,64.0,58,5037.0,square3,r,0.114,2,V,11.0
V11,78.0,40.0,50.0,56.0,67.0,56,5093.0,square3,r,0.142,2,V,11.0
V11,79.0,39.0,48.0,56.0,67.0,56,5149.0,square3,r,0.061,2,V,11.0
V11,80.0,51.0,33.0,30.0,45.0,30,5179.0,square3,r,0.046,2,V,11.0
V11,81.0,49.0,31.0,23.0,48.0,23,5202.0,square3,r,0.112,2,V,11.0
V11,82.0,55.0,30.0,25.0,42.0,25,5227.0,square3,r,0.112,2,V,11.0
V11,83.0,50.0,33.0,27.0,48.0,27,5254.0,square3,r,0.116,2,V,11.0
V11,84.0,52.0,34.0,25.0,43.0,25,5279.0,square3,r,0.161,2,V,11.0
V11,85.0,49.0,28.0,28.0,44.0,28,5307.0,square3,r,0.155,2,V,11.0
V11,86.0,57.0,29.0,27.0,48.0,27,5334.0,square3,r,0.032,2,V,11.0
V11,87.0,49.0,29.0,21.0,38.0,21,5355.0,square3,r,0.179,2,V,11.0
V11,88.0,55.0,32.0,29.0,46.0,29,5384.0,square3,r,0.149,2,V,11.0
V11,89.0,50.0,28.0,23.0,43.0,23,5407.0,square3,r,0.102,2,V,11.0
V11,90.0,54.0,34.0,32.0,41.0,32,5439.0,square3,r,0.098,2,V,11.0
V11,91.0,50.0,34.0,26.0,44.0,26,5465.0,square3,r,0.119,2,V,11.0
V11,92.0,51.0,31.0,27.0,50.0,50,5515.0,square4,i,0.026,3,V,11.0
V11,93.0,49.0,38.0,28.0,42.0,42,5557.0,square4,i,0.001,3,V,11.0
V11,94.0,50.0,29.0,25.0,46.0,46,5603.0,square4,i,0.095,3,V,11.0
V11,95.0,51.0,36.0,22.0,40.0,40,5643.0,square4,i,0.077,3,V,11.0
V11,96.0,52.0,34.0,32.0,45.0,45,5688.0,square4,i,0.12,3,V,11.0
V11,97.0,53.0,27.0,32.0,44.0,44,5732.0,square4,i,0.165,3,V,11.0
V11,98.0,60.0,31.0,25.0,48.0,48,5780.0,square4,i,0.111,3,V,11.0
V11,99.0,53.0,33.0,23.0,42.0,42,5822.0,square4,i,0.083,3,V,11.0
V12,0.0,47.0,30.0,38.0,55.0,30,30.0,square2,r,0.842,1,V,12.0
V12,1.0,46.0,33.0,39.0,57.0,33,63.0,square2,r,0.03,1,V,12.0
V12,2.0,51.0,29.0,42.0,52.0,29,92.0,square2,r,0.161,1,V,12.0
V12,3.0,52.0,30.0,38.0,62.0,52,144.0,square1,i,0.055,0,V,12.0
V12,4.0,48.0,30.0,39.0,62.0,48,192.0,square1,i,0.034,0,V,12.0
V12,5.0,55.0,34.0,43.0,61.0,55,247.0,square1,i,0.081,0,V,12.0
V12,6.0,45.0,35.0,42.0,56.0,56,303.0,square4,j,0.172,3,V,12.0
V12,7.0,48.0,29.0,35.0,57.0,57,360.0,square4,j,0.053,3,V,12.0
V12,8.0,46.0,33.0,38.0,59.0,59,419.0,square4,j,0.05,3,V,12.0
V12,9.0,44.0,31.0,42.0,56.0,42,461.0,square3,f,0.001,2,V,12.0
V12,10.0,48.0,34.0,45.0,55.0,45,506.0,square3,f,0.008,2,V,12.0
V12,11.0,45.0,32.0,41.0,55.0,55,561.0,square4,j,0.231,3,V,12.0
V12,12.0,52.0,26.0,42.0,57.0,57,618.0,square4,j,0.146,3,V,12.0
V12,13.0,56.0,31.0,41.0,54.0,54,672.0,square4,j,0.017,3,V,12.0
V12,14.0,44.0,34.0,40.0,64.0,64,736.0,square4,j,0.11,3,V,12.0
V12,15.0,48.0,32.0,39.0,61.0,61,797.0,square4,j,0.123,3,V,12.0
V12,16.0,49.0,33.0,37.0,58.0,58,855.0,square4,j,0.05,3,V,12.0
V12,17.0,45.0,33.0,43.0,57.0,57,912.0,square4,j,0.085,3,V,12.0
V12,18.0,45.0,28.0,40.0,58.0,58,970.0,square4,j,0.156,3,V,12.0
V12,19.0,42.0,33.0,43.0,59.0,59,1029.0,square4,j,0.152,3,V,12.0
V12,20.0,46.0,30.0,38.0,62.0,62,1091.0,square4,j,0.034,3,V,12.0
V12,21.0,46.0,35.0,40.0,55.0,55,1146.0,square4,j,0.036,3,V,12.0
V12,22.0,46.0,34.0,36.0,63.0,63,1209.0,square4,j,0.077,3,V,12.0
V12,23.0,54.0,34.0,42.0,56.0,54,1263.0,square1,i,0.108,0,V,12.0
V12,24.0,44.0,30.0,41.0,59.0,59,1322.0,square4,j,0.163,3,V,12.0
V12,25.0,49.0,33.0,37.0,64.0,64,1386.0,square4,j,0.002,3,V,12.0
V12,26.0,52.0,34.0,39.0,57.0,57,1443.0,square4,j,0.008,3,V,12.0
V12,27.0,50.0,26.0,37.0,55.0,55,1498.0,square4,j,0.112,3,V,12.0
V12,28.0,41.0,29.0,46.0,21.0,21,1519.0,square4,j,0.097,3,V,12.0
V12,29.0,41.0,28.0,51.0,20.0,41,1560.0,square1,i,0.611,0,V,12.0
V12,30.0,32.0,31.0,46.0,22.0,32,1592.0,square1,i,0.11,0,V,12.0
V12,31.0,38.0,28.0,45.0,22.0,28,1620.0,square2,r,0.179,1,V,12.0
V12,32.0,35.0,27.0,44.0,16.0,44,1664.0,square3,f,0.026,2,V,12.0
V12,33.0,39.0,29.0,49.0,21.0,49,1713.0,square3,f,0.041,2,V,12.0
V12,34.0,39.0,28.0,49.0,15.0,49,1762.0,square3,f,0.001,2,V,12.0
V12,35.0,36.0,29.0,50.0,17.0,50,1812.0,square3,f,0.0,2,V,12.0
V12,36.0,41.0,28.0,48.0,12.0,48,1860.0,square3,f,0.008,2,V,12.0
V12,37.0,34.0,29.0,46.0,25.0,46,1906.0,square3,f,0.078,2,V,12.0
V12,38.0,38.0,28.0,51.0,19.0,51,1957.0,square3,f,0.016,2,V,12.0
V12,39.0,39.0,31.0,45.0,13.0,45,2002.0,square3,f,0.123,2,V,12.0
V12,40.0,35.0,28.0,46.0,26.0,46,2048.0,square3,f,0.189,2,V,12.0
V12,41.0,38.0,27.0,46.0,20.0,46,2094.0,square3,f,0.016,2,V,12.0
V12,42.0,40.0,26.0,50.0,23.0,50,2144.0,square3,f,0.192,2,V,12.0
V12,43.0,33.0,30.0,45.0,18.0,45,2189.0,square3,f,0.181,2,V,12.0
V12,44.0,39.0,31.0,46.0,22.0,46,2235.0,square3,f,0.001,2,V,12.0
V12,45.0,32.0,26.0,42.0,20.0,42,2277.0,square3,f,0.175,2,V,12.0
V12,46.0,36.0,29.0,43.0,24.0,43,2320.0,square3,f,0.001,2,V,12.0
V12,47.0,37.0,30.0,46.0,21.0,46,2366.0,square3,f,0.107,2,V,12.0
V12,48.0,37.0,27.0,44.0,19.0,44,2410.0,square3,f,0.059,2,V,12.0
V12,49.0,36.0,33.0,55.0,16.0,55,2465.0,square3,f,0.179,2,V,12.0
V12,50.0,45.0,28.0,44.0,18.0,44,2509.0,square3,f,0.188,2,V,12.0
V12,51.0,35.0,32.0,49.0,19.0,49,2558.0,square3,f,0.31,2,V,12.0
V12,52.0,36.0,56.0,31.0,52.0,56,2614.0,square2,r,0.005,1,V,12.0
V12,53.0,36.0,57.0,29.0,45.0,57,2671.0,square2,r,0.043,1,V,12.0
V12,54.0,38.0,61.0,28.0,51.0,61,2732.0,square2,r,0.096,1,V,12.0
V12,55.0,35.0,60.0,29.0,47.0,60,2792.0,square2,r,0.094,1,V,12.0
V12,56.0,34.0,62.0,29.0,46.0,62,2854.0,square2,r,0.144,1,V,12.0
V12,57.0,43.0,57.0,32.0,46.0,43,2897.0,square1,i,0.059,0,V,12.0
V12,58.0,40.0,59.0,32.0,50.0,50,2947.0,square4,j,0.001,3,V,12.0
V12,59.0,41.0,62.0,33.0,48.0,62,3009.0,square2,r,0.186,1,V,12.0
V12,60.0,36.0,61.0,32.0,49.0,61,3070.0,square2,r,0.076,1,V,12.0
V12,61.0,39.0,56.0,32.0,44.0,56,3126.0,square2,r,0.0,1,V,12.0
V12,62.0,39.0,57.0,30.0,46.0,57,3183.0,square2,r,0.121,1,V,12.0
V12,63.0,42.0,53.0,29.0,46.0,53,3236.0,square2,r,0.093,1,V,12.0
V12,64.0,35.0,57.0,32.0,50.0,57,3293.0,square2,r,0.231,1,V,12.0
V12,65.0,44.0,58.0,32.0,49.0,58,3351.0,square2,r,0.067,1,V,12.0
V12,66.0,44.0,56.0,29.0,52.0,56,3407.0,square2,r,0.109,1,V,12.0
V12,67.0,41.0,60.0,30.0,49.0,60,3467.0,square2,r,1.35,1,V,12.0
V12,68.0,42.0,58.0,32.0,45.0,58,3525.0,square2,r,0.048,1,V,12.0
V12,69.0,36.0,60.0,33.0,50.0,60,3585.0,square2,r,0.117,1,V,12.0
V12,70.0,36.0,57.0,27.0,46.0,57,3642.0,square2,r,0.031,1,V,12.0
V12,71.0,41.0,59.0,32.0,48.0,59,3701.0,square2,r,0.001,1,V,12.0
V12,72.0,34.0,59.0,31.0,49.0,59,3760.0,square2,r,0.011,1,V,12.0
V12,73.0,71.0,53.0,65.0,49.0,53,3813.0,square2,r,0.194,1,V,12.0
V12,74.0,69.0,49.0,63.0,45.0,49,3862.0,square2,r,0.165,1,V,12.0
V12,75.0,72.0,51.0,56.0,46.0,51,3913.0,square2,r,0.03,1,V,12.0
V12,76.0,72.0,48.0,58.0,43.0,48,3961.0,square2,r,0.01,1,V,12.0
V12,77.0,74.0,57.0,59.0,44.0,57,4018.0,square2,r,0.098,1,V,12.0
V12,78.0,69.0,55.0,63.0,50.0,55,4073.0,square2,r,0.06,1,V,12.0
V12,79.0,73.0,53.0,58.0,43.0,53,4126.0,square2,r,0.07,1,V,12.0
V12,80.0,71.0,47.0,65.0,40.0,47,4173.0,square2,r,0.117,1,V,12.0
V12,81.0,66.0,49.0,57.0,40.0,49,4222.0,square2,r,0.078,1,V,12.0
V12,82.0,71.0,53.0,57.0,48.0,53,4275.0,square2,r,0.0,1,V,12.0
V12,83.0,70.0,50.0,56.0,49.0,70,4345.0,square1,i,0.108,0,V,12.0
V12,84.0,69.0,45.0,64.0,43.0,69,4414.0,square1,i,0.01,0,V,12.0
V12,85.0,64.0,48.0,54.0,42.0,64,4478.0,square1,i,0.047,0,V,12.0
V12,86.0,71.0,49.0,63.0,44.0,63,4541.0,square3,f,0.12,2,V,12.0
V12,87.0,72.0,52.0,55.0,42.0,55,4596.0,square3,f,0.041,2,V,12.0
V12,88.0,64.0,48.0,59.0,44.0,44,4640.0,square4,j,0.061,3,V,12.0
V12,89.0,69.0,48.0,62.0,45.0,69,4709.0,square1,i,0.069,0,V,12.0
V12,90.0,68.0,56.0,60.0,42.0,68,4777.0,square1,i,0.0,0,V,12.0
V12,91.0,69.0,52.0,62.0,45.0,69,4846.0,square1,i,0.029,0,V,12.0
V12,92.0,65.0,50.0,64.0,47.0,65,4911.0,square1,i,0.064,0,V,12.0
V12,93.0,68.0,51.0,62.0,43.0,68,4979.0,square1,i,0.216,0,V,12.0
V12,94.0,68.0,52.0,60.0,38.0,68,5047.0,square1,i,0.976,0,V,12.0
V12,95.0,71.0,52.0,58.0,47.0,71,5118.0,square1,i,0.0,0,V,12.0
V12,96.0,66.0,49.0,59.0,44.0,66,5184.0,square1,i,0.215,0,V,12.0
V12,97.0,74.0,47.0,54.0,47.0,74,5258.0,square1,i,0.079,0,V,12.0
V12,98.0,68.0,43.0,64.0,41.0,68,5326.0,square1,i,1.529,0,V,12.0
V12,99.0,71.0,53.0,62.0,44.0,71,5397.0,square1,i,1.613,0,V,12.0
V10,0.0,28.0,21.0,37.0,46.0,37,37.0,square3,r,0.694,2,V,10.0
V10,1.0,26.0,19.0,41.0,49.0,41,78.0,square3,r,0.069,2,V,10.0
V10,2.0,29.0,20.0,43.0,48.0,43,121.0,square3,r,0.037,2,V,10.0
V10,3.0,27.0,27.0,37.0,44.0,27,148.0,square2,i,0.065,1,V,10.0
V10,4.0,28.0,16.0,36.0,47.0,16,164.0,square2,i,0.129,1,V,10.0
V10,5.0,33.0,25.0,42.0,54.0,25,189.0,square2,i,0.157,1,V,10.0
V10,6.0,28.0,19.0,35.0,45.0,28,217.0,square1,j,0.099,0,V,10.0
V10,7.0,30.0,24.0,35.0,49.0,30,247.0,square1,j,0.001,0,V,10.0
V10,8.0,37.0,29.0,41.0,47.0,37,284.0,square1,j,0.031,0,V,10.0
V10,9.0,28.0,21.0,41.0,48.0,48,332.0,square4,f,0.076,3,V,10.0
V10,10.0,27.0,22.0,39.0,42.0,42,374.0,square4,f,0.204,3,V,10.0
V10,11.0,32.0,16.0,41.0,48.0,48,422.0,square4,f,0.077,3,V,10.0
V10,12.0,34.0,15.0,33.0,49.0,33,455.0,square3,r,0.062,2,V,10.0
V10,13.0,36.0,19.0,41.0,45.0,45,500.0,square4,f,0.062,3,V,10.0
V10,14.0,28.0,23.0,35.0,53.0,53,553.0,square4,f,0.113,3,V,10.0
V10,15.0,26.0,28.0,40.0,50.0,50,603.0,square4,f,0.195,3,V,10.0
V10,16.0,30.0,25.0,42.0,47.0,47,650.0,square4,f,0.216,3,V,10.0
V10,17.0,31.0,19.0,38.0,50.0,50,700.0,square4,f,0.096,3,V,10.0
V10,18.0,34.0,21.0,35.0,48.0,48,748.0,square4,f,0.134,3,V,10.0
V10,19.0,31.0,24.0,39.0,46.0,46,794.0,square4,f,0.055,3,V,10.0
V10,20.0,28.0,22.0,42.0,47.0,47,841.0,square4,f,0.169,3,V,10.0
V10,21.0,24.0,20.0,41.0,47.0,47,888.0,square4,f,0.0,3,V,10.0
V10,22.0,32.0,22.0,34.0,44.0,44,932.0,square4,f,0.112,3,V,10.0
V10,23.0,29.0,23.0,37.0,47.0,47,979.0,square4,f,0.203,3,V,10.0
V10,24.0,25.0,25.0,38.0,46.0,46,1025.0,square4,f,0.076,3,V,10.0
V10,25.0,30.0,24.0,41.0,45.0,45,1070.0,square4,f,0.16,3,V,10.0
V10,26.0,32.0,17.0,38.0,49.0,49,1119.0,square4,f,0.213,3,V,10.0
V10,27.0,34.0,21.0,38.0,47.0,47,1166.0,square4,f,0.128,3,V,10.0
V10,28.0,29.0,21.0,37.0,45.0,45,1211.0,square4,f,0.086,3,V,10.0
V10,29.0,30.0,20.0,31.0,47.0,47,1258.0,square4,f,0.009,3,V,10.0
V10,30.0,28.0,21.0,35.0,44.0,44,1302.0,square4,f,0.138,3,V,10.0
V10,31.0,36.0,25.0,14.0,8.0,8,1310.0,square4,f,0.089,3,V,10.0
V10,32.0,38.0,27.0,19.0,11.0,19,1329.0,square3,r,0.143,2,V,10.0
V10,33.0,39.0,21.0,20.0,13.0,20,1349.0,square3,r,0.496,2,V,10.0
V10,34.0,34.0,24.0,20.0,10.0,24,1373.0,square2,i,0.236,1,V,10.0
V10,35.0,44.0,29.0,17.0,11.0,44,1417.0,square1,j,0.111,0,V,10.0
V10,36.0,33.0,30.0,17.0,9.0,33,1450.0,square1,j,0.07,0,V,10.0
V10,37.0,31.0,27.0,12.0,6.0,31,1481.0,square1,j,0.041,0,V,10.0
V10,38.0,34.0,29.0,15.0,10.0,34,1515.0,square1,j,0.083,0,V,10.0
V10,39.0,35.0,21.0,19.0,5.0,35,1550.0,square1,j,0.096,0,V,10.0
V10,40.0,32.0,26.0,18.0,6.0,26,1576.0,square2,i,0.223,1,V,10.0
V10,41.0,34.0,32.0,13.0,9.0,13,1589.0,square3,r,0.17,2,V,10.0
V10,42.0,35.0,30.0,16.0,8.0,8,1597.0,square4,f,0.028,3,V,10.0
V10,43.0,38.0,32.0,16.0,8.0,38,1635.0,square1,j,0.024,0,V,10.0
V10,44.0,34.0,20.0,18.0,3.0,34,1669.0,square1,j,0.162,0,V,10.0
V10,45.0,38.0,22.0,23.0,9.0,38,1707.0,square1,j,0.0,0,V,10.0
V10,46.0,36.0,28.0,16.0,10.0,36,1743.0,square1,j,0.065,0,V,10.0
V10,47.0,36.0,27.0,13.0,8.0,36,1779.0,square1,j,0.029,0,V,10.0
V10,48.0,35.0,27.0,14.0,12.0,35,1814.0,square1,j,0.081,0,V,10.0
V10,49.0,33.0,28.0,16.0,10.0,33,1847.0,square1,j,0.146,0,V,10.0
V10,50.0,31.0,29.0,19.0,8.0,31,1878.0,square1,j,0.095,0,V,10.0
V10,51.0,32.0,21.0,20.0,12.0,32,1910.0,square1,j,0.345,0,V,10.0
V10,52.0,29.0,25.0,21.0,10.0,29,1939.0,square1,j,0.015,0,V,10.0
V10,53.0,39.0,29.0,23.0,2.0,39,1978.0,square1,j,0.044,0,V,10.0
V10,54.0,33.0,28.0,19.0,7.0,33,2011.0,square1,j,0.064,0,V,10.0
V10,55.0,34.0,24.0,15.0,8.0,34,2045.0,square1,j,0.142,0,V,10.0
V10,56.0,35.0,20.0,21.0,9.0,35,2080.0,square1,j,0.213,0,V,10.0
V10,57.0,33.0,27.0,19.0,7.0,27,2107.0,square2,i,0.06,1,V,10.0
V10,58.0,38.0,24.0,16.0,7.0,16,2123.0,square3,r,0.282,2,V,10.0
V10,59.0,34.0,29.0,15.0,5.0,5,2128.0,square4,f,0.094,3,V,10.0
V10,60.0,34.0,22.0,19.0,9.0,34,2162.0,square1,j,0.097,0,V,10.0
V10,61.0,39.0,31.0,20.0,10.0,39,2201.0,square1,j,0.098,0,V,10.0
V10,62.0,35.0,24.0,18.0,6.0,35,2236.0,square1,j,0.243,0,V,10.0
V10,63.0,35.0,26.0,18.0,9.0,35,2271.0,square1,j,0.0,0,V,10.0
V10,64.0,31.0,55.0,23.0,23.0,31,2302.0,square1,j,0.162,0,V,10.0
V10,65.0,35.0,50.0,22.0,27.0,35,2337.0,square1,j,0.007,0,V,10.0
V10,66.0,35.0,53.0,25.0,29.0,35,2372.0,square1,j,0.029,0,V,10.0
V10,67.0,38.0,44.0,17.0,29.0,38,2410.0,square1,j,0.015,0,V,10.0
V10,68.0,36.0,48.0,22.0,27.0,36,2446.0,square1,j,0.036,0,V,10.0
V10,69.0,41.0,53.0,17.0,28.0,41,2487.0,square1,j,0.046,0,V,10.0
V10,70.0,40.0,48.0,23.0,28.0,40,2527.0,square1,j,0.1,0,V,10.0
V10,71.0,39.0,43.0,24.0,20.0,39,2566.0,square1,j,0.194,0,V,10.0
V10,72.0,36.0,49.0,19.0,25.0,36,2602.0,square1,j,0.128,0,V,10.0
V10,73.0,39.0,49.0,23.0,32.0,39,2641.0,square1,j,0.076,0,V,10.0
V10,74.0,36.0,44.0,17.0,29.0,36,2677.0,square1,j,0.151,0,V,10.0
V10,75.0,37.0,46.0,20.0,30.0,37,2714.0,square1,j,0.102,0,V,10.0
V10,76.0,38.0,47.0,23.0,30.0,38,2752.0,square1,j,0.145,0,V,10.0
V10,77.0,36.0,49.0,22.0,32.0,36,2788.0,square1,j,0.094,0,V,10.0
V10,78.0,41.0,44.0,19.0,27.0,41,2829.0,square1,j,0.007,0,V,10.0
V10,79.0,41.0,48.0,22.0,27.0,41,2870.0,square1,j,0.087,0,V,10.0
V10,80.0,34.0,44.0,26.0,29.0,34,2904.0,square1,j,0.083,0,V,10.0
V10,81.0,38.0,47.0,18.0,29.0,38,2942.0,square1,j,0.161,0,V,10.0
V10,82.0,43.0,43.0,23.0,28.0,43,2985.0,square1,j,0.052,0,V,10.0
V10,83.0,34.0,51.0,23.0,26.0,34,3019.0,square1,j,0.148,0,V,10.0
V10,84.0,36.0,46.0,18.0,25.0,36,3055.0,square1,j,0.13,0,V,10.0
V10,85.0,39.0,46.0,25.0,26.0,39,3094.0,square1,j,0.043,0,V,10.0
V10,86.0,39.0,50.0,27.0,27.0,39,3133.0,square1,j,0.047,0,V,10.0
V10,87.0,38.0,46.0,20.0,30.0,38,3171.0,square1,j,0.16,0,V,10.0
V10,88.0,37.0,49.0,22.0,28.0,37,3208.0,square1,j,0.109,0,V,10.0
V10,89.0,34.0,51.0,25.0,26.0,34,3242.0,square1,j,0.137,0,V,10.0
V10,90.0,41.0,49.0,22.0,29.0,41,3283.0,square1,j,0.014,0,V,10.0
V10,91.0,37.0,45.0,26.0,32.0,37,3320.0,square1,j,0.129,0,V,10.0
V10,92.0,42.0,42.0,27.0,28.0,42,3362.0,square1,j,0.223,0,V,10.0
V10,93.0,41.0,48.0,19.0,36.0,41,3403.0,square1,j,0.095,0,V,10.0
V10,94.0,43.0,49.0,23.0,31.0,43,3446.0,square1,j,0.177,0,V,10.0
V10,95.0,39.0,46.0,18.0,27.0,39,3485.0,square1,j,0.073,0,V,10.0
V10,96.0,37.0,48.0,24.0,27.0,37,3522.0,square1,j,0.118,0,V,10.0
V10,97.0,42.0,50.0,23.0,31.0,42,3564.0,square1,j,0.072,0,V,10.0
V10,98.0,33.0,47.0,25.0,32.0,33,3597.0,square1,j,0.345,0,V,10.0
V10,99.0,39.0,48.0,23.0,32.0,39,3636.0,square1,j,0.343,0,V,10.0
