block,Trial,square1,square2,square3,square4,currPoints,totalPoints,square,choiceKey.keys,choiceKey.rt,armNum,blockType,blockNum
prac,0.0,100.0,0.0,0.0,0.0,0.0,0.0,square3,,,2,p,0.0
prac,1.0,100.0,0.0,0.0,0.0,0.0,0.0,square4,,,3,p,0.0
prac,2.0,100.0,0.0,0.0,0.0,0.0,0.0,square2,,,1,p,0.0
prac,3.0,100.0,0.0,0.0,0.0,100.0,100.0,square1,,,0,p,0.0
prac,4.0,100.0,0.0,0.0,0.0,100.0,200.0,square1,,,0,p,0.0
prac,5.0,100.0,0.0,0.0,0.0,100.0,300.0,square1,,,0,p,0.0
prac,6.0,100.0,0.0,0.0,0.0,100.0,400.0,square1,,,0,p,0.0
prac,7.0,100.0,0.0,0.0,0.0,100.0,500.0,square1,,,0,p,0.0
prac,8.0,100.0,0.0,0.0,0.0,100.0,600.0,square1,,,0,p,0.0
prac,9.0,100.0,0.0,0.0,0.0,100.0,700.0,square1,,,0,p,0.0
S2,0.0,62.0,57.0,71.0,74.0,62.0,62.0,square1,r,0.5983,0,S,2.0
S2,1.0,64.0,59.0,72.0,67.0,59.0,121.0,square2,i,0.2153,1,S,2.0
S2,2.0,68.0,57.0,75.0,68.0,75.0,196.0,square3,j,0.1108,2,S,2.0
S2,3.0,69.0,57.0,80.0,70.0,70.0,266.0,square4,f,0.2638,3,S,2.0
S2,4.0,66.0,60.0,74.0,68.0,74.0,340.0,square3,j,0.0283,2,S,2.0
S2,5.0,63.0,62.0,77.0,72.0,77.0,417.0,square3,j,0.0828,2,S,2.0
S2,6.0,69.0,61.0,75.0,74.0,75.0,492.0,square3,j,0.0188,2,S,2.0
S2,7.0,74.0,66.0,79.0,72.0,79.0,571.0,square3,j,0.0918,2,S,2.0
S2,8.0,81.0,65.0,76.0,72.0,76.0,647.0,square3,j,0.0238,2,S,2.0
S2,9.0,70.0,66.0,78.0,70.0,78.0,725.0,square3,j,0.0315,2,S,2.0
S2,10.0,70.0,72.0,70.0,74.0,70.0,795.0,square3,j,0.0883,2,S,2.0
S2,11.0,64.0,66.0,72.0,67.0,72.0,867.0,square3,j,0.0481,2,S,2.0
S2,12.0,66.0,57.0,70.0,67.0,70.0,937.0,square3,j,0.0646,2,S,2.0
S2,13.0,68.0,68.0,71.0,73.0,71.0,1008.0,square3,j,0.0779,2,S,2.0
S2,14.0,70.0,63.0,77.0,71.0,77.0,1085.0,square3,j,0.0398,2,S,2.0
S2,15.0,64.0,66.0,75.0,66.0,75.0,1160.0,square3,j,0.103,2,S,2.0
S2,16.0,67.0,61.0,73.0,70.0,73.0,1233.0,square3,j,0.0732,2,S,2.0
S2,17.0,65.0,58.0,71.0,75.0,71.0,1304.0,square3,j,0.085,2,S,2.0
S2,18.0,72.0,64.0,81.0,61.0,81.0,1385.0,square3,j,0.0731,2,S,2.0
S2,19.0,60.0,63.0,72.0,65.0,72.0,1457.0,square3,j,0.0581,2,S,2.0
S2,20.0,68.0,56.0,71.0,70.0,71.0,1528.0,square3,j,0.1347,2,S,2.0
S2,21.0,65.0,65.0,74.0,71.0,74.0,1602.0,square3,j,0.0005,2,S,2.0
S2,22.0,69.0,62.0,77.0,72.0,77.0,1679.0,square3,j,0.1044,2,S,2.0
S2,23.0,64.0,71.0,74.0,65.0,74.0,1753.0,square3,j,0.0257,2,S,2.0
S2,24.0,66.0,62.0,78.0,70.0,78.0,1831.0,square3,j,0.0451,2,S,2.0
S2,25.0,67.0,69.0,76.0,66.0,76.0,1907.0,square3,j,0.075,2,S,2.0
S2,26.0,65.0,63.0,74.0,69.0,74.0,1981.0,square3,j,0.0468,2,S,2.0
S2,27.0,68.0,64.0,67.0,68.0,67.0,2048.0,square3,j,0.0042,2,S,2.0
S2,28.0,61.0,52.0,71.0,68.0,71.0,2119.0,square3,j,0.0271,2,S,2.0
S2,29.0,67.0,64.0,73.0,69.0,73.0,2192.0,square3,j,0.0302,2,S,2.0
S2,30.0,67.0,53.0,77.0,67.0,77.0,2269.0,square3,j,0.0975,2,S,2.0
S2,31.0,67.0,69.0,69.0,68.0,69.0,2338.0,square3,j,0.1348,2,S,2.0
S2,32.0,71.0,63.0,73.0,70.0,73.0,2411.0,square3,j,0.05,2,S,2.0
S2,33.0,61.0,65.0,68.0,71.0,68.0,2479.0,square3,j,0.1117,2,S,2.0
S2,34.0,66.0,55.0,78.0,68.0,78.0,2557.0,square3,j,0.1106,2,S,2.0
S2,35.0,60.0,57.0,66.0,66.0,66.0,2623.0,square3,j,0.1143,2,S,2.0
S2,36.0,64.0,63.0,73.0,72.0,73.0,2696.0,square3,j,0.1449,2,S,2.0
S2,37.0,65.0,62.0,75.0,68.0,75.0,2771.0,square3,j,0.1659,2,S,2.0
S2,38.0,69.0,57.0,71.0,62.0,71.0,2842.0,square3,j,0.1109,2,S,2.0
S2,39.0,72.0,66.0,74.0,74.0,74.0,2916.0,square3,j,0.1021,2,S,2.0
S2,40.0,66.0,63.0,76.0,59.0,76.0,2992.0,square3,j,0.025,2,S,2.0
S2,41.0,74.0,64.0,67.0,76.0,67.0,3059.0,square3,j,0.0471,2,S,2.0
S2,42.0,62.0,67.0,72.0,68.0,72.0,3131.0,square3,j,0.1095,2,S,2.0
S2,43.0,69.0,63.0,75.0,71.0,75.0,3206.0,square3,j,0.0077,2,S,2.0
S2,44.0,72.0,60.0,74.0,67.0,74.0,3280.0,square3,j,0.0015,2,S,2.0
S2,45.0,69.0,63.0,76.0,73.0,76.0,3356.0,square3,j,0.1338,2,S,2.0
S2,46.0,64.0,71.0,75.0,72.0,75.0,3431.0,square3,j,0.1728,2,S,2.0
S2,47.0,75.0,62.0,75.0,69.0,75.0,3506.0,square3,j,0.1877,2,S,2.0
S2,48.0,66.0,65.0,74.0,68.0,74.0,3580.0,square3,j,0.0268,2,S,2.0
S2,49.0,67.0,64.0,72.0,76.0,72.0,3652.0,square3,j,0.1419,2,S,2.0
S4,0.0,18.0,16.0,34.0,20.0,34.0,34.0,square3,i,0.4627,2,S,4.0
S4,1.0,33.0,26.0,26.0,23.0,23.0,57.0,square4,r,0.1286,3,S,4.0
S4,2.0,35.0,15.0,33.0,22.0,15.0,72.0,square2,f,0.0707,1,S,4.0
S4,3.0,28.0,19.0,27.0,27.0,28.0,100.0,square1,j,0.1598,0,S,4.0
S4,4.0,27.0,16.0,25.0,28.0,25.0,125.0,square3,i,0.0004,2,S,4.0
S4,5.0,23.0,22.0,31.0,24.0,31.0,156.0,square3,i,0.0457,2,S,4.0
S4,6.0,25.0,20.0,34.0,23.0,34.0,190.0,square3,i,0.1529,2,S,4.0
S4,7.0,21.0,22.0,30.0,21.0,30.0,220.0,square3,i,0.0742,2,S,4.0
S4,8.0,33.0,24.0,33.0,17.0,33.0,253.0,square3,i,0.1354,2,S,4.0
S4,9.0,24.0,18.0,31.0,28.0,31.0,284.0,square3,i,0.0358,2,S,4.0
S4,10.0,31.0,26.0,35.0,20.0,35.0,319.0,square3,i,0.0531,2,S,4.0
S4,11.0,25.0,15.0,31.0,25.0,31.0,350.0,square3,i,0.123,2,S,4.0
S4,12.0,24.0,16.0,29.0,22.0,29.0,379.0,square3,i,0.1064,2,S,4.0
S4,13.0,28.0,23.0,25.0,17.0,25.0,404.0,square3,i,0.142,2,S,4.0
S4,14.0,22.0,23.0,21.0,23.0,21.0,425.0,square3,i,0.0398,2,S,4.0
S4,15.0,25.0,19.0,28.0,25.0,28.0,453.0,square3,i,0.0005,2,S,4.0
S4,16.0,26.0,17.0,30.0,21.0,30.0,483.0,square3,i,0.0884,2,S,4.0
S4,17.0,22.0,21.0,29.0,22.0,29.0,512.0,square3,i,0.0302,2,S,4.0
S4,18.0,28.0,22.0,32.0,22.0,32.0,544.0,square3,i,0.0214,2,S,4.0
S4,19.0,26.0,19.0,31.0,26.0,31.0,575.0,square3,i,0.151,2,S,4.0
S4,20.0,28.0,18.0,28.0,25.0,28.0,603.0,square3,i,0.124,2,S,4.0
S4,21.0,33.0,26.0,21.0,29.0,21.0,624.0,square3,i,0.0485,2,S,4.0
S4,22.0,31.0,19.0,29.0,20.0,29.0,653.0,square3,i,0.0932,2,S,4.0
S4,23.0,27.0,21.0,36.0,26.0,36.0,689.0,square3,i,0.1558,2,S,4.0
S4,24.0,28.0,15.0,32.0,21.0,32.0,721.0,square3,i,0.0005,2,S,4.0
S4,25.0,27.0,18.0,28.0,25.0,28.0,749.0,square3,i,0.013,2,S,4.0
S4,26.0,26.0,20.0,27.0,14.0,27.0,776.0,square3,i,0.0004,2,S,4.0
S4,27.0,28.0,19.0,36.0,18.0,36.0,812.0,square3,i,0.1102,2,S,4.0
S4,28.0,28.0,19.0,28.0,23.0,28.0,840.0,square3,i,0.0263,2,S,4.0
S4,29.0,25.0,22.0,29.0,23.0,29.0,869.0,square3,i,0.0006,2,S,4.0
S4,30.0,26.0,16.0,30.0,20.0,30.0,899.0,square3,i,0.0809,2,S,4.0
S4,31.0,23.0,25.0,26.0,30.0,26.0,925.0,square3,i,0.578,2,S,4.0
S4,32.0,21.0,26.0,22.0,23.0,22.0,947.0,square3,i,0.0553,2,S,4.0
S4,33.0,25.0,22.0,24.0,17.0,24.0,971.0,square3,i,0.0006,2,S,4.0
S4,34.0,30.0,22.0,33.0,24.0,33.0,1004.0,square3,i,0.0834,2,S,4.0
S4,35.0,23.0,21.0,35.0,26.0,35.0,1039.0,square3,i,0.0346,2,S,4.0
S4,36.0,19.0,21.0,33.0,24.0,33.0,1072.0,square3,i,0.0667,2,S,4.0
S4,37.0,20.0,17.0,26.0,26.0,26.0,1098.0,square3,i,0.2098,2,S,4.0
S4,38.0,28.0,20.0,28.0,26.0,28.0,1126.0,square3,i,0.3889,2,S,4.0
S4,39.0,28.0,23.0,40.0,27.0,40.0,1166.0,square3,i,0.0021,2,S,4.0
S4,40.0,25.0,24.0,32.0,22.0,32.0,1198.0,square3,i,0.0221,2,S,4.0
S4,41.0,23.0,23.0,26.0,17.0,26.0,1224.0,square3,i,0.3066,2,S,4.0
S4,42.0,26.0,18.0,33.0,22.0,33.0,1257.0,square3,i,0.3535,2,S,4.0
S4,43.0,22.0,21.0,36.0,25.0,36.0,1293.0,square3,i,0.1843,2,S,4.0
S4,44.0,21.0,18.0,33.0,14.0,33.0,1326.0,square3,i,0.0532,2,S,4.0
S4,45.0,29.0,19.0,30.0,29.0,30.0,1356.0,square3,i,0.0265,2,S,4.0
S4,46.0,21.0,16.0,22.0,23.0,22.0,1378.0,square3,i,0.2832,2,S,4.0
S4,47.0,22.0,18.0,28.0,22.0,28.0,1406.0,square3,i,0.311,2,S,4.0
S4,48.0,33.0,21.0,32.0,26.0,32.0,1438.0,square3,i,0.1464,2,S,4.0
S4,49.0,23.0,17.0,20.0,21.0,20.0,1458.0,square3,i,0.0194,2,S,4.0
S7,0.0,68.0,73.0,62.0,57.0,68.0,68.0,square1,i,0.4709,0,S,7.0
S7,1.0,74.0,67.0,66.0,59.0,67.0,135.0,square2,r,0.109,1,S,7.0
S7,2.0,68.0,69.0,65.0,60.0,60.0,195.0,square4,j,0.0304,3,S,7.0
S7,3.0,74.0,68.0,65.0,63.0,65.0,260.0,square3,f,0.0555,2,S,7.0
S7,4.0,68.0,74.0,67.0,63.0,68.0,328.0,square1,i,0.1093,0,S,7.0
S7,5.0,68.0,67.0,61.0,57.0,68.0,396.0,square1,i,0.0674,0,S,7.0
S7,6.0,72.0,64.0,65.0,51.0,72.0,468.0,square1,i,0.2108,0,S,7.0
S7,7.0,69.0,63.0,69.0,63.0,69.0,537.0,square1,i,0.0326,0,S,7.0
S7,8.0,71.0,68.0,63.0,54.0,71.0,608.0,square1,i,0.0173,0,S,7.0
S7,9.0,81.0,66.0,68.0,62.0,81.0,689.0,square1,i,0.1775,0,S,7.0
S7,10.0,72.0,73.0,68.0,61.0,72.0,761.0,square1,i,0.1,0,S,7.0
S7,11.0,72.0,72.0,62.0,58.0,72.0,833.0,square1,i,0.0332,0,S,7.0
S7,12.0,66.0,66.0,62.0,61.0,66.0,899.0,square1,i,0.0005,0,S,7.0
S7,13.0,73.0,75.0,75.0,68.0,73.0,972.0,square1,i,0.0262,0,S,7.0
S7,14.0,71.0,73.0,72.0,66.0,71.0,1043.0,square1,i,0.1426,0,S,7.0
S7,15.0,75.0,68.0,68.0,65.0,75.0,1118.0,square1,i,0.0151,0,S,7.0
S7,16.0,67.0,65.0,62.0,56.0,67.0,1185.0,square1,i,0.1508,0,S,7.0
S7,17.0,72.0,67.0,63.0,64.0,72.0,1257.0,square1,i,0.1094,0,S,7.0
S7,18.0,73.0,69.0,66.0,65.0,73.0,1330.0,square1,i,0.0005,0,S,7.0
S7,19.0,75.0,70.0,62.0,58.0,75.0,1405.0,square1,i,0.0005,0,S,7.0
S7,20.0,76.0,63.0,67.0,62.0,76.0,1481.0,square1,i,0.1869,0,S,7.0
S7,21.0,79.0,76.0,63.0,64.0,79.0,1560.0,square1,i,0.009,0,S,7.0
S7,22.0,67.0,72.0,63.0,62.0,67.0,1627.0,square1,i,0.0242,0,S,7.0
S7,23.0,69.0,71.0,70.0,62.0,69.0,1696.0,square1,i,0.0465,0,S,7.0
S7,24.0,74.0,67.0,70.0,62.0,74.0,1770.0,square1,i,0.0314,0,S,7.0
S7,25.0,70.0,67.0,72.0,62.0,70.0,1840.0,square1,i,0.1148,0,S,7.0
S7,26.0,72.0,62.0,74.0,65.0,72.0,1912.0,square1,i,0.242,0,S,7.0
S7,27.0,69.0,70.0,68.0,62.0,69.0,1981.0,square1,i,0.1391,0,S,7.0
S7,28.0,65.0,66.0,60.0,62.0,65.0,2046.0,square1,i,0.0132,0,S,7.0
S7,29.0,70.0,64.0,60.0,68.0,70.0,2116.0,square1,i,0.0212,0,S,7.0
S7,30.0,69.0,69.0,64.0,57.0,69.0,2185.0,square1,i,0.03,0,S,7.0
S7,31.0,77.0,67.0,65.0,60.0,77.0,2262.0,square1,i,0.133,0,S,7.0
S7,32.0,67.0,75.0,65.0,58.0,67.0,2329.0,square1,i,0.1301,0,S,7.0
S7,33.0,74.0,66.0,66.0,60.0,74.0,2403.0,square1,i,0.0004,0,S,7.0
S7,34.0,72.0,72.0,66.0,61.0,72.0,2475.0,square1,i,0.0793,0,S,7.0
S7,35.0,67.0,68.0,64.0,62.0,67.0,2542.0,square1,i,0.0744,0,S,7.0
S7,36.0,64.0,63.0,70.0,58.0,64.0,2606.0,square1,i,0.0798,0,S,7.0
S7,37.0,80.0,72.0,64.0,53.0,80.0,2686.0,square1,i,0.1169,0,S,7.0
S7,38.0,78.0,69.0,76.0,67.0,78.0,2764.0,square1,i,0.0481,0,S,7.0
S7,39.0,69.0,66.0,60.0,67.0,69.0,2833.0,square1,i,0.0609,0,S,7.0
S7,40.0,72.0,71.0,63.0,66.0,72.0,2905.0,square1,i,0.287,0,S,7.0
S7,41.0,80.0,73.0,65.0,63.0,80.0,2985.0,square1,i,0.0143,0,S,7.0
S7,42.0,77.0,60.0,65.0,59.0,77.0,3062.0,square1,i,0.0291,0,S,7.0
S7,43.0,70.0,72.0,70.0,63.0,70.0,3132.0,square1,i,0.0315,0,S,7.0
S7,44.0,77.0,70.0,66.0,58.0,77.0,3209.0,square1,i,0.3234,0,S,7.0
S7,45.0,75.0,69.0,73.0,58.0,75.0,3284.0,square1,i,0.1095,0,S,7.0
S7,46.0,74.0,71.0,63.0,63.0,74.0,3358.0,square1,i,0.0576,0,S,7.0
S7,47.0,73.0,75.0,71.0,64.0,73.0,3431.0,square1,i,0.0669,0,S,7.0
S7,48.0,78.0,79.0,64.0,58.0,78.0,3509.0,square1,i,0.0185,0,S,7.0
S7,49.0,75.0,72.0,66.0,72.0,75.0,3584.0,square1,i,0.017,0,S,7.0
S3,0.0,38.0,48.0,42.0,57.0,48.0,48.0,square2,i,0.4458,1,S,3.0
S3,1.0,29.0,43.0,51.0,57.0,51.0,99.0,square3,r,0.0005,2,S,3.0
S3,2.0,41.0,49.0,46.0,49.0,41.0,140.0,square1,j,0.0977,0,S,3.0
S3,3.0,44.0,50.0,45.0,52.0,52.0,192.0,square4,f,0.064,3,S,3.0
S3,4.0,37.0,51.0,45.0,58.0,45.0,237.0,square3,r,0.005,2,S,3.0
S3,5.0,47.0,43.0,42.0,49.0,42.0,279.0,square3,r,0.0798,2,S,3.0
S3,6.0,44.0,53.0,51.0,58.0,53.0,332.0,square2,i,0.0966,1,S,3.0
S3,7.0,39.0,47.0,46.0,54.0,39.0,371.0,square1,j,0.1233,0,S,3.0
S3,8.0,43.0,53.0,41.0,52.0,52.0,423.0,square4,f,0.0471,3,S,3.0
S3,9.0,42.0,46.0,41.0,53.0,46.0,469.0,square2,i,0.0563,1,S,3.0
S3,10.0,37.0,49.0,49.0,55.0,55.0,524.0,square4,f,0.1448,3,S,3.0
S3,11.0,40.0,47.0,36.0,59.0,36.0,560.0,square3,r,0.0362,2,S,3.0
S3,12.0,46.0,51.0,39.0,56.0,56.0,616.0,square4,f,0.1268,3,S,3.0
S3,13.0,39.0,48.0,45.0,57.0,57.0,673.0,square4,f,0.0453,3,S,3.0
S3,14.0,39.0,55.0,43.0,47.0,47.0,720.0,square4,f,0.0012,3,S,3.0
S3,15.0,46.0,46.0,47.0,52.0,52.0,772.0,square4,f,0.0079,3,S,3.0
S3,16.0,42.0,49.0,50.0,55.0,55.0,827.0,square4,f,0.0522,3,S,3.0
S3,17.0,45.0,45.0,56.0,47.0,47.0,874.0,square4,f,0.0808,3,S,3.0
S3,18.0,46.0,43.0,45.0,50.0,50.0,924.0,square4,f,0.1663,3,S,3.0
S3,19.0,41.0,47.0,50.0,55.0,55.0,979.0,square4,f,0.1174,3,S,3.0
S3,20.0,45.0,52.0,49.0,52.0,52.0,1031.0,square4,f,0.0588,3,S,3.0
S3,21.0,40.0,43.0,47.0,46.0,46.0,1077.0,square4,f,0.0136,3,S,3.0
S3,22.0,45.0,46.0,44.0,47.0,47.0,1124.0,square4,f,0.0931,3,S,3.0
S3,23.0,36.0,50.0,42.0,46.0,46.0,1170.0,square4,f,0.1191,3,S,3.0
S3,24.0,42.0,54.0,49.0,55.0,55.0,1225.0,square4,f,0.0862,3,S,3.0
S3,25.0,43.0,51.0,44.0,54.0,54.0,1279.0,square4,f,0.16,3,S,3.0
S3,26.0,49.0,50.0,52.0,52.0,52.0,1331.0,square4,f,0.013,3,S,3.0
S3,27.0,47.0,52.0,44.0,50.0,50.0,1381.0,square4,f,0.035,3,S,3.0
S3,28.0,37.0,48.0,40.0,47.0,47.0,1428.0,square4,f,0.0611,3,S,3.0
S3,29.0,50.0,43.0,50.0,57.0,57.0,1485.0,square4,f,0.0612,3,S,3.0
S3,30.0,50.0,50.0,46.0,47.0,47.0,1532.0,square4,f,0.0524,3,S,3.0
S3,31.0,37.0,53.0,49.0,56.0,56.0,1588.0,square4,f,0.1614,3,S,3.0
S3,32.0,42.0,50.0,43.0,58.0,58.0,1646.0,square4,f,0.0145,3,S,3.0
S3,33.0,44.0,49.0,46.0,59.0,59.0,1705.0,square4,f,0.1467,3,S,3.0
S3,34.0,42.0,50.0,50.0,58.0,58.0,1763.0,square4,f,0.1748,3,S,3.0
S3,35.0,43.0,46.0,45.0,50.0,50.0,1813.0,square4,f,0.0338,3,S,3.0
S3,36.0,46.0,52.0,50.0,48.0,48.0,1861.0,square4,f,0.1137,3,S,3.0
S3,37.0,48.0,50.0,49.0,52.0,52.0,1913.0,square4,f,0.0681,3,S,3.0
S3,38.0,39.0,43.0,50.0,55.0,55.0,1968.0,square4,f,0.0919,3,S,3.0
S3,39.0,50.0,53.0,46.0,57.0,57.0,2025.0,square4,f,0.1287,3,S,3.0
S3,40.0,41.0,46.0,48.0,55.0,55.0,2080.0,square4,f,0.1402,3,S,3.0
S3,41.0,49.0,49.0,40.0,56.0,56.0,2136.0,square4,f,0.1098,3,S,3.0
S3,42.0,47.0,49.0,43.0,48.0,48.0,2184.0,square4,f,0.1596,3,S,3.0
S3,43.0,46.0,43.0,41.0,58.0,58.0,2242.0,square4,f,0.0073,3,S,3.0
S3,44.0,46.0,52.0,51.0,55.0,55.0,2297.0,square4,f,0.0778,3,S,3.0
S3,45.0,46.0,41.0,46.0,49.0,49.0,2346.0,square4,f,0.0003,3,S,3.0
S3,46.0,32.0,56.0,40.0,50.0,50.0,2396.0,square4,f,0.0746,3,S,3.0
S3,47.0,42.0,49.0,44.0,51.0,51.0,2447.0,square4,f,0.0176,3,S,3.0
S3,48.0,36.0,45.0,38.0,50.0,50.0,2497.0,square4,f,0.0076,3,S,3.0
S3,49.0,45.0,48.0,47.0,52.0,52.0,2549.0,square4,f,0.1615,3,S,3.0
S10,0.0,72.0,76.0,80.0,64.0,80.0,80.0,square3,i,0.8784,2,S,10.0
S10,1.0,76.0,75.0,74.0,65.0,65.0,145.0,square4,r,0.0817,3,S,10.0
S10,2.0,70.0,72.0,79.0,74.0,72.0,217.0,square2,j,0.0191,1,S,10.0
S10,3.0,69.0,77.0,76.0,68.0,69.0,286.0,square1,f,0.0264,0,S,10.0
S10,4.0,72.0,79.0,77.0,70.0,77.0,363.0,square3,i,0.147,2,S,10.0
S10,5.0,68.0,74.0,72.0,64.0,72.0,435.0,square3,i,0.011,2,S,10.0
S10,6.0,70.0,77.0,72.0,62.0,72.0,507.0,square3,i,0.1347,2,S,10.0
S10,7.0,78.0,81.0,80.0,74.0,80.0,587.0,square3,i,0.0061,2,S,10.0
S10,8.0,78.0,78.0,82.0,66.0,82.0,669.0,square3,i,0.2046,2,S,10.0
S10,9.0,69.0,76.0,77.0,65.0,77.0,746.0,square3,i,0.0252,2,S,10.0
S10,10.0,72.0,78.0,72.0,75.0,72.0,818.0,square3,i,0.0146,2,S,10.0
S10,11.0,71.0,76.0,78.0,66.0,66.0,884.0,square4,r,0.0515,3,S,10.0
S10,12.0,73.0,83.0,79.0,69.0,83.0,967.0,square2,j,0.0567,1,S,10.0
S10,13.0,68.0,77.0,65.0,65.0,68.0,1035.0,square1,f,0.0938,0,S,10.0
S10,14.0,69.0,84.0,79.0,65.0,84.0,1119.0,square2,j,0.0247,1,S,10.0
S10,15.0,72.0,84.0,70.0,71.0,84.0,1203.0,square2,j,0.0105,1,S,10.0
S10,16.0,79.0,80.0,82.0,67.0,80.0,1283.0,square2,j,0.2247,1,S,10.0
S10,17.0,69.0,83.0,75.0,70.0,83.0,1366.0,square2,j,0.0004,1,S,10.0
S10,18.0,69.0,75.0,69.0,68.0,75.0,1441.0,square2,j,0.0082,1,S,10.0
S10,19.0,70.0,83.0,73.0,66.0,83.0,1524.0,square2,j,0.0296,1,S,10.0
S10,20.0,69.0,83.0,75.0,66.0,75.0,1599.0,square3,i,0.0115,2,S,10.0
S10,21.0,77.0,70.0,75.0,70.0,70.0,1669.0,square4,r,0.1273,3,S,10.0
S10,22.0,73.0,77.0,81.0,69.0,73.0,1742.0,square1,f,0.0005,0,S,10.0
S10,23.0,73.0,78.0,70.0,65.0,78.0,1820.0,square2,j,0.0574,1,S,10.0
S10,24.0,70.0,80.0,75.0,66.0,80.0,1900.0,square2,j,0.0746,1,S,10.0
S10,25.0,70.0,80.0,73.0,72.0,80.0,1980.0,square2,j,0.0262,1,S,10.0
S10,26.0,73.0,75.0,73.0,75.0,75.0,2055.0,square2,j,0.146,1,S,10.0
S10,27.0,77.0,81.0,83.0,66.0,83.0,2138.0,square3,i,0.1324,2,S,10.0
S10,28.0,73.0,79.0,79.0,73.0,79.0,2217.0,square3,i,0.1451,2,S,10.0
S10,29.0,73.0,79.0,72.0,69.0,72.0,2289.0,square3,i,0.1014,2,S,10.0
S10,30.0,71.0,85.0,79.0,69.0,85.0,2374.0,square2,j,0.0656,1,S,10.0
S10,31.0,71.0,85.0,83.0,66.0,85.0,2459.0,square2,j,0.0011,1,S,10.0
S10,32.0,78.0,79.0,77.0,65.0,79.0,2538.0,square2,j,0.1137,1,S,10.0
S10,33.0,83.0,79.0,72.0,68.0,79.0,2617.0,square2,j,0.078,1,S,10.0
S10,34.0,68.0,74.0,79.0,72.0,74.0,2691.0,square2,j,0.0135,1,S,10.0
S10,35.0,70.0,83.0,79.0,67.0,79.0,2770.0,square3,i,0.0835,2,S,10.0
S10,36.0,67.0,76.0,75.0,72.0,75.0,2845.0,square3,i,0.0262,2,S,10.0
S10,37.0,76.0,82.0,79.0,60.0,79.0,2924.0,square3,i,0.0352,2,S,10.0
S10,38.0,72.0,75.0,69.0,68.0,69.0,2993.0,square3,i,0.109,2,S,10.0
S10,39.0,73.0,78.0,76.0,70.0,78.0,3071.0,square2,j,0.0566,1,S,10.0
S10,40.0,76.0,77.0,66.0,60.0,77.0,3148.0,square2,j,0.0033,1,S,10.0
S10,41.0,74.0,83.0,73.0,67.0,83.0,3231.0,square2,j,0.1121,1,S,10.0
S10,42.0,72.0,69.0,80.0,63.0,69.0,3300.0,square2,j,0.0252,1,S,10.0
S10,43.0,69.0,74.0,72.0,68.0,72.0,3372.0,square3,i,0.0728,2,S,10.0
S10,44.0,67.0,76.0,70.0,65.0,70.0,3442.0,square3,i,0.0722,2,S,10.0
S10,45.0,76.0,81.0,74.0,72.0,76.0,3518.0,square1,f,0.0131,0,S,10.0
S10,46.0,76.0,79.0,76.0,66.0,66.0,3584.0,square4,r,0.1252,3,S,10.0
S10,47.0,67.0,81.0,84.0,60.0,67.0,3651.0,square1,f,0.075,0,S,10.0
S10,48.0,73.0,83.0,75.0,66.0,83.0,3734.0,square2,j,0.1452,1,S,10.0
S10,49.0,66.0,77.0,74.0,71.0,77.0,3811.0,square2,j,0.058,1,S,10.0
S12,0.0,38.0,42.0,30.0,42.0,42.0,42.0,square4,i,0.4073,3,S,12.0
S12,1.0,30.0,42.0,28.0,37.0,28.0,70.0,square3,j,0.0994,2,S,12.0
S12,2.0,34.0,41.0,38.0,43.0,41.0,111.0,square2,f,0.0782,1,S,12.0
S12,3.0,38.0,51.0,38.0,38.0,38.0,149.0,square1,r,0.0116,0,S,12.0
S12,4.0,32.0,37.0,33.0,45.0,45.0,194.0,square4,i,0.0795,3,S,12.0
S12,5.0,38.0,52.0,36.0,35.0,52.0,246.0,square2,f,0.0185,1,S,12.0
S12,6.0,30.0,43.0,30.0,38.0,38.0,284.0,square4,i,0.1073,3,S,12.0
S12,7.0,38.0,39.0,30.0,39.0,39.0,323.0,square2,f,0.0297,1,S,12.0
S12,8.0,37.0,49.0,35.0,38.0,37.0,360.0,square1,r,0.0665,0,S,12.0
S12,9.0,37.0,44.0,29.0,38.0,29.0,389.0,square3,j,0.0461,2,S,12.0
S12,10.0,35.0,42.0,30.0,45.0,42.0,431.0,square2,f,0.1019,1,S,12.0
S12,11.0,34.0,45.0,36.0,32.0,32.0,463.0,square4,i,0.0189,3,S,12.0
S12,12.0,33.0,45.0,35.0,42.0,45.0,508.0,square2,f,0.1465,1,S,12.0
S12,13.0,36.0,36.0,29.0,40.0,36.0,544.0,square2,f,0.1144,1,S,12.0
S12,14.0,36.0,49.0,32.0,42.0,42.0,586.0,square4,i,0.1781,3,S,12.0
S12,15.0,35.0,43.0,35.0,46.0,46.0,632.0,square4,i,0.0005,3,S,12.0
S12,16.0,39.0,48.0,41.0,43.0,43.0,675.0,square4,i,0.0828,3,S,12.0
S12,17.0,35.0,47.0,27.0,38.0,38.0,713.0,square4,i,0.0664,3,S,12.0
S12,18.0,37.0,51.0,33.0,33.0,51.0,764.0,square2,f,0.1299,1,S,12.0
S12,19.0,41.0,42.0,33.0,36.0,42.0,806.0,square2,f,0.1388,1,S,12.0
S12,20.0,34.0,44.0,26.0,41.0,44.0,850.0,square2,f,0.1343,1,S,12.0
S12,21.0,35.0,37.0,29.0,35.0,37.0,887.0,square2,f,0.0006,1,S,12.0
S12,22.0,37.0,48.0,31.0,41.0,41.0,928.0,square4,i,0.1012,3,S,12.0
S12,23.0,36.0,43.0,27.0,45.0,45.0,973.0,square4,i,0.0991,3,S,12.0
S12,24.0,39.0,48.0,38.0,38.0,38.0,1011.0,square4,i,0.0875,3,S,12.0
S12,25.0,31.0,43.0,30.0,40.0,31.0,1042.0,square1,r,0.0132,0,S,12.0
S12,26.0,35.0,48.0,34.0,33.0,34.0,1076.0,square3,j,0.1045,2,S,12.0
S12,27.0,46.0,46.0,28.0,38.0,46.0,1122.0,square2,f,0.0803,1,S,12.0
S12,28.0,32.0,37.0,32.0,40.0,37.0,1159.0,square2,f,0.0316,1,S,12.0
S12,29.0,38.0,41.0,32.0,44.0,41.0,1200.0,square2,f,0.0004,1,S,12.0
S12,30.0,32.0,48.0,29.0,42.0,48.0,1248.0,square2,f,0.0839,1,S,12.0
S12,31.0,34.0,46.0,30.0,42.0,46.0,1294.0,square2,f,0.0398,1,S,12.0
S12,32.0,39.0,43.0,41.0,40.0,43.0,1337.0,square2,f,0.0181,1,S,12.0
S12,33.0,36.0,47.0,33.0,46.0,47.0,1384.0,square2,f,0.04,1,S,12.0
S12,34.0,36.0,41.0,34.0,41.0,41.0,1425.0,square2,f,0.0864,1,S,12.0
S12,35.0,34.0,42.0,31.0,43.0,42.0,1467.0,square2,f,0.1503,1,S,12.0
S12,36.0,39.0,43.0,26.0,33.0,43.0,1510.0,square2,f,0.1674,1,S,12.0
S12,37.0,39.0,49.0,30.0,42.0,49.0,1559.0,square2,f,0.1442,1,S,12.0
S12,38.0,33.0,47.0,36.0,41.0,47.0,1606.0,square2,f,0.1472,1,S,12.0
S12,39.0,29.0,46.0,35.0,36.0,46.0,1652.0,square2,f,0.1067,1,S,12.0
S12,40.0,39.0,39.0,29.0,36.0,39.0,1691.0,square2,f,0.0504,1,S,12.0
S12,41.0,33.0,44.0,31.0,40.0,40.0,1731.0,square4,i,0.0283,3,S,12.0
S12,42.0,34.0,46.0,25.0,37.0,37.0,1768.0,square4,i,0.0978,3,S,12.0
S12,43.0,37.0,42.0,30.0,42.0,30.0,1798.0,square3,j,0.1065,2,S,12.0
S12,44.0,33.0,49.0,36.0,39.0,33.0,1831.0,square1,r,0.1459,0,S,12.0
S12,45.0,35.0,40.0,30.0,47.0,40.0,1871.0,square2,f,0.1133,1,S,12.0
S12,46.0,40.0,41.0,29.0,35.0,41.0,1912.0,square2,f,0.1597,1,S,12.0
S12,47.0,32.0,42.0,28.0,43.0,42.0,1954.0,square2,f,0.1283,1,S,12.0
S12,48.0,43.0,47.0,31.0,38.0,47.0,2001.0,square2,f,0.0005,1,S,12.0
S12,49.0,37.0,41.0,35.0,40.0,41.0,2042.0,square2,f,0.0931,1,S,12.0
V8,0.0,49.0,55.0,64.0,74.0,64.0,64.0,square3,i,0.4916,2,V,8.0
V8,1.0,51.0,54.0,70.0,81.0,54.0,118.0,square2,r,0.1834,1,V,8.0
V8,2.0,46.0,62.0,70.0,77.0,46.0,164.0,square1,j,0.0281,0,V,8.0
V8,3.0,46.0,56.0,67.0,75.0,75.0,239.0,square4,f,0.0975,3,V,8.0
V8,4.0,50.0,59.0,67.0,83.0,83.0,322.0,square4,f,0.1471,3,V,8.0
V8,5.0,51.0,54.0,65.0,78.0,78.0,400.0,square4,f,0.0019,3,V,8.0
V8,6.0,45.0,57.0,66.0,80.0,80.0,480.0,square4,f,0.2009,3,V,8.0
V8,7.0,46.0,64.0,68.0,77.0,77.0,557.0,square4,f,0.0514,3,V,8.0
V8,8.0,50.0,57.0,66.0,73.0,73.0,630.0,square4,f,0.0736,3,V,8.0
V8,9.0,46.0,56.0,71.0,72.0,72.0,702.0,square4,f,0.0979,3,V,8.0
V8,10.0,56.0,58.0,67.0,75.0,75.0,777.0,square4,f,0.0564,3,V,8.0
V8,11.0,50.0,61.0,69.0,74.0,74.0,851.0,square4,f,0.0669,3,V,8.0
V8,12.0,59.0,59.0,69.0,77.0,77.0,928.0,square4,f,0.128,3,V,8.0
V8,13.0,50.0,56.0,72.0,77.0,77.0,1005.0,square4,f,0.1241,3,V,8.0
V8,14.0,48.0,55.0,65.0,80.0,80.0,1085.0,square4,f,0.0485,3,V,8.0
V8,15.0,48.0,58.0,65.0,76.0,76.0,1161.0,square4,f,0.0532,3,V,8.0
V8,16.0,49.0,58.0,67.0,75.0,75.0,1236.0,square4,f,0.0686,3,V,8.0
V8,17.0,51.0,56.0,68.0,76.0,76.0,1312.0,square4,f,0.0988,3,V,8.0
V8,18.0,52.0,63.0,69.0,80.0,80.0,1392.0,square4,f,0.1605,3,V,8.0
V8,19.0,54.0,54.0,71.0,79.0,79.0,1471.0,square4,f,0.0271,3,V,8.0
V8,20.0,48.0,53.0,62.0,77.0,77.0,1548.0,square4,f,0.1186,3,V,8.0
V8,21.0,44.0,61.0,66.0,77.0,77.0,1625.0,square4,f,0.0862,3,V,8.0
V8,22.0,52.0,58.0,64.0,78.0,78.0,1703.0,square4,f,0.3283,3,V,8.0
V8,23.0,50.0,49.0,67.0,79.0,50.0,1753.0,square1,j,0.0393,0,V,8.0
V8,24.0,49.0,59.0,69.0,74.0,69.0,1822.0,square3,i,0.0387,2,V,8.0
V8,25.0,46.0,61.0,65.0,81.0,61.0,1883.0,square2,r,0.0523,1,V,8.0
V8,26.0,49.0,58.0,63.0,35.0,35.0,1918.0,square4,f,0.1581,3,V,8.0
V8,27.0,48.0,51.0,66.0,41.0,66.0,1984.0,square3,i,0.1741,2,V,8.0
V8,28.0,46.0,55.0,65.0,38.0,65.0,2049.0,square3,i,0.0004,2,V,8.0
V8,29.0,47.0,58.0,69.0,40.0,69.0,2118.0,square3,i,0.056,2,V,8.0
V8,30.0,42.0,55.0,67.0,43.0,67.0,2185.0,square3,i,0.0081,2,V,8.0
V8,31.0,49.0,56.0,64.0,36.0,49.0,2234.0,square1,j,0.0557,0,V,8.0
V8,32.0,49.0,55.0,69.0,38.0,55.0,2289.0,square2,r,0.1049,1,V,8.0
V8,33.0,44.0,52.0,65.0,48.0,48.0,2337.0,square4,f,0.1527,3,V,8.0
V8,34.0,44.0,57.0,70.0,45.0,70.0,2407.0,square3,i,0.0562,2,V,8.0
V8,35.0,44.0,54.0,68.0,38.0,68.0,2475.0,square3,i,0.0004,2,V,8.0
V8,36.0,45.0,56.0,64.0,40.0,64.0,2539.0,square3,i,0.1452,2,V,8.0
V8,37.0,47.0,57.0,66.0,37.0,66.0,2605.0,square3,i,0.0352,2,V,8.0
V8,38.0,49.0,50.0,66.0,37.0,66.0,2671.0,square3,i,0.038,2,V,8.0
V8,39.0,51.0,56.0,61.0,39.0,61.0,2732.0,square3,i,0.1745,2,V,8.0
V8,40.0,47.0,59.0,66.0,41.0,47.0,2779.0,square1,j,0.1197,0,V,8.0
V8,41.0,42.0,56.0,69.0,42.0,56.0,2835.0,square2,r,0.0604,1,V,8.0
V8,42.0,47.0,57.0,72.0,35.0,35.0,2870.0,square4,f,0.0802,3,V,8.0
V8,43.0,47.0,57.0,63.0,44.0,63.0,2933.0,square3,i,0.0114,2,V,8.0
V8,44.0,45.0,58.0,67.0,42.0,67.0,3000.0,square3,i,0.0754,2,V,8.0
V8,45.0,44.0,56.0,66.0,43.0,66.0,3066.0,square3,i,0.0053,2,V,8.0
V8,46.0,46.0,53.0,70.0,37.0,70.0,3136.0,square3,i,0.1497,2,V,8.0
V8,47.0,54.0,53.0,71.0,41.0,71.0,3207.0,square3,i,0.0789,2,V,8.0
V8,48.0,49.0,53.0,69.0,37.0,69.0,3276.0,square3,i,0.0318,2,V,8.0
V8,49.0,39.0,57.0,65.0,47.0,65.0,3341.0,square3,i,0.0912,2,V,8.0
V8,50.0,48.0,55.0,65.0,41.0,65.0,3406.0,square3,i,0.1328,2,V,8.0
V8,51.0,45.0,61.0,68.0,43.0,68.0,3474.0,square3,i,0.0251,2,V,8.0
V8,52.0,53.0,52.0,68.0,37.0,53.0,3527.0,square1,j,0.1461,0,V,8.0
V8,53.0,47.0,55.0,66.0,46.0,55.0,3582.0,square2,r,0.0711,1,V,8.0
V8,54.0,49.0,53.0,61.0,39.0,39.0,3621.0,square4,f,0.0355,3,V,8.0
V8,55.0,53.0,70.0,55.0,72.0,55.0,3676.0,square3,i,0.0472,2,V,8.0
V8,56.0,57.0,63.0,48.0,73.0,48.0,3724.0,square3,i,0.0385,2,V,8.0
V8,57.0,53.0,71.0,45.0,80.0,53.0,3777.0,square1,j,0.1548,0,V,8.0
V8,58.0,57.0,69.0,52.0,73.0,69.0,3846.0,square2,r,0.0194,1,V,8.0
V8,59.0,58.0,67.0,54.0,73.0,67.0,3913.0,square2,r,0.0942,1,V,8.0
V8,60.0,55.0,66.0,47.0,76.0,66.0,3979.0,square2,r,0.0529,1,V,8.0
V8,61.0,56.0,65.0,54.0,72.0,65.0,4044.0,square2,r,0.0447,1,V,8.0
V8,62.0,56.0,65.0,49.0,75.0,65.0,4109.0,square2,r,0.1424,1,V,8.0
V8,63.0,61.0,65.0,44.0,78.0,65.0,4174.0,square2,r,0.0603,1,V,8.0
V8,64.0,54.0,66.0,48.0,75.0,66.0,4240.0,square2,r,0.1128,1,V,8.0
V8,65.0,59.0,65.0,46.0,79.0,65.0,4305.0,square2,r,0.0247,1,V,8.0
V8,66.0,51.0,62.0,46.0,73.0,62.0,4367.0,square2,r,0.1221,1,V,8.0
V8,67.0,60.0,70.0,45.0,76.0,70.0,4437.0,square2,r,0.1251,1,V,8.0
V8,68.0,63.0,64.0,47.0,73.0,64.0,4501.0,square2,r,0.1246,1,V,8.0
V8,69.0,58.0,66.0,43.0,77.0,66.0,4567.0,square2,r,0.045,1,V,8.0
V8,70.0,59.0,65.0,49.0,73.0,65.0,4632.0,square2,r,0.0652,1,V,8.0
V8,71.0,60.0,64.0,49.0,79.0,79.0,4711.0,square4,f,0.0078,3,V,8.0
V8,72.0,96.0,68.0,78.0,67.0,67.0,4778.0,square4,f,0.121,3,V,8.0
V8,73.0,96.0,68.0,79.0,64.0,64.0,4842.0,square4,f,0.1668,3,V,8.0
V8,74.0,92.0,67.0,81.0,62.0,81.0,4923.0,square3,i,0.1448,2,V,8.0
V8,75.0,96.0,72.0,83.0,62.0,83.0,5006.0,square3,i,0.1393,2,V,8.0
V8,76.0,94.0,70.0,77.0,57.0,77.0,5083.0,square3,i,0.0672,2,V,8.0
V8,77.0,91.0,68.0,81.0,59.0,81.0,5164.0,square3,i,0.0739,2,V,8.0
V8,78.0,90.0,73.0,80.0,63.0,80.0,5244.0,square3,i,0.1715,2,V,8.0
V8,79.0,90.0,73.0,83.0,61.0,83.0,5327.0,square3,i,0.017,2,V,8.0
V8,80.0,95.0,75.0,81.0,66.0,81.0,5408.0,square3,i,0.0724,2,V,8.0
V8,81.0,92.0,72.0,81.0,57.0,81.0,5489.0,square3,i,0.1376,2,V,8.0
V8,82.0,91.0,71.0,80.0,61.0,80.0,5569.0,square3,i,0.0018,2,V,8.0
V8,83.0,90.0,66.0,83.0,62.0,83.0,5652.0,square3,i,0.0337,2,V,8.0
V8,84.0,93.0,67.0,87.0,65.0,87.0,5739.0,square3,i,0.0401,2,V,8.0
V8,85.0,85.0,70.0,80.0,62.0,80.0,5819.0,square3,i,0.0176,2,V,8.0
V8,86.0,84.0,72.0,85.0,62.0,85.0,5904.0,square3,i,0.0197,2,V,8.0
V8,87.0,91.0,68.0,82.0,65.0,82.0,5986.0,square3,i,0.04,2,V,8.0
V8,88.0,93.0,67.0,83.0,61.0,83.0,6069.0,square3,i,0.0672,2,V,8.0
V8,89.0,95.0,68.0,78.0,66.0,78.0,6147.0,square3,i,0.0459,2,V,8.0
V8,90.0,91.0,73.0,80.0,60.0,80.0,6227.0,square3,i,0.0702,2,V,8.0
V8,91.0,93.0,68.0,81.0,64.0,81.0,6308.0,square3,i,0.0217,2,V,8.0
V8,92.0,90.0,75.0,82.0,67.0,82.0,6390.0,square3,i,0.2286,2,V,8.0
V8,93.0,92.0,70.0,82.0,66.0,82.0,6472.0,square3,i,0.1776,2,V,8.0
V8,94.0,90.0,71.0,78.0,63.0,78.0,6550.0,square3,i,0.265,2,V,8.0
V8,95.0,88.0,65.0,78.0,63.0,78.0,6628.0,square3,i,0.1543,2,V,8.0
V8,96.0,89.0,72.0,85.0,62.0,85.0,6713.0,square3,i,0.0881,2,V,8.0
V8,97.0,92.0,72.0,77.0,67.0,77.0,6790.0,square3,i,0.065,2,V,8.0
V8,98.0,86.0,63.0,82.0,62.0,82.0,6872.0,square3,i,0.0116,2,V,8.0
V8,99.0,90.0,66.0,75.0,61.0,75.0,6947.0,square3,i,0.0802,2,V,8.0
V3,0.0,62.0,45.0,70.0,53.0,62.0,62.0,square1,i,0.1961,0,V,3.0
V3,1.0,63.0,47.0,76.0,60.0,76.0,138.0,square3,r,0.6641,2,V,3.0
V3,2.0,65.0,54.0,73.0,57.0,54.0,192.0,square2,f,0.0699,1,V,3.0
V3,3.0,68.0,51.0,71.0,51.0,51.0,243.0,square4,j,0.1058,3,V,3.0
V3,4.0,61.0,49.0,75.0,53.0,75.0,318.0,square3,r,0.0022,2,V,3.0
V3,5.0,65.0,47.0,74.0,50.0,74.0,392.0,square3,r,0.1597,2,V,3.0
V3,6.0,61.0,51.0,72.0,57.0,72.0,464.0,square3,r,0.1856,2,V,3.0
V3,7.0,67.0,49.0,75.0,55.0,75.0,539.0,square3,r,0.1711,2,V,3.0
V3,8.0,64.0,48.0,76.0,56.0,76.0,615.0,square3,r,0.1447,2,V,3.0
V3,9.0,67.0,49.0,71.0,56.0,71.0,686.0,square3,r,0.0911,2,V,3.0
V3,10.0,65.0,50.0,71.0,56.0,71.0,757.0,square3,r,0.003,2,V,3.0
V3,11.0,63.0,43.0,78.0,58.0,78.0,835.0,square3,r,0.0157,2,V,3.0
V3,12.0,66.0,53.0,73.0,54.0,73.0,908.0,square3,r,0.0592,2,V,3.0
V3,13.0,64.0,46.0,78.0,51.0,78.0,986.0,square3,r,0.1023,2,V,3.0
V3,14.0,67.0,51.0,71.0,58.0,71.0,1057.0,square3,r,0.0652,2,V,3.0
V3,15.0,61.0,50.0,73.0,54.0,73.0,1130.0,square3,r,0.1606,2,V,3.0
V3,16.0,64.0,52.0,74.0,54.0,74.0,1204.0,square3,r,0.1141,2,V,3.0
V3,17.0,61.0,48.0,74.0,55.0,74.0,1278.0,square3,r,0.3316,2,V,3.0
V3,18.0,65.0,50.0,70.0,59.0,70.0,1348.0,square3,r,0.0762,2,V,3.0
V3,19.0,64.0,52.0,76.0,56.0,76.0,1424.0,square3,r,0.1753,2,V,3.0
V3,20.0,64.0,50.0,69.0,58.0,69.0,1493.0,square3,r,0.1731,2,V,3.0
V3,21.0,66.0,50.0,72.0,56.0,66.0,1559.0,square1,i,0.0976,0,V,3.0
V3,22.0,43.0,48.0,40.0,62.0,62.0,1621.0,square4,j,0.1609,3,V,3.0
V3,23.0,41.0,51.0,35.0,59.0,51.0,1672.0,square2,f,0.1251,1,V,3.0
V3,24.0,51.0,51.0,37.0,60.0,37.0,1709.0,square3,r,0.1318,2,V,3.0
V3,25.0,45.0,53.0,36.0,57.0,45.0,1754.0,square1,i,0.1657,0,V,3.0
V3,26.0,44.0,51.0,38.0,59.0,59.0,1813.0,square4,j,0.0848,3,V,3.0
V3,27.0,43.0,51.0,34.0,66.0,51.0,1864.0,square2,f,0.0798,1,V,3.0
V3,28.0,47.0,51.0,40.0,67.0,40.0,1904.0,square3,r,0.0965,2,V,3.0
V3,29.0,42.0,55.0,35.0,65.0,42.0,1946.0,square1,i,0.0921,0,V,3.0
V3,30.0,49.0,54.0,36.0,62.0,62.0,2008.0,square4,j,0.0383,3,V,3.0
V3,31.0,50.0,53.0,42.0,66.0,66.0,2074.0,square4,j,0.0514,3,V,3.0
V3,32.0,47.0,53.0,34.0,58.0,58.0,2132.0,square4,j,0.1165,3,V,3.0
V3,33.0,45.0,56.0,34.0,62.0,56.0,2188.0,square2,f,0.0809,1,V,3.0
V3,34.0,48.0,54.0,38.0,64.0,38.0,2226.0,square3,r,0.0669,2,V,3.0
V3,35.0,39.0,55.0,42.0,65.0,39.0,2265.0,square1,i,0.0618,0,V,3.0
V3,36.0,46.0,57.0,41.0,63.0,63.0,2328.0,square4,j,0.0935,3,V,3.0
V3,37.0,43.0,54.0,41.0,65.0,65.0,2393.0,square4,j,0.0267,3,V,3.0
V3,38.0,47.0,52.0,37.0,63.0,63.0,2456.0,square4,j,0.0927,3,V,3.0
V3,39.0,47.0,53.0,38.0,55.0,55.0,2511.0,square4,j,0.0207,3,V,3.0
V3,40.0,41.0,54.0,39.0,64.0,64.0,2575.0,square4,j,0.0935,3,V,3.0
V3,41.0,48.0,52.0,38.0,64.0,52.0,2627.0,square2,f,0.1388,1,V,3.0
V3,42.0,45.0,50.0,34.0,63.0,34.0,2661.0,square3,r,0.1319,2,V,3.0
V3,43.0,44.0,50.0,34.0,62.0,44.0,2705.0,square1,i,0.0419,0,V,3.0
V3,44.0,47.0,55.0,39.0,65.0,65.0,2770.0,square4,j,0.0556,3,V,3.0
V3,45.0,45.0,55.0,31.0,63.0,63.0,2833.0,square4,j,0.0909,3,V,3.0
V3,46.0,42.0,52.0,38.0,64.0,64.0,2897.0,square4,j,0.1327,3,V,3.0
V3,47.0,44.0,53.0,37.0,55.0,55.0,2952.0,square4,j,0.1177,3,V,3.0
V3,48.0,44.0,49.0,37.0,58.0,58.0,3010.0,square4,j,0.0787,3,V,3.0
V3,49.0,48.0,58.0,35.0,54.0,54.0,3064.0,square4,j,0.012,3,V,3.0
V3,50.0,42.0,28.0,30.0,52.0,52.0,3116.0,square4,j,0.0378,3,V,3.0
V3,51.0,46.0,29.0,32.0,51.0,29.0,3145.0,square2,f,0.1711,1,V,3.0
V3,52.0,37.0,20.0,36.0,50.0,36.0,3181.0,square3,r,0.0006,2,V,3.0
V3,53.0,44.0,22.0,34.0,55.0,44.0,3225.0,square1,i,0.1578,0,V,3.0
V3,54.0,37.0,27.0,26.0,50.0,50.0,3275.0,square4,j,0.0652,3,V,3.0
V3,55.0,41.0,21.0,39.0,53.0,53.0,3328.0,square4,j,0.038,3,V,3.0
V3,56.0,40.0,20.0,38.0,51.0,51.0,3379.0,square4,j,0.0803,3,V,3.0
V3,57.0,44.0,28.0,31.0,57.0,57.0,3436.0,square4,j,0.0549,3,V,3.0
V3,58.0,46.0,20.0,28.0,49.0,49.0,3485.0,square4,j,0.1204,3,V,3.0
V3,59.0,44.0,24.0,30.0,55.0,30.0,3515.0,square3,r,0.033,2,V,3.0
V3,60.0,42.0,29.0,29.0,51.0,42.0,3557.0,square1,i,0.0942,0,V,3.0
V3,61.0,41.0,21.0,30.0,46.0,21.0,3578.0,square2,f,0.058,1,V,3.0
V3,62.0,41.0,27.0,31.0,49.0,49.0,3627.0,square4,j,0.1059,3,V,3.0
V3,63.0,42.0,27.0,34.0,51.0,51.0,3678.0,square4,j,0.0511,3,V,3.0
V3,64.0,41.0,24.0,30.0,47.0,47.0,3725.0,square4,j,0.1056,3,V,3.0
V3,65.0,36.0,18.0,34.0,48.0,48.0,3773.0,square4,j,0.0199,3,V,3.0
V3,66.0,39.0,28.0,35.0,45.0,45.0,3818.0,square4,j,0.1294,3,V,3.0
V3,67.0,42.0,21.0,32.0,46.0,46.0,3864.0,square4,j,0.1152,3,V,3.0
V3,68.0,40.0,24.0,35.0,53.0,53.0,3917.0,square4,j,0.1828,3,V,3.0
V3,69.0,48.0,23.0,34.0,50.0,50.0,3967.0,square4,j,0.1391,3,V,3.0
V3,70.0,40.0,27.0,31.0,49.0,49.0,4016.0,square4,j,0.1582,3,V,3.0
V3,71.0,41.0,23.0,28.0,51.0,23.0,4039.0,square2,f,0.1463,1,V,3.0
V3,72.0,42.0,25.0,33.0,55.0,42.0,4081.0,square1,i,0.0378,0,V,3.0
V3,73.0,41.0,24.0,35.0,55.0,35.0,4116.0,square3,r,0.0918,2,V,3.0
V3,74.0,38.0,26.0,28.0,53.0,53.0,4169.0,square4,j,0.1113,3,V,3.0
V3,75.0,54.0,39.0,69.0,50.0,50.0,4219.0,square4,j,0.1135,3,V,3.0
V3,76.0,55.0,42.0,64.0,53.0,53.0,4272.0,square4,j,0.0475,3,V,3.0
V3,77.0,59.0,37.0,66.0,44.0,44.0,4316.0,square4,j,0.8818,3,V,3.0
V3,78.0,58.0,38.0,60.0,46.0,38.0,4354.0,square2,f,0.1017,1,V,3.0
V3,79.0,54.0,35.0,66.0,49.0,54.0,4408.0,square1,i,0.0648,0,V,3.0
V3,80.0,60.0,36.0,68.0,44.0,60.0,4468.0,square1,i,0.1197,0,V,3.0
V3,81.0,55.0,38.0,66.0,51.0,55.0,4523.0,square1,i,0.0133,0,V,3.0
V3,82.0,57.0,47.0,64.0,50.0,57.0,4580.0,square1,i,0.0417,0,V,3.0
V3,83.0,57.0,37.0,63.0,45.0,57.0,4637.0,square1,i,0.0798,0,V,3.0
V3,84.0,54.0,40.0,65.0,53.0,54.0,4691.0,square1,i,0.0733,0,V,3.0
V3,85.0,58.0,41.0,63.0,48.0,58.0,4749.0,square1,i,0.0005,0,V,3.0
V3,86.0,53.0,38.0,57.0,49.0,57.0,4806.0,square3,r,0.1617,2,V,3.0
V3,87.0,49.0,42.0,60.0,43.0,43.0,4849.0,square4,j,0.0401,3,V,3.0
V3,88.0,56.0,35.0,70.0,46.0,35.0,4884.0,square2,f,0.1021,1,V,3.0
V3,89.0,58.0,39.0,63.0,52.0,63.0,4947.0,square3,r,0.1727,2,V,3.0
V3,90.0,59.0,43.0,63.0,45.0,63.0,5010.0,square3,r,0.0989,2,V,3.0
V3,91.0,54.0,37.0,69.0,49.0,69.0,5079.0,square3,r,0.0773,2,V,3.0
V3,92.0,56.0,41.0,61.0,47.0,61.0,5140.0,square3,r,0.0203,2,V,3.0
V3,93.0,58.0,35.0,68.0,47.0,68.0,5208.0,square3,r,0.2002,2,V,3.0
V3,94.0,61.0,37.0,67.0,51.0,67.0,5275.0,square3,r,0.0966,2,V,3.0
V3,95.0,57.0,32.0,64.0,47.0,64.0,5339.0,square3,r,0.1113,2,V,3.0
V3,96.0,53.0,38.0,63.0,48.0,63.0,5402.0,square3,r,0.0858,2,V,3.0
V3,97.0,57.0,44.0,71.0,50.0,71.0,5473.0,square3,r,0.0982,2,V,3.0
V3,98.0,56.0,39.0,70.0,47.0,70.0,5543.0,square3,r,0.1181,2,V,3.0
V3,99.0,62.0,40.0,67.0,49.0,67.0,5610.0,square3,r,0.0275,2,V,3.0
V1,0.0,46.0,61.0,52.0,71.0,52.0,52.0,square3,i,0.2333,2,V,1.0
V1,1.0,45.0,63.0,54.0,78.0,78.0,130.0,square4,r,0.2263,3,V,1.0
V1,2.0,51.0,58.0,59.0,77.0,58.0,188.0,square2,j,0.0423,1,V,1.0
V1,3.0,53.0,65.0,56.0,75.0,53.0,241.0,square1,f,0.0371,0,V,1.0
V1,4.0,49.0,68.0,53.0,72.0,72.0,313.0,square4,r,0.0889,3,V,1.0
V1,5.0,47.0,70.0,59.0,76.0,76.0,389.0,square4,r,0.0118,3,V,1.0
V1,6.0,55.0,63.0,54.0,76.0,76.0,465.0,square4,r,0.0726,3,V,1.0
V1,7.0,47.0,67.0,55.0,74.0,74.0,539.0,square4,r,0.1112,3,V,1.0
V1,8.0,47.0,65.0,46.0,76.0,76.0,615.0,square4,r,0.154,3,V,1.0
V1,9.0,46.0,68.0,59.0,78.0,78.0,693.0,square4,r,0.0026,3,V,1.0
V1,10.0,58.0,67.0,58.0,79.0,79.0,772.0,square4,r,0.0005,3,V,1.0
V1,11.0,44.0,61.0,54.0,72.0,72.0,844.0,square4,r,0.0966,3,V,1.0
V1,12.0,44.0,65.0,56.0,75.0,75.0,919.0,square4,r,0.1914,3,V,1.0
V1,13.0,47.0,63.0,53.0,73.0,73.0,992.0,square4,r,0.0529,3,V,1.0
V1,14.0,49.0,66.0,56.0,75.0,75.0,1067.0,square4,r,0.0114,3,V,1.0
V1,15.0,49.0,66.0,52.0,79.0,79.0,1146.0,square4,r,0.0318,3,V,1.0
V1,16.0,51.0,61.0,48.0,72.0,72.0,1218.0,square4,r,0.1283,3,V,1.0
V1,17.0,46.0,61.0,59.0,71.0,71.0,1289.0,square4,r,0.0743,3,V,1.0
V1,18.0,45.0,61.0,53.0,72.0,72.0,1361.0,square4,r,0.0042,3,V,1.0
V1,19.0,49.0,63.0,54.0,76.0,76.0,1437.0,square4,r,0.0913,3,V,1.0
V1,20.0,46.0,66.0,52.0,72.0,72.0,1509.0,square4,r,0.1932,3,V,1.0
V1,21.0,50.0,65.0,51.0,73.0,73.0,1582.0,square4,r,0.0005,3,V,1.0
V1,22.0,56.0,62.0,56.0,77.0,77.0,1659.0,square4,r,0.1846,3,V,1.0
V1,23.0,45.0,67.0,54.0,83.0,83.0,1742.0,square4,r,0.163,3,V,1.0
V1,24.0,46.0,69.0,57.0,71.0,71.0,1813.0,square4,r,0.0594,3,V,1.0
V1,25.0,41.0,65.0,55.0,76.0,76.0,1889.0,square4,r,0.1126,3,V,1.0
V1,26.0,51.0,60.0,55.0,74.0,74.0,1963.0,square4,r,0.1643,3,V,1.0
V1,27.0,52.0,63.0,56.0,73.0,73.0,2036.0,square4,r,0.1407,3,V,1.0
V1,28.0,50.0,68.0,50.0,76.0,76.0,2112.0,square4,r,0.1408,3,V,1.0
V1,29.0,51.0,60.0,54.0,74.0,74.0,2186.0,square4,r,0.1054,3,V,1.0
V1,30.0,35.0,67.0,57.0,40.0,40.0,2226.0,square4,r,0.0447,3,V,1.0
V1,31.0,38.0,60.0,52.0,35.0,38.0,2264.0,square1,f,0.0513,0,V,1.0
V1,32.0,37.0,67.0,52.0,41.0,67.0,2331.0,square2,j,0.092,1,V,1.0
V1,33.0,37.0,62.0,53.0,42.0,62.0,2393.0,square2,j,0.0819,1,V,1.0
V1,34.0,35.0,58.0,54.0,43.0,58.0,2451.0,square2,j,0.1047,1,V,1.0
V1,35.0,40.0,60.0,50.0,44.0,60.0,2511.0,square2,j,0.1497,1,V,1.0
V1,36.0,39.0,66.0,50.0,39.0,66.0,2577.0,square2,j,0.0156,1,V,1.0
V1,37.0,32.0,59.0,54.0,38.0,54.0,2631.0,square3,i,0.0511,2,V,1.0
V1,38.0,32.0,64.0,50.0,39.0,64.0,2695.0,square2,j,0.1464,1,V,1.0
V1,39.0,37.0,60.0,45.0,40.0,60.0,2755.0,square2,j,0.0681,1,V,1.0
V1,40.0,35.0,61.0,54.0,43.0,61.0,2816.0,square2,j,0.0084,1,V,1.0
V1,41.0,33.0,62.0,49.0,42.0,62.0,2878.0,square2,j,0.1268,1,V,1.0
V1,42.0,31.0,70.0,52.0,42.0,70.0,2948.0,square2,j,0.1589,1,V,1.0
V1,43.0,37.0,59.0,48.0,41.0,59.0,3007.0,square2,j,0.1249,1,V,1.0
V1,44.0,39.0,63.0,53.0,44.0,63.0,3070.0,square2,j,0.0721,1,V,1.0
V1,45.0,37.0,62.0,48.0,41.0,62.0,3132.0,square2,j,0.1651,1,V,1.0
V1,46.0,34.0,65.0,52.0,39.0,65.0,3197.0,square2,j,0.0553,1,V,1.0
V1,47.0,42.0,59.0,52.0,43.0,59.0,3256.0,square2,j,0.0012,1,V,1.0
V1,48.0,39.0,62.0,50.0,38.0,62.0,3318.0,square2,j,0.1327,1,V,1.0
V1,49.0,33.0,63.0,49.0,40.0,63.0,3381.0,square2,j,0.0706,1,V,1.0
V1,50.0,38.0,66.0,54.0,37.0,66.0,3447.0,square2,j,0.1451,1,V,1.0
V1,51.0,33.0,66.0,50.0,37.0,66.0,3513.0,square2,j,0.1598,1,V,1.0
V1,52.0,41.0,65.0,55.0,44.0,41.0,3554.0,square1,f,0.0989,0,V,1.0
V1,53.0,75.0,50.0,46.0,60.0,46.0,3600.0,square3,i,0.038,2,V,1.0
V1,54.0,74.0,53.0,45.0,61.0,61.0,3661.0,square4,r,0.0281,3,V,1.0
V1,55.0,74.0,54.0,43.0,65.0,54.0,3715.0,square2,j,0.0529,1,V,1.0
V1,56.0,73.0,54.0,44.0,56.0,56.0,3771.0,square4,r,0.278,3,V,1.0
V1,57.0,67.0,58.0,52.0,63.0,58.0,3829.0,square2,j,0.0486,1,V,1.0
V1,58.0,72.0,51.0,43.0,62.0,62.0,3891.0,square4,r,0.0004,3,V,1.0
V1,59.0,68.0,47.0,49.0,56.0,56.0,3947.0,square4,r,0.1043,3,V,1.0
V1,60.0,72.0,55.0,46.0,65.0,55.0,4002.0,square2,j,0.0005,1,V,1.0
V1,61.0,76.0,50.0,46.0,62.0,76.0,4078.0,square1,f,0.0697,0,V,1.0
V1,62.0,77.0,58.0,46.0,66.0,77.0,4155.0,square1,f,0.059,0,V,1.0
V1,63.0,72.0,53.0,48.0,66.0,72.0,4227.0,square1,f,0.0618,0,V,1.0
V1,64.0,70.0,49.0,49.0,60.0,70.0,4297.0,square1,f,0.1317,0,V,1.0
V1,65.0,68.0,49.0,46.0,66.0,68.0,4365.0,square1,f,0.1073,0,V,1.0
V1,66.0,77.0,52.0,41.0,64.0,41.0,4406.0,square3,i,0.0299,2,V,1.0
V1,67.0,74.0,56.0,42.0,69.0,56.0,4462.0,square2,j,0.1051,1,V,1.0
V1,68.0,77.0,50.0,46.0,68.0,68.0,4530.0,square4,r,0.065,3,V,1.0
V1,69.0,76.0,48.0,45.0,63.0,63.0,4593.0,square4,r,0.0923,3,V,1.0
V1,70.0,71.0,53.0,50.0,65.0,71.0,4664.0,square1,f,0.1531,0,V,1.0
V1,71.0,70.0,56.0,44.0,59.0,70.0,4734.0,square1,f,0.131,0,V,1.0
V1,72.0,74.0,54.0,55.0,61.0,74.0,4808.0,square1,f,0.1003,0,V,1.0
V1,73.0,73.0,53.0,47.0,61.0,73.0,4881.0,square1,f,0.1441,0,V,1.0
V1,74.0,71.0,53.0,51.0,65.0,71.0,4952.0,square1,f,0.0304,0,V,1.0
V1,75.0,72.0,51.0,48.0,64.0,72.0,5024.0,square1,f,0.0255,0,V,1.0
V1,76.0,72.0,53.0,49.0,62.0,72.0,5096.0,square1,f,0.0671,0,V,1.0
V1,77.0,62.0,76.0,64.0,86.0,62.0,5158.0,square1,f,0.0339,0,V,1.0
V1,78.0,61.0,74.0,63.0,87.0,74.0,5232.0,square2,j,0.0137,1,V,1.0
V1,79.0,56.0,78.0,67.0,89.0,78.0,5310.0,square2,j,0.0292,1,V,1.0
V1,80.0,59.0,75.0,63.0,84.0,75.0,5385.0,square2,j,0.1189,1,V,1.0
V1,81.0,63.0,74.0,68.0,82.0,74.0,5459.0,square2,j,0.0725,1,V,1.0
V1,82.0,59.0,75.0,67.0,80.0,75.0,5534.0,square2,j,0.0955,1,V,1.0
V1,83.0,58.0,77.0,63.0,82.0,77.0,5611.0,square2,j,0.0149,1,V,1.0
V1,84.0,57.0,76.0,64.0,87.0,76.0,5687.0,square2,j,0.2006,1,V,1.0
V1,85.0,61.0,73.0,66.0,83.0,73.0,5760.0,square2,j,0.193,1,V,1.0
V1,86.0,60.0,71.0,66.0,85.0,71.0,5831.0,square2,j,0.1477,1,V,1.0
V1,87.0,61.0,80.0,73.0,84.0,80.0,5911.0,square2,j,0.1537,1,V,1.0
V1,88.0,67.0,77.0,67.0,85.0,77.0,5988.0,square2,j,0.1885,1,V,1.0
V1,89.0,60.0,79.0,63.0,86.0,79.0,6067.0,square2,j,0.1715,1,V,1.0
V1,90.0,60.0,74.0,66.0,88.0,74.0,6141.0,square2,j,0.1473,1,V,1.0
V1,91.0,57.0,81.0,61.0,79.0,81.0,6222.0,square2,j,0.1725,1,V,1.0
V1,92.0,61.0,78.0,61.0,84.0,78.0,6300.0,square2,j,0.1896,1,V,1.0
V1,93.0,64.0,72.0,69.0,83.0,72.0,6372.0,square2,j,0.1775,1,V,1.0
V1,94.0,64.0,73.0,68.0,83.0,73.0,6445.0,square2,j,0.0149,1,V,1.0
V1,95.0,61.0,69.0,68.0,87.0,69.0,6514.0,square2,j,0.2178,1,V,1.0
V1,96.0,55.0,77.0,65.0,88.0,77.0,6591.0,square2,j,0.0172,1,V,1.0
V1,97.0,61.0,75.0,63.0,82.0,75.0,6666.0,square2,j,0.1045,1,V,1.0
V1,98.0,59.0,71.0,66.0,82.0,71.0,6737.0,square2,j,0.017,1,V,1.0
V1,99.0,61.0,69.0,67.0,84.0,69.0,6806.0,square2,j,0.0959,1,V,1.0
