block,Trial,square1,square2,square3,square4,currPoints,totalPoints,square,choiceKey.keys,choiceKey.rt,armNum,blockType,blockNum
prac,0.0,100.0,0.0,0.0,0.0,100,100.0,square1,,,0,p,0.0
prac,1.0,100.0,0.0,0.0,0.0,100,200.0,square1,,,0,p,0.0
prac,2.0,100.0,0.0,0.0,0.0,100,300.0,square1,,,0,p,0.0
prac,3.0,100.0,0.0,0.0,0.0,0,300.0,square3,,,2,p,0.0
prac,4.0,100.0,0.0,0.0,0.0,100,400.0,square1,,,0,p,0.0
prac,5.0,100.0,0.0,0.0,0.0,0,400.0,square4,,,3,p,0.0
prac,6.0,100.0,0.0,0.0,0.0,100,500.0,square1,,,0,p,0.0
prac,7.0,100.0,0.0,0.0,0.0,0,500.0,square2,,,1,p,0.0
prac,8.0,100.0,0.0,0.0,0.0,100,600.0,square1,,,0,p,0.0
prac,9.0,100.0,0.0,0.0,0.0,100,700.0,square1,,,0,p,0.0
V3,0.0,62.0,45.0,70.0,53.0,62,62.0,square1,r,0.7294,0,V,3.0
V3,1.0,63.0,47.0,76.0,60.0,60,122.0,square4,j,0.9805,3,V,3.0
V3,2.0,65.0,54.0,73.0,57.0,54,176.0,square2,f,0.281,1,V,3.0
V3,3.0,68.0,51.0,71.0,51.0,51,227.0,square4,j,0.2166,3,V,3.0
V3,4.0,61.0,49.0,75.0,53.0,75,302.0,square3,i,0.0662,2,V,3.0
V3,5.0,65.0,47.0,74.0,50.0,47,349.0,square2,f,0.2086,1,V,3.0
V3,6.0,61.0,51.0,72.0,57.0,61,410.0,square1,r,0.8338,0,V,3.0
V3,7.0,67.0,49.0,75.0,55.0,55,465.0,square4,j,0.3075,3,V,3.0
V3,8.0,64.0,48.0,76.0,56.0,76,541.0,square3,i,0.2126,2,V,3.0
V3,9.0,67.0,49.0,71.0,56.0,71,612.0,square3,i,0.3581,2,V,3.0
V3,10.0,65.0,50.0,71.0,56.0,71,683.0,square3,i,0.2096,2,V,3.0
V3,11.0,63.0,43.0,78.0,58.0,78,761.0,square3,i,0.2443,2,V,3.0
V3,12.0,66.0,53.0,73.0,54.0,73,834.0,square3,i,0.1556,2,V,3.0
V3,13.0,64.0,46.0,78.0,51.0,78,912.0,square3,i,0.0297,2,V,3.0
V3,14.0,67.0,51.0,71.0,58.0,71,983.0,square3,i,0.078,2,V,3.0
V3,15.0,61.0,50.0,73.0,54.0,73,1056.0,square3,i,0.0428,2,V,3.0
V3,16.0,64.0,52.0,74.0,54.0,74,1130.0,square3,i,0.0717,2,V,3.0
V3,17.0,61.0,48.0,74.0,55.0,74,1204.0,square3,i,0.0655,2,V,3.0
V3,18.0,65.0,50.0,70.0,59.0,70,1274.0,square3,i,0.0634,2,V,3.0
V3,19.0,64.0,52.0,76.0,56.0,76,1350.0,square3,i,0.0485,2,V,3.0
V3,20.0,64.0,50.0,69.0,58.0,69,1419.0,square3,i,0.038,2,V,3.0
V3,21.0,66.0,50.0,72.0,56.0,72,1491.0,square3,i,0.0576,2,V,3.0
V3,22.0,43.0,48.0,40.0,62.0,40,1531.0,square3,i,0.0248,2,V,3.0
V3,23.0,41.0,51.0,35.0,59.0,51,1582.0,square2,f,0.173,1,V,3.0
V3,24.0,51.0,51.0,37.0,60.0,51,1633.0,square1,r,0.097,0,V,3.0
V3,25.0,45.0,53.0,36.0,57.0,57,1690.0,square4,j,0.0766,3,V,3.0
V3,26.0,44.0,51.0,38.0,59.0,38,1728.0,square3,i,0.4392,2,V,3.0
V3,27.0,43.0,51.0,34.0,66.0,51,1779.0,square2,f,0.1874,1,V,3.0
V3,28.0,47.0,51.0,40.0,67.0,51,1830.0,square2,f,0.1964,1,V,3.0
V3,29.0,42.0,55.0,35.0,65.0,55,1885.0,square2,f,0.1803,1,V,3.0
V3,30.0,49.0,54.0,36.0,62.0,49,1934.0,square1,r,0.0999,0,V,3.0
V3,31.0,50.0,53.0,42.0,66.0,53,1987.0,square2,f,0.1806,1,V,3.0
V3,32.0,47.0,53.0,34.0,58.0,58,2045.0,square4,j,0.1248,3,V,3.0
V3,33.0,45.0,56.0,34.0,62.0,62,2107.0,square4,j,0.1715,3,V,3.0
V3,34.0,48.0,54.0,38.0,64.0,64,2171.0,square4,j,0.1162,3,V,3.0
V3,35.0,39.0,55.0,42.0,65.0,65,2236.0,square4,j,0.0676,3,V,3.0
V3,36.0,46.0,57.0,41.0,63.0,63,2299.0,square4,j,0.1172,3,V,3.0
V3,37.0,43.0,54.0,41.0,65.0,65,2364.0,square4,j,0.0837,3,V,3.0
V3,38.0,47.0,52.0,37.0,63.0,63,2427.0,square4,j,0.0123,3,V,3.0
V3,39.0,47.0,53.0,38.0,55.0,55,2482.0,square4,j,0.0459,3,V,3.0
V3,40.0,41.0,54.0,39.0,64.0,64,2546.0,square4,j,0.4498,3,V,3.0
V3,41.0,48.0,52.0,38.0,64.0,64,2610.0,square4,j,0.0756,3,V,3.0
V3,42.0,45.0,50.0,34.0,63.0,63,2673.0,square4,j,0.1126,3,V,3.0
V3,43.0,44.0,50.0,34.0,62.0,62,2735.0,square4,j,0.3875,3,V,3.0
V3,44.0,47.0,55.0,39.0,65.0,65,2800.0,square4,j,0.2123,3,V,3.0
V3,45.0,45.0,55.0,31.0,63.0,63,2863.0,square4,j,0.2049,3,V,3.0
V3,46.0,42.0,52.0,38.0,64.0,64,2927.0,square4,j,0.0674,3,V,3.0
V3,47.0,44.0,53.0,37.0,55.0,55,2982.0,square4,j,0.1846,3,V,3.0
V3,48.0,44.0,49.0,37.0,58.0,49,3031.0,square2,f,0.1292,1,V,3.0
V3,49.0,48.0,58.0,35.0,54.0,54,3085.0,square4,j,0.0796,3,V,3.0
V3,50.0,42.0,28.0,30.0,52.0,52,3137.0,square4,j,0.1519,3,V,3.0
V3,51.0,46.0,29.0,32.0,51.0,51,3188.0,square4,j,0.0753,3,V,3.0
V3,52.0,37.0,20.0,36.0,50.0,50,3238.0,square4,j,0.1249,3,V,3.0
V3,53.0,44.0,22.0,34.0,55.0,44,3282.0,square1,r,0.1416,0,V,3.0
V3,54.0,37.0,27.0,26.0,50.0,26,3308.0,square3,i,0.3005,2,V,3.0
V3,55.0,41.0,21.0,39.0,53.0,21,3329.0,square2,f,0.0625,1,V,3.0
V3,56.0,40.0,20.0,38.0,51.0,51,3380.0,square4,j,0.3359,3,V,3.0
V3,57.0,44.0,28.0,31.0,57.0,57,3437.0,square4,j,0.0003,3,V,3.0
V3,58.0,46.0,20.0,28.0,49.0,49,3486.0,square4,j,0.0418,3,V,3.0
V3,59.0,44.0,24.0,30.0,55.0,55,3541.0,square4,j,0.0171,3,V,3.0
V3,60.0,42.0,29.0,29.0,51.0,51,3592.0,square4,j,0.5138,3,V,3.0
V3,61.0,41.0,21.0,30.0,46.0,46,3638.0,square4,j,0.1124,3,V,3.0
V3,62.0,41.0,27.0,31.0,49.0,49,3687.0,square4,j,0.0812,3,V,3.0
V3,63.0,42.0,27.0,34.0,51.0,51,3738.0,square4,j,0.0003,3,V,3.0
V3,64.0,41.0,24.0,30.0,47.0,41,3779.0,square1,r,0.1223,0,V,3.0
V3,65.0,36.0,18.0,34.0,48.0,48,3827.0,square4,j,0.3119,3,V,3.0
V3,66.0,39.0,28.0,35.0,45.0,45,3872.0,square4,j,0.0836,3,V,3.0
V3,67.0,42.0,21.0,32.0,46.0,46,3918.0,square4,j,0.1925,3,V,3.0
V3,68.0,40.0,24.0,35.0,53.0,53,3971.0,square4,j,0.2207,3,V,3.0
V3,69.0,48.0,23.0,34.0,50.0,50,4021.0,square4,j,0.0505,3,V,3.0
V3,70.0,40.0,27.0,31.0,49.0,49,4070.0,square4,j,0.0375,3,V,3.0
V3,71.0,41.0,23.0,28.0,51.0,51,4121.0,square4,j,0.1537,3,V,3.0
V3,72.0,42.0,25.0,33.0,55.0,55,4176.0,square4,j,0.1959,3,V,3.0
V3,73.0,41.0,24.0,35.0,55.0,55,4231.0,square4,j,0.1278,3,V,3.0
V3,74.0,38.0,26.0,28.0,53.0,53,4284.0,square4,j,0.0794,3,V,3.0
V3,75.0,54.0,39.0,69.0,50.0,50,4334.0,square4,j,0.1419,3,V,3.0
V3,76.0,55.0,42.0,64.0,53.0,53,4387.0,square4,j,0.0283,3,V,3.0
V3,77.0,59.0,37.0,66.0,44.0,44,4431.0,square4,j,0.1333,3,V,3.0
V3,78.0,58.0,38.0,60.0,46.0,38,4469.0,square2,f,0.2728,1,V,3.0
V3,79.0,54.0,35.0,66.0,49.0,54,4523.0,square1,r,0.2568,0,V,3.0
V3,80.0,60.0,36.0,68.0,44.0,60,4583.0,square1,r,0.1953,0,V,3.0
V3,81.0,55.0,38.0,66.0,51.0,55,4638.0,square1,r,0.1456,0,V,3.0
V3,82.0,57.0,47.0,64.0,50.0,57,4695.0,square1,r,0.0871,0,V,3.0
V3,83.0,57.0,37.0,63.0,45.0,57,4752.0,square1,r,0.0569,0,V,3.0
V3,84.0,54.0,40.0,65.0,53.0,54,4806.0,square1,r,0.0916,0,V,3.0
V3,85.0,58.0,41.0,63.0,48.0,58,4864.0,square1,r,0.2984,0,V,3.0
V3,86.0,53.0,38.0,57.0,49.0,53,4917.0,square1,r,0.1383,0,V,3.0
V3,87.0,49.0,42.0,60.0,43.0,49,4966.0,square1,r,0.1499,0,V,3.0
V3,88.0,56.0,35.0,70.0,46.0,56,5022.0,square1,r,0.1002,0,V,3.0
V3,89.0,58.0,39.0,63.0,52.0,58,5080.0,square1,r,0.1267,0,V,3.0
V3,90.0,59.0,43.0,63.0,45.0,59,5139.0,square1,r,0.0983,0,V,3.0
V3,91.0,54.0,37.0,69.0,49.0,54,5193.0,square1,r,0.0487,0,V,3.0
V3,92.0,56.0,41.0,61.0,47.0,56,5249.0,square1,r,0.0586,0,V,3.0
V3,93.0,58.0,35.0,68.0,47.0,58,5307.0,square1,r,0.128,0,V,3.0
V3,94.0,61.0,37.0,67.0,51.0,61,5368.0,square1,r,0.0811,0,V,3.0
V3,95.0,57.0,32.0,64.0,47.0,57,5425.0,square1,r,0.1002,0,V,3.0
V3,96.0,53.0,38.0,63.0,48.0,53,5478.0,square1,r,0.0003,0,V,3.0
V3,97.0,57.0,44.0,71.0,50.0,57,5535.0,square1,r,0.1315,0,V,3.0
V3,98.0,56.0,39.0,70.0,47.0,56,5591.0,square1,r,0.0701,0,V,3.0
V3,99.0,62.0,40.0,67.0,49.0,62,5653.0,square1,r,1.2822,0,V,3.0
V10,0.0,28.0,21.0,37.0,46.0,21,21.0,square2,i,0.3231,1,V,10.0
V10,1.0,26.0,19.0,41.0,49.0,41,62.0,square3,j,0.3386,2,V,10.0
V10,2.0,29.0,20.0,43.0,48.0,29,91.0,square1,f,0.2128,0,V,10.0
V10,3.0,27.0,27.0,37.0,44.0,44,135.0,square4,r,0.194,3,V,10.0
V10,4.0,28.0,16.0,36.0,47.0,47,182.0,square4,r,0.1843,3,V,10.0
V10,5.0,33.0,25.0,42.0,54.0,42,224.0,square3,j,0.1075,2,V,10.0
V10,6.0,28.0,19.0,35.0,45.0,45,269.0,square4,r,0.2271,3,V,10.0
V10,7.0,30.0,24.0,35.0,49.0,35,304.0,square3,j,0.0004,2,V,10.0
V10,8.0,37.0,29.0,41.0,47.0,47,351.0,square4,r,0.1558,3,V,10.0
V10,9.0,28.0,21.0,41.0,48.0,48,399.0,square4,r,0.1622,3,V,10.0
V10,10.0,27.0,22.0,39.0,42.0,42,441.0,square4,r,0.0178,3,V,10.0
V10,11.0,32.0,16.0,41.0,48.0,48,489.0,square4,r,0.3078,3,V,10.0
V10,12.0,34.0,15.0,33.0,49.0,49,538.0,square4,r,0.1337,3,V,10.0
V10,13.0,36.0,19.0,41.0,45.0,45,583.0,square4,r,0.1225,3,V,10.0
V10,14.0,28.0,23.0,35.0,53.0,53,636.0,square4,r,0.0627,3,V,10.0
V10,15.0,26.0,28.0,40.0,50.0,50,686.0,square4,r,0.0606,3,V,10.0
V10,16.0,30.0,25.0,42.0,47.0,47,733.0,square4,r,0.1229,3,V,10.0
V10,17.0,31.0,19.0,38.0,50.0,50,783.0,square4,r,0.6321,3,V,10.0
V10,18.0,34.0,21.0,35.0,48.0,48,831.0,square4,r,0.205,3,V,10.0
V10,19.0,31.0,24.0,39.0,46.0,46,877.0,square4,r,0.0938,3,V,10.0
V10,20.0,28.0,22.0,42.0,47.0,47,924.0,square4,r,0.156,3,V,10.0
V10,21.0,24.0,20.0,41.0,47.0,47,971.0,square4,r,0.0636,3,V,10.0
V10,22.0,32.0,22.0,34.0,44.0,22,993.0,square2,i,0.0495,1,V,10.0
V10,23.0,29.0,23.0,37.0,47.0,37,1030.0,square3,j,0.255,2,V,10.0
V10,24.0,25.0,25.0,38.0,46.0,25,1055.0,square1,f,0.0964,0,V,10.0
V10,25.0,30.0,24.0,41.0,45.0,45,1100.0,square4,r,0.059,3,V,10.0
V10,26.0,32.0,17.0,38.0,49.0,49,1149.0,square4,r,0.1279,3,V,10.0
V10,27.0,34.0,21.0,38.0,47.0,47,1196.0,square4,r,0.104,3,V,10.0
V10,28.0,29.0,21.0,37.0,45.0,45,1241.0,square4,r,0.463,3,V,10.0
V10,29.0,30.0,20.0,31.0,47.0,47,1288.0,square4,r,0.1099,3,V,10.0
V10,30.0,28.0,21.0,35.0,44.0,44,1332.0,square4,r,0.1208,3,V,10.0
V10,31.0,36.0,25.0,14.0,8.0,8,1340.0,square4,r,0.1696,3,V,10.0
V10,32.0,38.0,27.0,19.0,11.0,27,1367.0,square2,i,0.1832,1,V,10.0
V10,33.0,39.0,21.0,20.0,13.0,20,1387.0,square3,j,0.2413,2,V,10.0
V10,34.0,34.0,24.0,20.0,10.0,34,1421.0,square1,f,0.15,0,V,10.0
V10,35.0,44.0,29.0,17.0,11.0,44,1465.0,square1,f,0.125,0,V,10.0
V10,36.0,33.0,30.0,17.0,9.0,33,1498.0,square1,f,0.0209,0,V,10.0
V10,37.0,31.0,27.0,12.0,6.0,31,1529.0,square1,f,0.204,0,V,10.0
V10,38.0,34.0,29.0,15.0,10.0,34,1563.0,square1,f,0.1066,0,V,10.0
V10,39.0,35.0,21.0,19.0,5.0,35,1598.0,square1,f,0.165,0,V,10.0
V10,40.0,32.0,26.0,18.0,6.0,32,1630.0,square1,f,0.1514,0,V,10.0
V10,41.0,34.0,32.0,13.0,9.0,32,1662.0,square2,i,0.1957,1,V,10.0
V10,42.0,35.0,30.0,16.0,8.0,16,1678.0,square3,j,0.1845,2,V,10.0
V10,43.0,38.0,32.0,16.0,8.0,32,1710.0,square2,i,0.0857,1,V,10.0
V10,44.0,34.0,20.0,18.0,3.0,34,1744.0,square1,f,0.1962,0,V,10.0
V10,45.0,38.0,22.0,23.0,9.0,22,1766.0,square2,i,0.0544,1,V,10.0
V10,46.0,36.0,28.0,16.0,10.0,36,1802.0,square1,f,0.1565,0,V,10.0
V10,47.0,36.0,27.0,13.0,8.0,36,1838.0,square1,f,0.1175,0,V,10.0
V10,48.0,35.0,27.0,14.0,12.0,35,1873.0,square1,f,0.1216,0,V,10.0
V10,49.0,33.0,28.0,16.0,10.0,33,1906.0,square1,f,0.0848,0,V,10.0
V10,50.0,31.0,29.0,19.0,8.0,31,1937.0,square1,f,0.0586,0,V,10.0
V10,51.0,32.0,21.0,20.0,12.0,32,1969.0,square1,f,0.049,0,V,10.0
V10,52.0,29.0,25.0,21.0,10.0,29,1998.0,square1,f,0.0799,0,V,10.0
V10,53.0,39.0,29.0,23.0,2.0,39,2037.0,square1,f,0.0664,0,V,10.0
V10,54.0,33.0,28.0,19.0,7.0,33,2070.0,square1,f,0.1303,0,V,10.0
V10,55.0,34.0,24.0,15.0,8.0,34,2104.0,square1,f,0.0775,0,V,10.0
V10,56.0,35.0,20.0,21.0,9.0,35,2139.0,square1,f,0.0957,0,V,10.0
V10,57.0,33.0,27.0,19.0,7.0,33,2172.0,square1,f,0.137,0,V,10.0
V10,58.0,38.0,24.0,16.0,7.0,38,2210.0,square1,f,0.0476,0,V,10.0
V10,59.0,34.0,29.0,15.0,5.0,34,2244.0,square1,f,0.1499,0,V,10.0
V10,60.0,34.0,22.0,19.0,9.0,34,2278.0,square1,f,0.0462,0,V,10.0
V10,61.0,39.0,31.0,20.0,10.0,39,2317.0,square1,f,0.0716,0,V,10.0
V10,62.0,35.0,24.0,18.0,6.0,6,2323.0,square4,r,0.1376,3,V,10.0
V10,63.0,35.0,26.0,18.0,9.0,35,2358.0,square1,f,0.0081,0,V,10.0
V10,64.0,31.0,55.0,23.0,23.0,23,2381.0,square3,j,0.0667,2,V,10.0
V10,65.0,35.0,50.0,22.0,27.0,50,2431.0,square2,i,0.047,1,V,10.0
V10,66.0,35.0,53.0,25.0,29.0,53,2484.0,square2,i,0.1304,1,V,10.0
V10,67.0,38.0,44.0,17.0,29.0,44,2528.0,square2,i,0.0499,1,V,10.0
V10,68.0,36.0,48.0,22.0,27.0,48,2576.0,square2,i,0.134,1,V,10.0
V10,69.0,41.0,53.0,17.0,28.0,53,2629.0,square2,i,0.3821,1,V,10.0
V10,70.0,40.0,48.0,23.0,28.0,48,2677.0,square2,i,0.051,1,V,10.0
V10,71.0,39.0,43.0,24.0,20.0,43,2720.0,square2,i,0.0796,1,V,10.0
V10,72.0,36.0,49.0,19.0,25.0,49,2769.0,square2,i,0.0867,1,V,10.0
V10,73.0,39.0,49.0,23.0,32.0,49,2818.0,square2,i,0.0385,1,V,10.0
V10,74.0,36.0,44.0,17.0,29.0,44,2862.0,square2,i,0.1002,1,V,10.0
V10,75.0,37.0,46.0,20.0,30.0,46,2908.0,square2,i,0.0765,1,V,10.0
V10,76.0,38.0,47.0,23.0,30.0,47,2955.0,square2,i,0.3707,1,V,10.0
V10,77.0,36.0,49.0,22.0,32.0,49,3004.0,square2,i,0.1593,1,V,10.0
V10,78.0,41.0,44.0,19.0,27.0,44,3048.0,square2,i,0.2503,1,V,10.0
V10,79.0,41.0,48.0,22.0,27.0,48,3096.0,square2,i,0.0916,1,V,10.0
V10,80.0,34.0,44.0,26.0,29.0,44,3140.0,square2,i,0.009,1,V,10.0
V10,81.0,38.0,47.0,18.0,29.0,47,3187.0,square2,i,0.0207,1,V,10.0
V10,82.0,43.0,43.0,23.0,28.0,43,3230.0,square2,i,0.0828,1,V,10.0
V10,83.0,34.0,51.0,23.0,26.0,51,3281.0,square2,i,0.2693,1,V,10.0
V10,84.0,36.0,46.0,18.0,25.0,46,3327.0,square2,i,0.0164,1,V,10.0
V10,85.0,39.0,46.0,25.0,26.0,46,3373.0,square2,i,0.0935,1,V,10.0
V10,86.0,39.0,50.0,27.0,27.0,27,3400.0,square3,j,0.0811,2,V,10.0
V10,87.0,38.0,46.0,20.0,30.0,38,3438.0,square1,f,0.2166,0,V,10.0
V10,88.0,37.0,49.0,22.0,28.0,28,3466.0,square4,r,0.1236,3,V,10.0
V10,89.0,34.0,51.0,25.0,26.0,51,3517.0,square2,i,0.027,1,V,10.0
V10,90.0,41.0,49.0,22.0,29.0,49,3566.0,square2,i,0.1707,1,V,10.0
V10,91.0,37.0,45.0,26.0,32.0,45,3611.0,square2,i,0.0708,1,V,10.0
V10,92.0,42.0,42.0,27.0,28.0,42,3653.0,square2,i,0.0878,1,V,10.0
V10,93.0,41.0,48.0,19.0,36.0,48,3701.0,square2,i,0.0886,1,V,10.0
V10,94.0,43.0,49.0,23.0,31.0,49,3750.0,square2,i,0.0467,1,V,10.0
V10,95.0,39.0,46.0,18.0,27.0,46,3796.0,square2,i,0.3168,1,V,10.0
V10,96.0,37.0,48.0,24.0,27.0,48,3844.0,square2,i,0.1376,1,V,10.0
V10,97.0,42.0,50.0,23.0,31.0,50,3894.0,square2,i,0.1332,1,V,10.0
V10,98.0,33.0,47.0,25.0,32.0,47,3941.0,square2,i,0.089,1,V,10.0
V10,99.0,39.0,48.0,23.0,32.0,48,3989.0,square2,i,0.0812,1,V,10.0
V4,0.0,63.0,38.0,47.0,55.0,47,47.0,square3,f,1.0623,2,V,4.0
V4,1.0,66.0,42.0,43.0,59.0,42,89.0,square2,j,0.6347,1,V,4.0
V4,2.0,66.0,39.0,57.0,59.0,59,148.0,square4,i,0.3609,3,V,4.0
V4,3.0,66.0,37.0,51.0,59.0,66,214.0,square1,r,0.1842,0,V,4.0
V4,4.0,69.0,37.0,50.0,55.0,69,283.0,square1,r,0.3235,0,V,4.0
V4,5.0,64.0,44.0,46.0,62.0,62,345.0,square4,i,0.042,3,V,4.0
V4,6.0,75.0,43.0,49.0,57.0,43,388.0,square2,j,0.1295,1,V,4.0
V4,7.0,62.0,41.0,52.0,59.0,52,440.0,square3,f,0.0017,2,V,4.0
V4,8.0,65.0,41.0,44.0,60.0,65,505.0,square1,r,0.4621,0,V,4.0
V4,9.0,68.0,35.0,44.0,64.0,64,569.0,square4,i,0.3522,3,V,4.0
V4,10.0,67.0,44.0,48.0,61.0,67,636.0,square1,r,0.2983,0,V,4.0
V4,11.0,61.0,40.0,48.0,56.0,56,692.0,square4,i,0.1544,3,V,4.0
V4,12.0,68.0,41.0,49.0,55.0,68,760.0,square1,r,0.1882,0,V,4.0
V4,13.0,63.0,42.0,47.0,60.0,47,807.0,square3,f,0.1489,2,V,4.0
V4,14.0,63.0,40.0,51.0,55.0,63,870.0,square1,r,0.0968,0,V,4.0
V4,15.0,62.0,41.0,52.0,62.0,62,932.0,square1,r,0.1078,0,V,4.0
V4,16.0,69.0,37.0,47.0,60.0,69,1001.0,square1,r,0.0823,0,V,4.0
V4,17.0,66.0,40.0,48.0,56.0,66,1067.0,square1,r,0.0177,0,V,4.0
V4,18.0,67.0,43.0,47.0,59.0,67,1134.0,square1,r,0.2303,0,V,4.0
V4,19.0,64.0,42.0,51.0,59.0,64,1198.0,square1,r,0.0042,0,V,4.0
V4,20.0,67.0,40.0,47.0,58.0,67,1265.0,square1,r,0.0495,0,V,4.0
V4,21.0,60.0,41.0,50.0,59.0,60,1325.0,square1,r,0.0503,0,V,4.0
V4,22.0,66.0,43.0,54.0,55.0,66,1391.0,square1,r,0.0096,0,V,4.0
V4,23.0,67.0,37.0,50.0,62.0,67,1458.0,square1,r,0.1218,0,V,4.0
V4,24.0,67.0,37.0,49.0,60.0,67,1525.0,square1,r,0.0089,0,V,4.0
V4,25.0,67.0,39.0,55.0,52.0,67,1592.0,square1,r,0.13,0,V,4.0
V4,26.0,64.0,39.0,51.0,63.0,64,1656.0,square1,r,0.0259,0,V,4.0
V4,27.0,68.0,36.0,55.0,60.0,68,1724.0,square1,r,0.0789,0,V,4.0
V4,28.0,67.0,40.0,46.0,54.0,67,1791.0,square1,r,0.0491,0,V,4.0
V4,29.0,67.0,41.0,50.0,57.0,67,1858.0,square1,r,0.1463,0,V,4.0
V4,30.0,66.0,39.0,49.0,53.0,53,1911.0,square4,i,0.0793,3,V,4.0
V4,31.0,70.0,38.0,48.0,58.0,38,1949.0,square2,j,0.067,1,V,4.0
V4,32.0,63.0,40.0,53.0,61.0,53,2002.0,square3,f,0.0207,2,V,4.0
V4,33.0,66.0,41.0,51.0,56.0,66,2068.0,square1,r,0.0929,0,V,4.0
V4,34.0,64.0,39.0,46.0,57.0,64,2132.0,square1,r,0.1618,0,V,4.0
V4,35.0,69.0,36.0,50.0,58.0,69,2201.0,square1,r,0.0791,0,V,4.0
V4,36.0,60.0,43.0,53.0,54.0,60,2261.0,square1,r,0.0353,0,V,4.0
V4,37.0,52.0,78.0,68.0,66.0,52,2313.0,square1,r,0.0794,0,V,4.0
V4,38.0,44.0,81.0,68.0,62.0,44,2357.0,square1,r,0.1413,0,V,4.0
V4,39.0,59.0,71.0,70.0,63.0,63,2420.0,square4,i,0.1942,3,V,4.0
V4,40.0,53.0,77.0,73.0,59.0,73,2493.0,square3,f,0.0803,2,V,4.0
V4,41.0,53.0,76.0,74.0,66.0,74,2567.0,square3,f,0.1313,2,V,4.0
V4,42.0,51.0,79.0,73.0,59.0,79,2646.0,square2,j,0.0894,1,V,4.0
V4,43.0,48.0,76.0,68.0,65.0,68,2714.0,square3,f,0.1711,2,V,4.0
V4,44.0,57.0,83.0,78.0,63.0,83,2797.0,square2,j,0.2993,1,V,4.0
V4,45.0,54.0,74.0,69.0,61.0,74,2871.0,square2,j,0.0163,1,V,4.0
V4,46.0,53.0,85.0,66.0,62.0,85,2956.0,square2,j,0.0677,1,V,4.0
V4,47.0,56.0,83.0,68.0,57.0,83,3039.0,square2,j,0.1122,1,V,4.0
V4,48.0,49.0,74.0,73.0,59.0,74,3113.0,square2,j,0.0167,1,V,4.0
V4,49.0,54.0,74.0,70.0,60.0,74,3187.0,square2,j,0.0962,1,V,4.0
V4,50.0,47.0,83.0,69.0,60.0,83,3270.0,square2,j,0.006,1,V,4.0
V4,51.0,54.0,78.0,73.0,56.0,78,3348.0,square2,j,0.5123,1,V,4.0
V4,52.0,52.0,76.0,71.0,58.0,76,3424.0,square2,j,0.1041,1,V,4.0
V4,53.0,51.0,82.0,76.0,63.0,82,3506.0,square2,j,0.1332,1,V,4.0
V4,54.0,57.0,76.0,69.0,64.0,76,3582.0,square2,j,0.2537,1,V,4.0
V4,55.0,49.0,75.0,68.0,59.0,75,3657.0,square2,j,0.0742,1,V,4.0
V4,56.0,55.0,81.0,66.0,65.0,81,3738.0,square2,j,0.0456,1,V,4.0
V4,57.0,58.0,80.0,72.0,63.0,80,3818.0,square2,j,0.0726,1,V,4.0
V4,58.0,49.0,81.0,66.0,62.0,81,3899.0,square2,j,0.1139,1,V,4.0
V4,59.0,57.0,78.0,73.0,59.0,78,3977.0,square2,j,0.0334,1,V,4.0
V4,60.0,48.0,79.0,66.0,59.0,79,4056.0,square2,j,0.1083,1,V,4.0
V4,61.0,53.0,80.0,72.0,60.0,80,4136.0,square2,j,0.0154,1,V,4.0
V4,62.0,53.0,79.0,70.0,61.0,79,4215.0,square2,j,0.1171,1,V,4.0
V4,63.0,81.0,66.0,90.0,66.0,66,4281.0,square4,i,0.0756,3,V,4.0
V4,64.0,80.0,64.0,85.0,76.0,85,4366.0,square3,f,0.1504,2,V,4.0
V4,65.0,77.0,61.0,92.0,74.0,77,4443.0,square1,r,0.6045,0,V,4.0
V4,66.0,89.0,65.0,91.0,73.0,91,4534.0,square3,f,0.0781,2,V,4.0
V4,67.0,86.0,64.0,92.0,70.0,92,4626.0,square3,f,0.1333,2,V,4.0
V4,68.0,82.0,60.0,91.0,77.0,91,4717.0,square3,f,0.0458,2,V,4.0
V4,69.0,78.0,69.0,90.0,70.0,90,4807.0,square3,f,0.105,2,V,4.0
V4,70.0,85.0,64.0,95.0,73.0,95,4902.0,square3,f,0.0928,2,V,4.0
V4,71.0,85.0,61.0,88.0,69.0,88,4990.0,square3,f,0.0604,2,V,4.0
V4,72.0,86.0,63.0,87.0,75.0,87,5077.0,square3,f,0.1013,2,V,4.0
V4,73.0,86.0,69.0,92.0,70.0,92,5169.0,square3,f,0.0748,2,V,4.0
V4,74.0,81.0,62.0,90.0,69.0,90,5259.0,square3,f,0.0955,2,V,4.0
V4,75.0,83.0,66.0,88.0,74.0,88,5347.0,square3,f,0.0387,2,V,4.0
V4,76.0,80.0,64.0,92.0,75.0,92,5439.0,square3,f,0.0721,2,V,4.0
V4,77.0,81.0,65.0,91.0,74.0,91,5530.0,square3,f,0.0003,2,V,4.0
V4,78.0,78.0,70.0,89.0,73.0,89,5619.0,square3,f,0.0099,2,V,4.0
V4,79.0,84.0,66.0,85.0,75.0,85,5704.0,square3,f,0.0511,2,V,4.0
V4,80.0,83.0,65.0,93.0,74.0,93,5797.0,square3,f,0.1205,2,V,4.0
V4,81.0,86.0,59.0,91.0,74.0,91,5888.0,square3,f,0.1138,2,V,4.0
V4,82.0,87.0,64.0,92.0,73.0,92,5980.0,square3,f,0.0603,2,V,4.0
V4,83.0,83.0,68.0,86.0,70.0,86,6066.0,square3,f,0.0595,2,V,4.0
V4,84.0,82.0,62.0,87.0,73.0,87,6153.0,square3,f,0.1251,2,V,4.0
V4,85.0,85.0,61.0,90.0,70.0,90,6243.0,square3,f,0.1472,2,V,4.0
V4,86.0,84.0,66.0,97.0,71.0,97,6340.0,square3,f,0.1056,2,V,4.0
V4,87.0,82.0,64.0,87.0,71.0,71,6411.0,square4,i,0.2132,3,V,4.0
V4,88.0,80.0,67.0,93.0,72.0,80,6491.0,square1,r,0.3091,0,V,4.0
V4,89.0,78.0,64.0,92.0,75.0,64,6555.0,square2,j,0.0226,1,V,4.0
V4,90.0,75.0,66.0,88.0,72.0,88,6643.0,square3,f,0.1296,2,V,4.0
V4,91.0,82.0,59.0,91.0,76.0,91,6734.0,square3,f,0.0884,2,V,4.0
V4,92.0,84.0,62.0,91.0,70.0,91,6825.0,square3,f,0.0695,2,V,4.0
V4,93.0,80.0,61.0,94.0,76.0,94,6919.0,square3,f,0.0861,2,V,4.0
V4,94.0,83.0,64.0,88.0,72.0,88,7007.0,square3,f,0.044,2,V,4.0
V4,95.0,82.0,60.0,94.0,69.0,94,7101.0,square3,f,0.0308,2,V,4.0
V4,96.0,84.0,63.0,92.0,72.0,92,7193.0,square3,f,0.1069,2,V,4.0
V4,97.0,84.0,62.0,85.0,70.0,85,7278.0,square3,f,0.0626,2,V,4.0
V4,98.0,81.0,64.0,93.0,72.0,93,7371.0,square3,f,0.1269,2,V,4.0
V4,99.0,80.0,61.0,92.0,75.0,92,7463.0,square3,f,0.0615,2,V,4.0
S3,0.0,38.0,48.0,42.0,57.0,99999,0.0,invalid,,,-1,S,3.0
S3,1.0,29.0,43.0,51.0,57.0,99999,0.0,invalid,,,-1,S,3.0
S3,2.0,41.0,49.0,46.0,49.0,41,41.0,square1,f,0.1831,0,S,3.0
S3,3.0,44.0,50.0,45.0,52.0,52,93.0,square4,j,0.0798,3,S,3.0
S3,4.0,37.0,51.0,45.0,58.0,45,138.0,square3,i,0.2427,2,S,3.0
S3,5.0,47.0,43.0,42.0,49.0,43,181.0,square2,r,0.4065,1,S,3.0
S3,6.0,44.0,53.0,51.0,58.0,44,225.0,square1,f,0.2681,0,S,3.0
S3,7.0,39.0,47.0,46.0,54.0,54,279.0,square4,j,0.1292,3,S,3.0
S3,8.0,43.0,53.0,41.0,52.0,43,322.0,square1,f,0.309,0,S,3.0
S3,9.0,42.0,46.0,41.0,53.0,41,363.0,square3,i,0.2673,2,S,3.0
S3,10.0,37.0,49.0,49.0,55.0,55,418.0,square4,j,0.1274,3,S,3.0
S3,11.0,40.0,47.0,36.0,59.0,59,477.0,square4,j,0.0716,3,S,3.0
S3,12.0,46.0,51.0,39.0,56.0,56,533.0,square4,j,0.1884,3,S,3.0
S3,13.0,39.0,48.0,45.0,57.0,57,590.0,square4,j,0.0879,3,S,3.0
S3,14.0,39.0,55.0,43.0,47.0,47,637.0,square4,j,0.0387,3,S,3.0
S3,15.0,46.0,46.0,47.0,52.0,52,689.0,square4,j,0.0123,3,S,3.0
S3,16.0,42.0,49.0,50.0,55.0,55,744.0,square4,j,0.0169,3,S,3.0
S3,17.0,45.0,45.0,56.0,47.0,47,791.0,square4,j,0.0033,3,S,3.0
S3,18.0,46.0,43.0,45.0,50.0,50,841.0,square4,j,0.0915,3,S,3.0
S3,19.0,41.0,47.0,50.0,55.0,47,888.0,square2,r,0.2037,1,S,3.0
S3,20.0,45.0,52.0,49.0,52.0,52,940.0,square2,r,0.1002,1,S,3.0
S3,21.0,40.0,43.0,47.0,46.0,43,983.0,square2,r,0.0462,1,S,3.0
S3,22.0,45.0,46.0,44.0,47.0,46,1029.0,square2,r,0.1154,1,S,3.0
S3,23.0,36.0,50.0,42.0,46.0,46,1075.0,square4,j,0.0222,3,S,3.0
S3,24.0,42.0,54.0,49.0,55.0,55,1130.0,square4,j,0.1732,3,S,3.0
S3,25.0,43.0,51.0,44.0,54.0,54,1184.0,square4,j,0.3979,3,S,3.0
S3,26.0,49.0,50.0,52.0,52.0,52,1236.0,square4,j,0.0591,3,S,3.0
S3,27.0,47.0,52.0,44.0,50.0,50,1286.0,square4,j,0.054,3,S,3.0
S3,28.0,37.0,48.0,40.0,47.0,47,1333.0,square4,j,0.5038,3,S,3.0
S3,29.0,50.0,43.0,50.0,57.0,57,1390.0,square4,j,0.256,3,S,3.0
S3,30.0,50.0,50.0,46.0,47.0,47,1437.0,square4,j,0.1448,3,S,3.0
S3,31.0,37.0,53.0,49.0,56.0,56,1493.0,square4,j,0.1707,3,S,3.0
S3,32.0,42.0,50.0,43.0,58.0,58,1551.0,square4,j,0.0871,3,S,3.0
S3,33.0,44.0,49.0,46.0,59.0,59,1610.0,square4,j,0.0262,3,S,3.0
S3,34.0,42.0,50.0,50.0,58.0,58,1668.0,square4,j,0.0559,3,S,3.0
S3,35.0,43.0,46.0,45.0,50.0,50,1718.0,square4,j,0.0405,3,S,3.0
S3,36.0,46.0,52.0,50.0,48.0,48,1766.0,square4,j,0.0885,3,S,3.0
S3,37.0,48.0,50.0,49.0,52.0,52,1818.0,square4,j,0.0851,3,S,3.0
S3,38.0,39.0,43.0,50.0,55.0,55,1873.0,square4,j,0.1001,3,S,3.0
S3,39.0,50.0,53.0,46.0,57.0,57,1930.0,square4,j,0.0581,3,S,3.0
S3,40.0,41.0,46.0,48.0,55.0,55,1985.0,square4,j,0.05,3,S,3.0
S3,41.0,49.0,49.0,40.0,56.0,56,2041.0,square4,j,0.0003,3,S,3.0
S3,42.0,47.0,49.0,43.0,48.0,48,2089.0,square4,j,0.1624,3,S,3.0
S3,43.0,46.0,43.0,41.0,58.0,58,2147.0,square4,j,0.3958,3,S,3.0
S3,44.0,46.0,52.0,51.0,55.0,55,2202.0,square4,j,0.0904,3,S,3.0
S3,45.0,46.0,41.0,46.0,49.0,49,2251.0,square4,j,0.1812,3,S,3.0
S3,46.0,32.0,56.0,40.0,50.0,50,2301.0,square4,j,0.1588,3,S,3.0
S3,47.0,42.0,49.0,44.0,51.0,51,2352.0,square4,j,0.0799,3,S,3.0
S3,48.0,36.0,45.0,38.0,50.0,50,2402.0,square4,j,0.1633,3,S,3.0
S3,49.0,45.0,48.0,47.0,52.0,52,2454.0,square4,j,0.2997,3,S,3.0
S7,0.0,68.0,73.0,62.0,57.0,68,68.0,square1,r,0.4197,0,S,7.0
S7,1.0,74.0,67.0,66.0,59.0,67,135.0,square2,i,0.302,1,S,7.0
S7,2.0,68.0,69.0,65.0,60.0,65,200.0,square3,j,0.0939,2,S,7.0
S7,3.0,74.0,68.0,65.0,63.0,63,263.0,square4,f,0.0428,3,S,7.0
S7,4.0,68.0,74.0,67.0,63.0,74,337.0,square2,i,0.2216,1,S,7.0
S7,5.0,68.0,67.0,61.0,57.0,68,405.0,square1,r,0.106,0,S,7.0
S7,6.0,72.0,64.0,65.0,51.0,64,469.0,square2,i,0.4747,1,S,7.0
S7,7.0,69.0,63.0,69.0,63.0,69,538.0,square3,j,0.2251,2,S,7.0
S7,8.0,71.0,68.0,63.0,54.0,54,592.0,square4,f,0.3383,3,S,7.0
S7,9.0,81.0,66.0,68.0,62.0,81,673.0,square1,r,0.0176,0,S,7.0
S7,10.0,72.0,73.0,68.0,61.0,68,741.0,square3,j,0.0358,2,S,7.0
S7,11.0,72.0,72.0,62.0,58.0,72,813.0,square2,i,0.2998,1,S,7.0
S7,12.0,66.0,66.0,62.0,61.0,66,879.0,square1,r,0.1957,0,S,7.0
S7,13.0,73.0,75.0,75.0,68.0,73,952.0,square1,r,0.1791,0,S,7.0
S7,14.0,71.0,73.0,72.0,66.0,73,1025.0,square2,i,0.1233,1,S,7.0
S7,15.0,75.0,68.0,68.0,65.0,75,1100.0,square1,r,0.0664,0,S,7.0
S7,16.0,67.0,65.0,62.0,56.0,65,1165.0,square2,i,0.0002,1,S,7.0
S7,17.0,72.0,67.0,63.0,64.0,72,1237.0,square1,r,0.0104,0,S,7.0
S7,18.0,73.0,69.0,66.0,65.0,73,1310.0,square1,r,0.0725,0,S,7.0
S7,19.0,75.0,70.0,62.0,58.0,75,1385.0,square1,r,0.1596,0,S,7.0
S7,20.0,76.0,63.0,67.0,62.0,76,1461.0,square1,r,0.1278,0,S,7.0
S7,21.0,79.0,76.0,63.0,64.0,79,1540.0,square1,r,0.0595,0,S,7.0
S7,22.0,67.0,72.0,63.0,62.0,67,1607.0,square1,r,0.095,0,S,7.0
S7,23.0,69.0,71.0,70.0,62.0,69,1676.0,square1,r,0.0003,0,S,7.0
S7,24.0,74.0,67.0,70.0,62.0,74,1750.0,square1,r,0.8681,0,S,7.0
S7,25.0,70.0,67.0,72.0,62.0,70,1820.0,square1,r,0.1551,0,S,7.0
S7,26.0,72.0,62.0,74.0,65.0,72,1892.0,square1,r,0.1315,0,S,7.0
S7,27.0,69.0,70.0,68.0,62.0,69,1961.0,square1,r,0.2004,0,S,7.0
S7,28.0,65.0,66.0,60.0,62.0,65,2026.0,square1,r,0.0416,0,S,7.0
S7,29.0,70.0,64.0,60.0,68.0,70,2096.0,square1,r,0.0657,0,S,7.0
S7,30.0,69.0,69.0,64.0,57.0,69,2165.0,square1,r,0.0356,0,S,7.0
S7,31.0,77.0,67.0,65.0,60.0,77,2242.0,square1,r,0.3209,0,S,7.0
S7,32.0,67.0,75.0,65.0,58.0,67,2309.0,square1,r,0.0491,0,S,7.0
S7,33.0,74.0,66.0,66.0,60.0,74,2383.0,square1,r,0.2337,0,S,7.0
S7,34.0,72.0,72.0,66.0,61.0,72,2455.0,square1,r,0.0859,0,S,7.0
S7,35.0,67.0,68.0,64.0,62.0,67,2522.0,square1,r,0.046,0,S,7.0
S7,36.0,64.0,63.0,70.0,58.0,64,2586.0,square1,r,0.0104,0,S,7.0
S7,37.0,80.0,72.0,64.0,53.0,80,2666.0,square1,r,0.1524,0,S,7.0
S7,38.0,78.0,69.0,76.0,67.0,78,2744.0,square1,r,0.0413,0,S,7.0
S7,39.0,69.0,66.0,60.0,67.0,69,2813.0,square1,r,0.0083,0,S,7.0
S7,40.0,72.0,71.0,63.0,66.0,72,2885.0,square1,r,0.2097,0,S,7.0
S7,41.0,80.0,73.0,65.0,63.0,80,2965.0,square1,r,0.0235,0,S,7.0
S7,42.0,77.0,60.0,65.0,59.0,77,3042.0,square1,r,0.225,0,S,7.0
S7,43.0,70.0,72.0,70.0,63.0,70,3112.0,square1,r,0.071,0,S,7.0
S7,44.0,77.0,70.0,66.0,58.0,77,3189.0,square1,r,0.2299,0,S,7.0
S7,45.0,75.0,69.0,73.0,58.0,75,3264.0,square1,r,0.1021,0,S,7.0
S7,46.0,74.0,71.0,63.0,63.0,63,3327.0,square4,f,0.2334,3,S,7.0
S7,47.0,73.0,75.0,71.0,64.0,75,3402.0,square2,i,1.4957,1,S,7.0
S7,48.0,78.0,79.0,64.0,58.0,64,3466.0,square3,j,0.2313,2,S,7.0
S7,49.0,75.0,72.0,66.0,72.0,75,3541.0,square1,r,0.1006,0,S,7.0
S1,0.0,72.0,58.0,70.0,66.0,66,66.0,square4,r,0.6267,3,S,1.0
S1,1.0,75.0,64.0,66.0,69.0,64,130.0,square2,f,0.325,1,S,1.0
S1,2.0,75.0,62.0,62.0,79.0,62,192.0,square3,i,0.2498,2,S,1.0
S1,3.0,68.0,62.0,63.0,69.0,68,260.0,square1,j,0.1633,0,S,1.0
S1,4.0,82.0,63.0,64.0,73.0,63,323.0,square2,f,0.277,1,S,1.0
S1,5.0,66.0,70.0,65.0,73.0,73,396.0,square4,r,0.0584,3,S,1.0
S1,6.0,73.0,65.0,62.0,65.0,73,469.0,square1,j,0.0194,0,S,1.0
S1,7.0,70.0,61.0,65.0,66.0,66,535.0,square4,r,0.1228,3,S,1.0
S1,8.0,78.0,63.0,67.0,68.0,78,613.0,square1,j,0.2667,0,S,1.0
S1,9.0,74.0,67.0,66.0,68.0,74,687.0,square1,j,0.4227,0,S,1.0
S1,10.0,73.0,59.0,68.0,68.0,73,760.0,square1,j,0.0776,0,S,1.0
S1,11.0,76.0,65.0,62.0,81.0,76,836.0,square1,j,0.0505,0,S,1.0
S1,12.0,77.0,66.0,69.0,63.0,77,913.0,square1,j,0.1398,0,S,1.0
S1,13.0,75.0,63.0,68.0,73.0,75,988.0,square1,j,0.0001,0,S,1.0
S1,14.0,67.0,60.0,67.0,69.0,67,1055.0,square1,j,0.1417,0,S,1.0
S1,15.0,70.0,63.0,69.0,73.0,70,1125.0,square1,j,0.1131,0,S,1.0
S1,16.0,69.0,61.0,69.0,69.0,69,1194.0,square1,j,0.2058,0,S,1.0
S1,17.0,73.0,68.0,67.0,73.0,73,1267.0,square1,j,0.0526,0,S,1.0
S1,18.0,70.0,58.0,73.0,66.0,70,1337.0,square1,j,0.0284,0,S,1.0
S1,19.0,75.0,58.0,62.0,68.0,75,1412.0,square1,j,0.0789,0,S,1.0
S1,20.0,76.0,58.0,72.0,67.0,76,1488.0,square1,j,0.0254,0,S,1.0
S1,21.0,69.0,66.0,66.0,67.0,69,1557.0,square1,j,0.176,0,S,1.0
S1,22.0,70.0,68.0,65.0,65.0,70,1627.0,square1,j,0.11,0,S,1.0
S1,23.0,71.0,60.0,64.0,64.0,71,1698.0,square1,j,0.2063,0,S,1.0
S1,24.0,70.0,72.0,62.0,67.0,70,1768.0,square1,j,0.213,0,S,1.0
S1,25.0,68.0,60.0,70.0,65.0,68,1836.0,square1,j,0.1977,0,S,1.0
S1,26.0,76.0,64.0,72.0,69.0,76,1912.0,square1,j,0.1425,0,S,1.0
S1,27.0,71.0,56.0,70.0,65.0,71,1983.0,square1,j,0.1709,0,S,1.0
S1,28.0,67.0,67.0,71.0,76.0,67,2050.0,square1,j,0.2335,0,S,1.0
S1,29.0,78.0,64.0,64.0,74.0,78,2128.0,square1,j,0.1498,0,S,1.0
S1,30.0,74.0,63.0,65.0,71.0,74,2202.0,square1,j,0.1246,0,S,1.0
S1,31.0,78.0,58.0,69.0,69.0,78,2280.0,square1,j,0.0855,0,S,1.0
S1,32.0,71.0,67.0,68.0,60.0,71,2351.0,square1,j,0.1634,0,S,1.0
S1,33.0,68.0,63.0,65.0,73.0,68,2419.0,square1,j,0.0542,0,S,1.0
S1,34.0,71.0,62.0,74.0,73.0,71,2490.0,square1,j,0.0662,0,S,1.0
S1,35.0,75.0,59.0,67.0,77.0,75,2565.0,square1,j,0.0844,0,S,1.0
S1,36.0,77.0,60.0,66.0,67.0,77,2642.0,square1,j,0.083,0,S,1.0
S1,37.0,69.0,60.0,69.0,75.0,69,2711.0,square1,j,0.2199,0,S,1.0
S1,38.0,77.0,64.0,62.0,70.0,77,2788.0,square1,j,0.1376,0,S,1.0
S1,39.0,72.0,66.0,69.0,65.0,72,2860.0,square1,j,0.1175,0,S,1.0
S1,40.0,69.0,63.0,66.0,69.0,69,2929.0,square1,j,0.1261,0,S,1.0
S1,41.0,72.0,62.0,70.0,70.0,72,3001.0,square1,j,0.2958,0,S,1.0
S1,42.0,78.0,60.0,63.0,62.0,78,3079.0,square1,j,0.0764,0,S,1.0
S1,43.0,71.0,62.0,67.0,73.0,71,3150.0,square1,j,0.2146,0,S,1.0
S1,44.0,75.0,63.0,69.0,73.0,75,3225.0,square1,j,0.0843,0,S,1.0
S1,45.0,66.0,60.0,68.0,73.0,66,3291.0,square1,j,0.0479,0,S,1.0
S1,46.0,74.0,67.0,69.0,71.0,74,3365.0,square1,j,0.189,0,S,1.0
S1,47.0,71.0,66.0,68.0,70.0,71,3436.0,square1,j,0.0274,0,S,1.0
S1,48.0,72.0,75.0,71.0,77.0,72,3508.0,square1,j,0.2058,0,S,1.0
S1,49.0,65.0,57.0,66.0,75.0,65,3573.0,square1,j,0.893,0,S,1.0
S6,0.0,40.0,29.0,39.0,26.0,39,39.0,square3,r,0.4888,2,S,6.0
S6,1.0,34.0,40.0,31.0,25.0,25,64.0,square4,f,0.275,3,S,6.0
S6,2.0,37.0,31.0,25.0,30.0,37,101.0,square1,i,0.0266,0,S,6.0
S6,3.0,39.0,37.0,30.0,27.0,37,138.0,square2,j,0.1487,1,S,6.0
S6,4.0,42.0,40.0,28.0,32.0,42,180.0,square1,i,0.396,0,S,6.0
S6,5.0,35.0,35.0,39.0,29.0,39,219.0,square3,r,0.0251,2,S,6.0
S6,6.0,48.0,30.0,37.0,33.0,30,249.0,square2,j,0.0247,1,S,6.0
S6,7.0,47.0,34.0,31.0,29.0,47,296.0,square1,i,0.0347,0,S,6.0
S6,8.0,43.0,35.0,30.0,25.0,30,326.0,square3,r,0.3912,2,S,6.0
S6,9.0,36.0,38.0,35.0,35.0,36,362.0,square1,i,0.0369,0,S,6.0
S6,10.0,38.0,35.0,31.0,21.0,38,400.0,square1,i,0.0256,0,S,6.0
S6,11.0,30.0,36.0,31.0,20.0,30,430.0,square1,i,0.0656,0,S,6.0
S6,12.0,37.0,40.0,33.0,22.0,37,467.0,square1,i,0.0024,0,S,6.0
S6,13.0,32.0,41.0,35.0,29.0,32,499.0,square1,i,0.027,0,S,6.0
S6,14.0,41.0,29.0,30.0,32.0,41,540.0,square1,i,0.063,0,S,6.0
S6,15.0,43.0,37.0,31.0,27.0,43,583.0,square1,i,0.0293,0,S,6.0
S6,16.0,34.0,34.0,35.0,31.0,34,617.0,square1,i,0.152,0,S,6.0
S6,17.0,47.0,40.0,29.0,28.0,47,664.0,square1,i,0.7417,0,S,6.0
S6,18.0,37.0,38.0,34.0,35.0,37,701.0,square1,i,0.2209,0,S,6.0
S6,19.0,36.0,39.0,31.0,26.0,36,737.0,square1,i,0.1083,0,S,6.0
S6,20.0,44.0,40.0,31.0,25.0,44,781.0,square1,i,0.0123,0,S,6.0
S6,21.0,39.0,41.0,35.0,24.0,39,820.0,square1,i,0.0195,0,S,6.0
S6,22.0,41.0,38.0,41.0,31.0,41,861.0,square1,i,0.0395,0,S,6.0
S6,23.0,37.0,31.0,30.0,32.0,37,898.0,square1,i,0.0047,0,S,6.0
S6,24.0,48.0,34.0,34.0,21.0,48,946.0,square1,i,0.0002,0,S,6.0
S6,25.0,42.0,45.0,26.0,29.0,42,988.0,square1,i,0.2549,0,S,6.0
S6,26.0,40.0,39.0,36.0,28.0,40,1028.0,square1,i,0.0046,0,S,6.0
S6,27.0,42.0,33.0,29.0,29.0,42,1070.0,square1,i,0.2513,0,S,6.0
S6,28.0,41.0,30.0,29.0,29.0,41,1111.0,square1,i,0.2003,0,S,6.0
S6,29.0,42.0,40.0,32.0,27.0,42,1153.0,square1,i,0.229,0,S,6.0
S6,30.0,42.0,36.0,30.0,26.0,42,1195.0,square1,i,0.1006,0,S,6.0
S6,31.0,42.0,34.0,35.0,29.0,42,1237.0,square1,i,0.1544,0,S,6.0
S6,32.0,35.0,36.0,31.0,23.0,35,1272.0,square1,i,0.1207,0,S,6.0
S6,33.0,35.0,31.0,35.0,30.0,35,1307.0,square1,i,0.0505,0,S,6.0
S6,34.0,40.0,38.0,31.0,27.0,40,1347.0,square1,i,0.1748,0,S,6.0
S6,35.0,42.0,37.0,34.0,34.0,42,1389.0,square1,i,0.1251,0,S,6.0
S6,36.0,37.0,46.0,31.0,34.0,37,1426.0,square1,i,0.2206,0,S,6.0
S6,37.0,38.0,40.0,30.0,26.0,38,1464.0,square1,i,0.1104,0,S,6.0
S6,38.0,36.0,34.0,31.0,33.0,36,1500.0,square1,i,0.166,0,S,6.0
S6,39.0,44.0,37.0,33.0,31.0,44,1544.0,square1,i,0.0504,0,S,6.0
S6,40.0,40.0,38.0,31.0,25.0,40,1584.0,square1,i,0.201,0,S,6.0
S6,41.0,49.0,35.0,35.0,28.0,49,1633.0,square1,i,0.1081,0,S,6.0
S6,42.0,44.0,40.0,32.0,28.0,44,1677.0,square1,i,0.0258,0,S,6.0
S6,43.0,43.0,36.0,33.0,26.0,43,1720.0,square1,i,0.213,0,S,6.0
S6,44.0,38.0,33.0,34.0,26.0,38,1758.0,square1,i,0.1558,0,S,6.0
S6,45.0,32.0,35.0,30.0,28.0,32,1790.0,square1,i,0.1353,0,S,6.0
S6,46.0,38.0,36.0,34.0,30.0,38,1828.0,square1,i,0.1806,0,S,6.0
S6,47.0,44.0,35.0,32.0,31.0,44,1872.0,square1,i,0.0722,0,S,6.0
S6,48.0,40.0,40.0,31.0,33.0,40,1912.0,square1,i,0.2836,0,S,6.0
S6,49.0,41.0,29.0,29.0,29.0,41,1953.0,square1,i,0.2337,0,S,6.0
S12,0.0,38.0,42.0,30.0,42.0,38,38.0,square1,r,0.8286,0,S,12.0
S12,1.0,30.0,42.0,28.0,37.0,28,66.0,square3,f,0.169,2,S,12.0
S12,2.0,34.0,41.0,38.0,43.0,43,109.0,square4,j,0.0677,3,S,12.0
S12,3.0,38.0,51.0,38.0,38.0,51,160.0,square2,i,0.1965,1,S,12.0
S12,4.0,32.0,37.0,33.0,45.0,37,197.0,square2,i,0.7027,1,S,12.0
S12,5.0,38.0,52.0,36.0,35.0,35,232.0,square4,j,0.1972,3,S,12.0
S12,6.0,30.0,43.0,30.0,38.0,30,262.0,square1,r,0.5973,0,S,12.0
S12,7.0,38.0,39.0,30.0,39.0,39,301.0,square2,i,0.1778,1,S,12.0
S12,8.0,37.0,49.0,35.0,38.0,38,339.0,square4,j,0.0174,3,S,12.0
S12,9.0,37.0,44.0,29.0,38.0,44,383.0,square2,i,0.1645,1,S,12.0
S12,10.0,35.0,42.0,30.0,45.0,42,425.0,square2,i,0.1803,1,S,12.0
S12,11.0,34.0,45.0,36.0,32.0,45,470.0,square2,i,0.0002,1,S,12.0
S12,12.0,33.0,45.0,35.0,42.0,45,515.0,square2,i,0.2088,1,S,12.0
S12,13.0,36.0,36.0,29.0,40.0,36,551.0,square2,i,0.1093,1,S,12.0
S12,14.0,36.0,49.0,32.0,42.0,49,600.0,square2,i,0.0377,1,S,12.0
S12,15.0,35.0,43.0,35.0,46.0,43,643.0,square2,i,0.0168,1,S,12.0
S12,16.0,39.0,48.0,41.0,43.0,48,691.0,square2,i,0.084,1,S,12.0
S12,17.0,35.0,47.0,27.0,38.0,47,738.0,square2,i,0.0803,1,S,12.0
S12,18.0,37.0,51.0,33.0,33.0,51,789.0,square2,i,0.1669,1,S,12.0
S12,19.0,41.0,42.0,33.0,36.0,42,831.0,square2,i,0.1963,1,S,12.0
S12,20.0,34.0,44.0,26.0,41.0,44,875.0,square2,i,0.1224,1,S,12.0
S12,21.0,35.0,37.0,29.0,35.0,37,912.0,square2,i,0.1543,1,S,12.0
S12,22.0,37.0,48.0,31.0,41.0,48,960.0,square2,i,0.1128,1,S,12.0
S12,23.0,36.0,43.0,27.0,45.0,43,1003.0,square2,i,0.1135,1,S,12.0
S12,24.0,39.0,48.0,38.0,38.0,48,1051.0,square2,i,0.2005,1,S,12.0
S12,25.0,31.0,43.0,30.0,40.0,43,1094.0,square2,i,0.0341,1,S,12.0
S12,26.0,35.0,48.0,34.0,33.0,48,1142.0,square2,i,0.263,1,S,12.0
S12,27.0,46.0,46.0,28.0,38.0,46,1188.0,square2,i,0.1927,1,S,12.0
S12,28.0,32.0,37.0,32.0,40.0,37,1225.0,square2,i,0.0802,1,S,12.0
S12,29.0,38.0,41.0,32.0,44.0,41,1266.0,square2,i,0.1173,1,S,12.0
S12,30.0,32.0,48.0,29.0,42.0,48,1314.0,square2,i,0.0789,1,S,12.0
S12,31.0,34.0,46.0,30.0,42.0,46,1360.0,square2,i,0.059,1,S,12.0
S12,32.0,39.0,43.0,41.0,40.0,43,1403.0,square2,i,0.1131,1,S,12.0
S12,33.0,36.0,47.0,33.0,46.0,47,1450.0,square2,i,0.1334,1,S,12.0
S12,34.0,36.0,41.0,34.0,41.0,41,1491.0,square2,i,0.0513,1,S,12.0
S12,35.0,34.0,42.0,31.0,43.0,42,1533.0,square2,i,0.0439,1,S,12.0
S12,36.0,39.0,43.0,26.0,33.0,43,1576.0,square2,i,0.4259,1,S,12.0
S12,37.0,39.0,49.0,30.0,42.0,49,1625.0,square2,i,0.2301,1,S,12.0
S12,38.0,33.0,47.0,36.0,41.0,47,1672.0,square2,i,0.3036,1,S,12.0
S12,39.0,29.0,46.0,35.0,36.0,46,1718.0,square2,i,0.0332,1,S,12.0
S12,40.0,39.0,39.0,29.0,36.0,39,1757.0,square2,i,0.1299,1,S,12.0
S12,41.0,33.0,44.0,31.0,40.0,44,1801.0,square2,i,0.104,1,S,12.0
S12,42.0,34.0,46.0,25.0,37.0,46,1847.0,square2,i,0.0002,1,S,12.0
S12,43.0,37.0,42.0,30.0,42.0,42,1889.0,square2,i,0.014,1,S,12.0
S12,44.0,33.0,49.0,36.0,39.0,49,1938.0,square2,i,0.2374,1,S,12.0
S12,45.0,35.0,40.0,30.0,47.0,40,1978.0,square2,i,0.1297,1,S,12.0
S12,46.0,40.0,41.0,29.0,35.0,41,2019.0,square2,i,0.1407,1,S,12.0
S12,47.0,32.0,42.0,28.0,43.0,42,2061.0,square2,i,0.0291,1,S,12.0
S12,48.0,43.0,47.0,31.0,38.0,47,2108.0,square2,i,0.0972,1,S,12.0
S12,49.0,37.0,41.0,35.0,40.0,41,2149.0,square2,i,0.2296,1,S,12.0
S11,0.0,49.0,53.0,49.0,45.0,53,53.0,square2,r,0.453,1,S,11.0
S11,1.0,54.0,56.0,42.0,50.0,50,103.0,square4,f,0.1501,3,S,11.0
S11,2.0,39.0,51.0,39.0,43.0,39,142.0,square3,i,0.1063,2,S,11.0
S11,3.0,53.0,50.0,38.0,43.0,53,195.0,square1,j,0.0965,0,S,11.0
S11,4.0,47.0,54.0,39.0,48.0,54,249.0,square2,r,0.2465,1,S,11.0
S11,5.0,47.0,52.0,40.0,46.0,47,296.0,square1,j,0.2458,0,S,11.0
S11,6.0,47.0,46.0,44.0,54.0,54,350.0,square4,f,0.2209,3,S,11.0
S11,7.0,48.0,51.0,35.0,51.0,51,401.0,square2,r,0.2002,1,S,11.0
S11,8.0,52.0,49.0,36.0,43.0,43,444.0,square4,f,0.1691,3,S,11.0
S11,9.0,47.0,53.0,41.0,55.0,53,497.0,square2,r,0.5187,1,S,11.0
S11,10.0,44.0,48.0,41.0,43.0,44,541.0,square1,j,0.0712,0,S,11.0
S11,11.0,41.0,54.0,38.0,43.0,54,595.0,square2,r,0.1539,1,S,11.0
S11,12.0,45.0,54.0,44.0,45.0,54,649.0,square2,r,0.1131,1,S,11.0
S11,13.0,54.0,52.0,44.0,50.0,52,701.0,square2,r,0.2815,1,S,11.0
S11,14.0,57.0,58.0,36.0,45.0,58,759.0,square2,r,0.1458,1,S,11.0
S11,15.0,48.0,54.0,43.0,49.0,54,813.0,square2,r,0.0146,1,S,11.0
S11,16.0,58.0,47.0,42.0,46.0,47,860.0,square2,r,0.1112,1,S,11.0
S11,17.0,41.0,61.0,42.0,53.0,61,921.0,square2,r,0.0454,1,S,11.0
S11,18.0,51.0,58.0,33.0,39.0,58,979.0,square2,r,0.0375,1,S,11.0
S11,19.0,48.0,49.0,37.0,42.0,49,1028.0,square2,r,0.2006,1,S,11.0
S11,20.0,52.0,52.0,45.0,46.0,52,1080.0,square2,r,0.0402,1,S,11.0
S11,21.0,47.0,53.0,44.0,51.0,53,1133.0,square2,r,0.1209,1,S,11.0
S11,22.0,49.0,54.0,37.0,41.0,54,1187.0,square2,r,0.1823,1,S,11.0
S11,23.0,52.0,54.0,41.0,45.0,54,1241.0,square2,r,0.2057,1,S,11.0
S11,24.0,42.0,56.0,41.0,45.0,56,1297.0,square2,r,0.0344,1,S,11.0
S11,25.0,52.0,56.0,42.0,44.0,56,1353.0,square2,r,0.0045,1,S,11.0
S11,26.0,43.0,56.0,41.0,45.0,56,1409.0,square2,r,0.0616,1,S,11.0
S11,27.0,48.0,50.0,40.0,43.0,50,1459.0,square2,r,0.0799,1,S,11.0
S11,28.0,46.0,49.0,38.0,48.0,49,1508.0,square2,r,0.0123,1,S,11.0
S11,29.0,46.0,55.0,40.0,42.0,55,1563.0,square2,r,0.0536,1,S,11.0
S11,30.0,46.0,56.0,43.0,37.0,56,1619.0,square2,r,0.1459,1,S,11.0
S11,31.0,42.0,49.0,44.0,42.0,49,1668.0,square2,r,0.0204,1,S,11.0
S11,32.0,51.0,52.0,36.0,40.0,52,1720.0,square2,r,0.0067,1,S,11.0
S11,33.0,44.0,53.0,39.0,43.0,53,1773.0,square2,r,0.1378,1,S,11.0
S11,34.0,52.0,52.0,43.0,49.0,52,1825.0,square2,r,0.2488,1,S,11.0
S11,35.0,53.0,51.0,38.0,45.0,51,1876.0,square2,r,0.0299,1,S,11.0
S11,36.0,50.0,44.0,42.0,48.0,44,1920.0,square2,r,0.1378,1,S,11.0
S11,37.0,49.0,51.0,40.0,48.0,51,1971.0,square2,r,0.2258,1,S,11.0
S11,38.0,47.0,47.0,39.0,38.0,47,2018.0,square2,r,0.2055,1,S,11.0
S11,39.0,51.0,55.0,40.0,42.0,55,2073.0,square2,r,0.0209,1,S,11.0
S11,40.0,50.0,52.0,41.0,44.0,52,2125.0,square2,r,0.2841,1,S,11.0
S11,41.0,47.0,50.0,46.0,50.0,50,2175.0,square2,r,0.0457,1,S,11.0
S11,42.0,52.0,48.0,41.0,47.0,48,2223.0,square2,r,0.21,1,S,11.0
S11,43.0,50.0,56.0,34.0,42.0,56,2279.0,square2,r,0.0583,1,S,11.0
S11,44.0,42.0,48.0,37.0,49.0,48,2327.0,square2,r,0.0588,1,S,11.0
S11,45.0,47.0,47.0,41.0,40.0,47,2374.0,square2,r,0.2022,1,S,11.0
S11,46.0,50.0,56.0,40.0,44.0,56,2430.0,square2,r,0.2375,1,S,11.0
S11,47.0,46.0,48.0,38.0,47.0,48,2478.0,square2,r,0.148,1,S,11.0
S11,48.0,45.0,54.0,44.0,41.0,54,2532.0,square2,r,0.2316,1,S,11.0
S11,49.0,44.0,53.0,41.0,41.0,53,2585.0,square2,r,0.1092,1,S,11.0
