block,Trial,square1,square2,square3,square4,currPoints,totalPoints,square,choiceKey.keys,choiceKey.rt,armNum,blockType,blockNum
prac,0.0,100.0,0.0,0.0,0.0,0,0.0,square2,,,1,p,0.0
prac,1.0,100.0,0.0,0.0,0.0,0,0.0,square3,,,2,p,0.0
prac,2.0,100.0,0.0,0.0,0.0,0,0.0,square4,,,3,p,0.0
prac,3.0,100.0,0.0,0.0,0.0,100,100.0,square1,,,0,p,0.0
prac,4.0,100.0,0.0,0.0,0.0,100,200.0,square1,,,0,p,0.0
prac,5.0,100.0,0.0,0.0,0.0,100,300.0,square1,,,0,p,0.0
prac,6.0,100.0,0.0,0.0,0.0,100,400.0,square1,,,0,p,0.0
prac,7.0,100.0,0.0,0.0,0.0,100,500.0,square1,,,0,p,0.0
prac,8.0,100.0,0.0,0.0,0.0,100,600.0,square1,,,0,p,0.0
prac,9.0,100.0,0.0,0.0,0.0,100,700.0,square1,,,0,p,0.0
V11,0.0,42.0,67.0,57.0,49.0,67,67.0,square2,r,0.887,1,V,11.0
V11,1.0,42.0,71.0,60.0,53.0,60,127.0,square3,f,0.458,2,V,11.0
V11,2.0,45.0,76.0,58.0,51.0,45,172.0,square1,i,0.241,0,V,11.0
V11,3.0,44.0,65.0,60.0,49.0,49,221.0,square4,j,0.268,3,V,11.0
V11,4.0,46.0,73.0,64.0,51.0,73,294.0,square2,r,0.187,1,V,11.0
V11,5.0,47.0,67.0,58.0,54.0,67,361.0,square2,r,0.279,1,V,11.0
V11,6.0,43.0,68.0,58.0,50.0,68,429.0,square2,r,0.31,1,V,11.0
V11,7.0,42.0,67.0,60.0,58.0,60,489.0,square3,f,0.979,2,V,11.0
V11,8.0,44.0,67.0,60.0,53.0,44,533.0,square1,i,0.032,0,V,11.0
V11,9.0,44.0,67.0,59.0,54.0,54,587.0,square4,j,0.052,3,V,11.0
V11,10.0,49.0,76.0,57.0,52.0,76,663.0,square2,r,0.542,1,V,11.0
V11,11.0,45.0,71.0,58.0,51.0,71,734.0,square2,r,0.21,1,V,11.0
V11,12.0,45.0,72.0,58.0,56.0,72,806.0,square2,r,0.209,1,V,11.0
V11,13.0,49.0,67.0,63.0,54.0,67,873.0,square2,r,0.221,1,V,11.0
V11,14.0,50.0,75.0,57.0,48.0,75,948.0,square2,r,0.065,1,V,11.0
V11,15.0,40.0,71.0,61.0,51.0,71,1019.0,square2,r,0.1,1,V,11.0
V11,16.0,47.0,72.0,56.0,54.0,72,1091.0,square2,r,0.567,1,V,11.0
V11,17.0,40.0,71.0,61.0,46.0,71,1162.0,square2,r,0.101,1,V,11.0
V11,18.0,44.0,69.0,59.0,51.0,69,1231.0,square2,r,0.003,1,V,11.0
V11,19.0,44.0,73.0,59.0,47.0,44,1275.0,square1,i,0.2,0,V,11.0
V11,20.0,47.0,69.0,64.0,54.0,69,1344.0,square2,r,0.385,1,V,11.0
V11,21.0,78.0,49.0,70.0,65.0,49,1393.0,square2,r,0.14,1,V,11.0
V11,22.0,78.0,56.0,73.0,62.0,62,1455.0,square4,j,0.282,3,V,11.0
V11,23.0,84.0,54.0,71.0,65.0,71,1526.0,square3,f,0.329,2,V,11.0
V11,24.0,80.0,55.0,72.0,67.0,72,1598.0,square3,f,0.215,2,V,11.0
V11,25.0,80.0,55.0,75.0,63.0,75,1673.0,square3,f,0.2,2,V,11.0
V11,26.0,80.0,56.0,67.0,62.0,67,1740.0,square3,f,0.136,2,V,11.0
V11,27.0,80.0,51.0,68.0,62.0,62,1802.0,square4,j,0.199,3,V,11.0
V11,28.0,79.0,57.0,67.0,57.0,67,1869.0,square3,f,0.058,2,V,11.0
V11,29.0,79.0,50.0,67.0,62.0,67,1936.0,square3,f,0.25,2,V,11.0
V11,30.0,88.0,54.0,74.0,61.0,74,2010.0,square3,f,0.18,2,V,11.0
V11,31.0,81.0,51.0,75.0,63.0,75,2085.0,square3,f,0.209,2,V,11.0
V11,32.0,76.0,51.0,69.0,65.0,69,2154.0,square3,f,0.109,2,V,11.0
V11,33.0,78.0,54.0,72.0,64.0,72,2226.0,square3,f,0.167,2,V,11.0
V11,34.0,77.0,53.0,71.0,62.0,71,2297.0,square3,f,0.01,2,V,11.0
V11,35.0,74.0,59.0,75.0,62.0,75,2372.0,square3,f,0.219,2,V,11.0
V11,36.0,79.0,50.0,72.0,62.0,72,2444.0,square3,f,0.233,2,V,11.0
V11,37.0,74.0,54.0,68.0,62.0,68,2512.0,square3,f,0.145,2,V,11.0
V11,38.0,80.0,57.0,65.0,58.0,65,2577.0,square3,f,0.131,2,V,11.0
V11,39.0,73.0,52.0,75.0,66.0,75,2652.0,square3,f,0.082,2,V,11.0
V11,40.0,82.0,57.0,71.0,57.0,71,2723.0,square3,f,0.235,2,V,11.0
V11,41.0,78.0,53.0,73.0,64.0,73,2796.0,square3,f,0.181,2,V,11.0
V11,42.0,72.0,56.0,67.0,59.0,67,2863.0,square3,f,0.101,2,V,11.0
V11,43.0,81.0,54.0,73.0,63.0,73,2936.0,square3,f,0.056,2,V,11.0
V11,44.0,76.0,54.0,75.0,59.0,75,3011.0,square3,f,0.046,2,V,11.0
V11,45.0,79.0,59.0,71.0,64.0,71,3082.0,square3,f,0.079,2,V,11.0
V11,46.0,80.0,55.0,67.0,57.0,67,3149.0,square3,f,0.076,2,V,11.0
V11,47.0,84.0,53.0,75.0,56.0,75,3224.0,square3,f,0.001,2,V,11.0
V11,48.0,83.0,57.0,71.0,60.0,71,3295.0,square3,f,0.143,2,V,11.0
V11,49.0,79.0,52.0,71.0,60.0,71,3366.0,square3,f,0.542,2,V,11.0
V11,50.0,76.0,50.0,69.0,60.0,69,3435.0,square3,f,0.389,2,V,11.0
V11,51.0,79.0,54.0,72.0,57.0,79,3514.0,square1,i,0.181,0,V,11.0
V11,52.0,80.0,54.0,72.0,64.0,80,3594.0,square1,i,0.243,0,V,11.0
V11,53.0,35.0,50.0,55.0,69.0,35,3629.0,square1,i,0.642,0,V,11.0
V11,54.0,45.0,48.0,55.0,73.0,73,3702.0,square4,j,0.233,3,V,11.0
V11,55.0,43.0,53.0,58.0,70.0,70,3772.0,square4,j,0.083,3,V,11.0
V11,56.0,40.0,46.0,60.0,62.0,62,3834.0,square4,j,0.389,3,V,11.0
V11,57.0,44.0,46.0,53.0,71.0,71,3905.0,square4,j,0.342,3,V,11.0
V11,58.0,44.0,52.0,55.0,68.0,68,3973.0,square4,j,0.236,3,V,11.0
V11,59.0,44.0,44.0,57.0,66.0,44,4017.0,square2,r,0.177,1,V,11.0
V11,60.0,40.0,46.0,57.0,62.0,40,4057.0,square1,i,0.137,0,V,11.0
V11,61.0,42.0,52.0,58.0,62.0,58,4115.0,square3,f,0.476,2,V,11.0
V11,62.0,40.0,49.0,56.0,71.0,71,4186.0,square4,j,0.136,3,V,11.0
V11,63.0,40.0,54.0,60.0,66.0,66,4252.0,square4,j,0.21,3,V,11.0
V11,64.0,41.0,43.0,51.0,66.0,66,4318.0,square4,j,0.161,3,V,11.0
V11,65.0,39.0,48.0,59.0,66.0,66,4384.0,square4,j,0.386,3,V,11.0
V11,66.0,40.0,48.0,59.0,69.0,69,4453.0,square4,j,0.215,3,V,11.0
V11,67.0,46.0,45.0,58.0,69.0,69,4522.0,square4,j,0.174,3,V,11.0
V11,68.0,41.0,50.0,56.0,69.0,69,4591.0,square4,j,0.283,3,V,11.0
V11,69.0,48.0,49.0,57.0,71.0,48,4639.0,square1,i,0.165,0,V,11.0
V11,70.0,41.0,47.0,58.0,65.0,58,4697.0,square3,f,0.311,2,V,11.0
V11,71.0,37.0,46.0,58.0,60.0,46,4743.0,square2,r,0.18,1,V,11.0
V11,72.0,41.0,47.0,54.0,65.0,65,4808.0,square4,j,0.109,3,V,11.0
V11,73.0,42.0,47.0,60.0,67.0,67,4875.0,square4,j,0.168,3,V,11.0
V11,74.0,43.0,49.0,57.0,64.0,64,4939.0,square4,j,0.304,3,V,11.0
V11,75.0,38.0,46.0,57.0,66.0,66,5005.0,square4,j,0.117,3,V,11.0
V11,76.0,42.0,50.0,58.0,68.0,68,5073.0,square4,j,0.159,3,V,11.0
V11,77.0,36.0,49.0,58.0,64.0,64,5137.0,square4,j,0.143,3,V,11.0
V11,78.0,40.0,50.0,56.0,67.0,67,5204.0,square4,j,0.235,3,V,11.0
V11,79.0,39.0,48.0,56.0,67.0,67,5271.0,square4,j,0.132,3,V,11.0
V11,80.0,51.0,33.0,30.0,45.0,45,5316.0,square4,j,0.129,3,V,11.0
V11,81.0,49.0,31.0,23.0,48.0,23,5339.0,square3,f,0.176,2,V,11.0
V11,82.0,55.0,30.0,25.0,42.0,30,5369.0,square2,r,0.059,1,V,11.0
V11,83.0,50.0,33.0,27.0,48.0,50,5419.0,square1,i,0.453,0,V,11.0
V11,84.0,52.0,34.0,25.0,43.0,52,5471.0,square1,i,0.208,0,V,11.0
V11,85.0,49.0,28.0,28.0,44.0,49,5520.0,square1,i,0.123,0,V,11.0
V11,86.0,57.0,29.0,27.0,48.0,57,5577.0,square1,i,0.255,0,V,11.0
V11,87.0,49.0,29.0,21.0,38.0,49,5626.0,square1,i,0.035,0,V,11.0
V11,88.0,55.0,32.0,29.0,46.0,55,5681.0,square1,i,0.231,0,V,11.0
V11,89.0,50.0,28.0,23.0,43.0,50,5731.0,square1,i,0.077,0,V,11.0
V11,90.0,54.0,34.0,32.0,41.0,41,5772.0,square4,j,0.398,3,V,11.0
V11,91.0,50.0,34.0,26.0,44.0,50,5822.0,square1,i,0.244,0,V,11.0
V11,92.0,51.0,31.0,27.0,50.0,51,5873.0,square1,i,0.075,0,V,11.0
V11,93.0,49.0,38.0,28.0,42.0,49,5922.0,square1,i,0.235,0,V,11.0
V11,94.0,50.0,29.0,25.0,46.0,50,5972.0,square1,i,0.023,0,V,11.0
V11,95.0,51.0,36.0,22.0,40.0,51,6023.0,square1,i,0.202,0,V,11.0
V11,96.0,52.0,34.0,32.0,45.0,52,6075.0,square1,i,0.113,0,V,11.0
V11,97.0,53.0,27.0,32.0,44.0,53,6128.0,square1,i,0.043,0,V,11.0
V11,98.0,60.0,31.0,25.0,48.0,60,6188.0,square1,i,0.053,0,V,11.0
V11,99.0,53.0,33.0,23.0,42.0,53,6241.0,square1,i,0.12,0,V,11.0
V9,0.0,20.0,29.0,37.0,45.0,37,37.0,square3,r,1.196,2,V,9.0
V9,1.0,21.0,32.0,39.0,45.0,45,82.0,square4,f,0.233,3,V,9.0
V9,2.0,16.0,27.0,41.0,48.0,27,109.0,square2,i,0.419,1,V,9.0
V9,3.0,20.0,30.0,42.0,50.0,20,129.0,square1,j,0.113,0,V,9.0
V9,4.0,22.0,34.0,37.0,47.0,37,166.0,square3,r,0.025,2,V,9.0
V9,5.0,17.0,32.0,38.0,49.0,38,204.0,square3,r,0.135,2,V,9.0
V9,6.0,17.0,25.0,39.0,47.0,39,243.0,square3,r,0.031,2,V,9.0
V9,7.0,22.0,28.0,33.0,48.0,33,276.0,square3,r,0.069,2,V,9.0
V9,8.0,20.0,24.0,34.0,41.0,34,310.0,square3,r,0.514,2,V,9.0
V9,9.0,20.0,33.0,30.0,51.0,30,340.0,square3,r,0.108,2,V,9.0
V9,10.0,21.0,35.0,38.0,50.0,38,378.0,square3,r,0.384,2,V,9.0
V9,11.0,19.0,29.0,44.0,45.0,44,422.0,square3,r,0.032,2,V,9.0
V9,12.0,27.0,24.0,38.0,54.0,38,460.0,square3,r,0.197,2,V,9.0
V9,13.0,15.0,26.0,37.0,50.0,37,497.0,square3,r,0.067,2,V,9.0
V9,14.0,24.0,26.0,39.0,42.0,39,536.0,square3,r,0.013,2,V,9.0
V9,15.0,26.0,27.0,43.0,49.0,43,579.0,square3,r,0.0,2,V,9.0
V9,16.0,19.0,30.0,42.0,49.0,42,621.0,square3,r,0.213,2,V,9.0
V9,17.0,21.0,30.0,34.0,49.0,34,655.0,square3,r,0.122,2,V,9.0
V9,18.0,25.0,33.0,41.0,51.0,41,696.0,square3,r,0.109,2,V,9.0
V9,19.0,17.0,31.0,41.0,45.0,41,737.0,square3,r,0.088,2,V,9.0
V9,20.0,19.0,31.0,34.0,49.0,34,771.0,square3,r,0.075,2,V,9.0
V9,21.0,23.0,29.0,37.0,48.0,37,808.0,square3,r,0.101,2,V,9.0
V9,22.0,15.0,32.0,36.0,48.0,36,844.0,square3,r,0.135,2,V,9.0
V9,23.0,25.0,33.0,39.0,47.0,39,883.0,square3,r,0.046,2,V,9.0
V9,24.0,21.0,30.0,38.0,52.0,52,935.0,square4,f,0.218,3,V,9.0
V9,25.0,25.0,29.0,42.0,48.0,25,960.0,square1,j,0.28,0,V,9.0
V9,26.0,22.0,29.0,39.0,47.0,29,989.0,square2,i,0.329,1,V,9.0
V9,27.0,17.0,31.0,45.0,41.0,41,1030.0,square4,f,0.227,3,V,9.0
V9,28.0,29.0,28.0,43.0,43.0,43,1073.0,square4,f,0.175,3,V,9.0
V9,29.0,20.0,31.0,43.0,49.0,49,1122.0,square4,f,0.001,3,V,9.0
V9,30.0,23.0,33.0,39.0,48.0,48,1170.0,square4,f,0.032,3,V,9.0
V9,31.0,20.0,27.0,38.0,53.0,53,1223.0,square4,f,0.032,3,V,9.0
V9,32.0,23.0,29.0,37.0,49.0,49,1272.0,square4,f,0.011,3,V,9.0
V9,33.0,24.0,33.0,37.0,49.0,49,1321.0,square4,f,0.079,3,V,9.0
V9,34.0,43.0,58.0,48.0,30.0,30,1351.0,square4,f,0.08,3,V,9.0
V9,35.0,48.0,59.0,45.0,34.0,34,1385.0,square4,f,0.104,3,V,9.0
V9,36.0,39.0,56.0,54.0,32.0,39,1424.0,square1,j,0.2,0,V,9.0
V9,37.0,40.0,57.0,50.0,35.0,57,1481.0,square2,i,0.044,1,V,9.0
V9,38.0,49.0,62.0,51.0,33.0,62,1543.0,square2,i,0.203,1,V,9.0
V9,39.0,45.0,61.0,48.0,34.0,61,1604.0,square2,i,0.157,1,V,9.0
V9,40.0,40.0,65.0,51.0,29.0,65,1669.0,square2,i,0.054,1,V,9.0
V9,41.0,44.0,57.0,50.0,38.0,57,1726.0,square2,i,0.209,1,V,9.0
V9,42.0,40.0,57.0,49.0,33.0,57,1783.0,square2,i,0.06,1,V,9.0
V9,43.0,42.0,64.0,54.0,35.0,64,1847.0,square2,i,0.021,1,V,9.0
V9,44.0,44.0,55.0,49.0,39.0,55,1902.0,square2,i,0.061,1,V,9.0
V9,45.0,37.0,66.0,51.0,35.0,66,1968.0,square2,i,0.017,1,V,9.0
V9,46.0,40.0,59.0,51.0,32.0,59,2027.0,square2,i,0.014,1,V,9.0
V9,47.0,38.0,62.0,57.0,31.0,62,2089.0,square2,i,0.045,1,V,9.0
V9,48.0,43.0,61.0,54.0,34.0,61,2150.0,square2,i,0.111,1,V,9.0
V9,49.0,43.0,61.0,49.0,40.0,61,2211.0,square2,i,0.175,1,V,9.0
V9,50.0,37.0,58.0,51.0,32.0,58,2269.0,square2,i,0.075,1,V,9.0
V9,51.0,44.0,63.0,48.0,39.0,63,2332.0,square2,i,0.083,1,V,9.0
V9,52.0,35.0,65.0,48.0,30.0,65,2397.0,square2,i,0.082,1,V,9.0
V9,53.0,43.0,59.0,48.0,39.0,59,2456.0,square2,i,0.079,1,V,9.0
V9,54.0,43.0,59.0,52.0,30.0,59,2515.0,square2,i,0.085,1,V,9.0
V9,55.0,41.0,58.0,51.0,34.0,58,2573.0,square2,i,0.1,1,V,9.0
V9,56.0,44.0,63.0,50.0,33.0,63,2636.0,square2,i,0.077,1,V,9.0
V9,57.0,42.0,60.0,49.0,32.0,60,2696.0,square2,i,0.122,1,V,9.0
V9,58.0,44.0,62.0,57.0,30.0,62,2758.0,square2,i,0.132,1,V,9.0
V9,59.0,45.0,61.0,45.0,31.0,61,2819.0,square2,i,0.077,1,V,9.0
V9,60.0,43.0,63.0,53.0,33.0,63,2882.0,square2,i,0.092,1,V,9.0
V9,61.0,39.0,56.0,55.0,31.0,56,2938.0,square2,i,0.06,1,V,9.0
V9,62.0,39.0,61.0,50.0,34.0,50,2988.0,square3,r,0.182,2,V,9.0
V9,63.0,44.0,57.0,48.0,36.0,44,3032.0,square1,j,0.259,0,V,9.0
V9,64.0,40.0,60.0,58.0,35.0,35,3067.0,square4,f,0.017,3,V,9.0
V9,65.0,42.0,60.0,54.0,38.0,60,3127.0,square2,i,0.18,1,V,9.0
V9,66.0,41.0,60.0,54.0,37.0,60,3187.0,square2,i,0.034,1,V,9.0
V9,67.0,43.0,61.0,54.0,40.0,61,3248.0,square2,i,0.085,1,V,9.0
V9,68.0,45.0,40.0,26.0,18.0,40,3288.0,square2,i,0.083,1,V,9.0
V9,69.0,50.0,41.0,29.0,20.0,41,3329.0,square2,i,0.115,1,V,9.0
V9,70.0,43.0,36.0,27.0,15.0,27,3356.0,square3,r,0.022,2,V,9.0
V9,71.0,44.0,40.0,28.0,18.0,18,3374.0,square4,f,0.182,3,V,9.0
V9,72.0,42.0,38.0,27.0,18.0,42,3416.0,square1,j,0.533,0,V,9.0
V9,73.0,46.0,33.0,25.0,19.0,46,3462.0,square1,j,0.627,0,V,9.0
V9,74.0,47.0,40.0,28.0,20.0,40,3502.0,square2,i,0.018,1,V,9.0
V9,75.0,39.0,39.0,27.0,25.0,39,3541.0,square1,j,0.186,0,V,9.0
V9,76.0,50.0,31.0,29.0,23.0,50,3591.0,square1,j,0.108,0,V,9.0
V9,77.0,44.0,37.0,28.0,13.0,44,3635.0,square1,j,0.166,0,V,9.0
V9,78.0,43.0,36.0,23.0,17.0,43,3678.0,square1,j,0.013,0,V,9.0
V9,79.0,42.0,36.0,28.0,24.0,42,3720.0,square1,j,0.001,0,V,9.0
V9,80.0,47.0,35.0,30.0,14.0,47,3767.0,square1,j,0.186,0,V,9.0
V9,81.0,46.0,33.0,29.0,18.0,46,3813.0,square1,j,0.184,0,V,9.0
V9,82.0,46.0,35.0,28.0,18.0,46,3859.0,square1,j,0.07,0,V,9.0
V9,83.0,47.0,41.0,32.0,15.0,47,3906.0,square1,j,0.063,0,V,9.0
V9,84.0,45.0,38.0,31.0,18.0,45,3951.0,square1,j,0.076,0,V,9.0
V9,85.0,42.0,35.0,30.0,21.0,42,3993.0,square1,j,0.092,0,V,9.0
V9,86.0,49.0,39.0,23.0,18.0,49,4042.0,square1,j,0.111,0,V,9.0
V9,87.0,49.0,39.0,27.0,16.0,49,4091.0,square1,j,0.103,0,V,9.0
V9,88.0,45.0,38.0,25.0,14.0,45,4136.0,square1,j,0.086,0,V,9.0
V9,89.0,45.0,32.0,28.0,19.0,45,4181.0,square1,j,0.126,0,V,9.0
V9,90.0,44.0,35.0,29.0,20.0,44,4225.0,square1,j,0.262,0,V,9.0
V9,91.0,42.0,38.0,32.0,16.0,42,4267.0,square1,j,0.01,0,V,9.0
V9,92.0,45.0,36.0,23.0,20.0,45,4312.0,square1,j,0.029,0,V,9.0
V9,93.0,45.0,35.0,26.0,18.0,45,4357.0,square1,j,0.135,0,V,9.0
V9,94.0,44.0,37.0,27.0,13.0,44,4401.0,square1,j,0.121,0,V,9.0
V9,95.0,46.0,36.0,25.0,20.0,46,4447.0,square1,j,0.085,0,V,9.0
V9,96.0,43.0,39.0,27.0,16.0,43,4490.0,square1,j,0.076,0,V,9.0
V9,97.0,48.0,39.0,30.0,16.0,48,4538.0,square1,j,0.054,0,V,9.0
V9,98.0,49.0,40.0,26.0,20.0,49,4587.0,square1,j,0.076,0,V,9.0
V9,99.0,49.0,41.0,27.0,18.0,49,4636.0,square1,j,0.082,0,V,9.0
V2,0.0,33.0,24.0,43.0,18.0,18,18.0,square4,r,1.012,3,V,2.0
V2,1.0,33.0,29.0,42.0,21.0,29,47.0,square2,f,0.232,1,V,2.0
V2,2.0,37.0,26.0,45.0,22.0,45,92.0,square3,j,0.295,2,V,2.0
V2,3.0,39.0,26.0,41.0,20.0,39,131.0,square1,i,0.252,0,V,2.0
V2,4.0,29.0,32.0,45.0,19.0,45,176.0,square3,j,0.0,2,V,2.0
V2,5.0,33.0,28.0,44.0,17.0,44,220.0,square3,j,0.099,2,V,2.0
V2,6.0,32.0,24.0,49.0,20.0,49,269.0,square3,j,0.143,2,V,2.0
V2,7.0,32.0,21.0,42.0,13.0,42,311.0,square3,j,0.15,2,V,2.0
V2,8.0,35.0,23.0,45.0,19.0,45,356.0,square3,j,0.174,2,V,2.0
V2,9.0,33.0,28.0,46.0,17.0,46,402.0,square3,j,0.142,2,V,2.0
V2,10.0,39.0,27.0,45.0,21.0,45,447.0,square3,j,0.193,2,V,2.0
V2,11.0,30.0,23.0,44.0,22.0,44,491.0,square3,j,0.001,2,V,2.0
V2,12.0,31.0,26.0,43.0,16.0,43,534.0,square3,j,0.018,2,V,2.0
V2,13.0,35.0,26.0,43.0,22.0,43,577.0,square3,j,0.198,2,V,2.0
V2,14.0,35.0,29.0,46.0,19.0,46,623.0,square3,j,0.014,2,V,2.0
V2,15.0,36.0,22.0,44.0,20.0,44,667.0,square3,j,0.025,2,V,2.0
V2,16.0,33.0,27.0,45.0,19.0,45,712.0,square3,j,0.095,2,V,2.0
V2,17.0,35.0,25.0,41.0,15.0,41,753.0,square3,j,0.208,2,V,2.0
V2,18.0,37.0,27.0,51.0,21.0,51,804.0,square3,j,0.01,2,V,2.0
V2,19.0,33.0,25.0,43.0,18.0,43,847.0,square3,j,0.088,2,V,2.0
V2,20.0,39.0,25.0,43.0,20.0,43,890.0,square3,j,0.081,2,V,2.0
V2,21.0,27.0,32.0,43.0,24.0,32,922.0,square2,f,0.31,1,V,2.0
V2,22.0,35.0,27.0,50.0,13.0,13,935.0,square4,r,0.164,3,V,2.0
V2,23.0,36.0,25.0,39.0,17.0,36,971.0,square1,i,0.457,0,V,2.0
V2,24.0,32.0,45.0,39.0,59.0,39,1010.0,square3,j,0.21,2,V,2.0
V2,25.0,26.0,43.0,37.0,55.0,37,1047.0,square3,j,0.0,2,V,2.0
V2,26.0,23.0,45.0,39.0,58.0,39,1086.0,square3,j,0.187,2,V,2.0
V2,27.0,30.0,44.0,40.0,56.0,40,1126.0,square3,j,0.043,2,V,2.0
V2,28.0,34.0,48.0,41.0,54.0,41,1167.0,square3,j,0.161,2,V,2.0
V2,29.0,29.0,42.0,35.0,54.0,35,1202.0,square3,j,0.19,2,V,2.0
V2,30.0,22.0,39.0,39.0,55.0,39,1241.0,square3,j,0.012,2,V,2.0
V2,31.0,32.0,48.0,35.0,50.0,35,1276.0,square3,j,0.093,2,V,2.0
V2,32.0,27.0,47.0,40.0,58.0,40,1316.0,square3,j,0.027,2,V,2.0
V2,33.0,28.0,46.0,31.0,54.0,31,1347.0,square3,j,0.067,2,V,2.0
V2,34.0,28.0,44.0,41.0,49.0,41,1388.0,square3,j,0.092,2,V,2.0
V2,35.0,31.0,44.0,33.0,59.0,33,1421.0,square3,j,0.01,2,V,2.0
V2,36.0,29.0,48.0,30.0,55.0,30,1451.0,square3,j,0.064,2,V,2.0
V2,37.0,25.0,45.0,32.0,51.0,32,1483.0,square3,j,0.07,2,V,2.0
V2,38.0,29.0,48.0,33.0,54.0,33,1516.0,square3,j,0.16,2,V,2.0
V2,39.0,29.0,44.0,33.0,54.0,29,1545.0,square1,i,0.626,0,V,2.0
V2,40.0,33.0,42.0,37.0,61.0,61,1606.0,square4,r,0.012,3,V,2.0
V2,41.0,28.0,45.0,41.0,57.0,45,1651.0,square2,f,0.626,1,V,2.0
V2,42.0,33.0,46.0,36.0,54.0,54,1705.0,square4,r,0.19,3,V,2.0
V2,43.0,31.0,42.0,40.0,57.0,57,1762.0,square4,r,0.108,3,V,2.0
V2,44.0,27.0,45.0,38.0,56.0,56,1818.0,square4,r,0.025,3,V,2.0
V2,45.0,27.0,44.0,32.0,51.0,51,1869.0,square4,r,0.028,3,V,2.0
V2,46.0,28.0,44.0,39.0,57.0,57,1926.0,square4,r,0.065,3,V,2.0
V2,47.0,30.0,45.0,36.0,56.0,56,1982.0,square4,r,0.019,3,V,2.0
V2,48.0,31.0,47.0,41.0,59.0,59,2041.0,square4,r,0.07,3,V,2.0
V2,49.0,32.0,45.0,33.0,57.0,57,2098.0,square4,r,0.068,3,V,2.0
V2,50.0,24.0,38.0,36.0,52.0,52,2150.0,square4,r,0.084,3,V,2.0
V2,51.0,29.0,48.0,34.0,54.0,54,2204.0,square4,r,0.126,3,V,2.0
V2,52.0,30.0,50.0,38.0,56.0,56,2260.0,square4,r,0.084,3,V,2.0
V2,53.0,27.0,47.0,33.0,55.0,55,2315.0,square4,r,0.12,3,V,2.0
V2,54.0,34.0,21.0,45.0,25.0,25,2340.0,square4,r,0.13,3,V,2.0
V2,55.0,36.0,19.0,39.0,24.0,24,2364.0,square4,r,0.282,3,V,2.0
V2,56.0,29.0,19.0,45.0,18.0,19,2383.0,square2,f,0.37,1,V,2.0
V2,57.0,29.0,20.0,39.0,20.0,39,2422.0,square3,j,0.246,2,V,2.0
V2,58.0,40.0,18.0,42.0,21.0,40,2462.0,square1,i,0.425,0,V,2.0
V2,59.0,31.0,17.0,44.0,23.0,31,2493.0,square1,i,0.032,0,V,2.0
V2,60.0,31.0,19.0,42.0,20.0,31,2524.0,square1,i,0.0,0,V,2.0
V2,61.0,34.0,16.0,41.0,25.0,25,2549.0,square4,r,0.376,3,V,2.0
V2,62.0,28.0,12.0,41.0,22.0,28,2577.0,square1,i,0.019,0,V,2.0
V2,63.0,32.0,14.0,45.0,26.0,45,2622.0,square3,j,0.632,2,V,2.0
V2,64.0,36.0,21.0,41.0,25.0,41,2663.0,square3,j,0.136,2,V,2.0
V2,65.0,32.0,13.0,39.0,24.0,39,2702.0,square3,j,0.134,2,V,2.0
V2,66.0,35.0,15.0,42.0,20.0,42,2744.0,square3,j,0.11,2,V,2.0
V2,67.0,30.0,23.0,47.0,27.0,47,2791.0,square3,j,0.176,2,V,2.0
V2,68.0,31.0,17.0,43.0,24.0,43,2834.0,square3,j,0.0,2,V,2.0
V2,69.0,33.0,20.0,41.0,20.0,41,2875.0,square3,j,0.136,2,V,2.0
V2,70.0,37.0,17.0,43.0,21.0,43,2918.0,square3,j,0.1,2,V,2.0
V2,71.0,45.0,31.0,36.0,58.0,36,2954.0,square3,j,0.118,2,V,2.0
V2,72.0,47.0,31.0,31.0,54.0,31,2985.0,square3,j,0.127,2,V,2.0
V2,73.0,50.0,30.0,33.0,55.0,33,3018.0,square3,j,0.157,2,V,2.0
V2,74.0,45.0,31.0,36.0,51.0,36,3054.0,square3,j,0.139,2,V,2.0
V2,75.0,47.0,28.0,38.0,54.0,28,3082.0,square2,f,0.287,1,V,2.0
V2,76.0,52.0,33.0,35.0,60.0,60,3142.0,square4,r,0.132,3,V,2.0
V2,77.0,41.0,29.0,37.0,53.0,53,3195.0,square4,r,0.1,3,V,2.0
V2,78.0,51.0,24.0,34.0,56.0,56,3251.0,square4,r,0.129,3,V,2.0
V2,79.0,41.0,34.0,36.0,52.0,52,3303.0,square4,r,0.132,3,V,2.0
V2,80.0,48.0,31.0,37.0,51.0,51,3354.0,square4,r,0.001,3,V,2.0
V2,81.0,43.0,32.0,40.0,53.0,53,3407.0,square4,r,0.017,3,V,2.0
V2,82.0,48.0,25.0,37.0,58.0,58,3465.0,square4,r,0.132,3,V,2.0
V2,83.0,45.0,32.0,36.0,61.0,61,3526.0,square4,r,0.145,3,V,2.0
V2,84.0,47.0,29.0,39.0,60.0,60,3586.0,square4,r,0.229,3,V,2.0
V2,85.0,49.0,30.0,39.0,54.0,54,3640.0,square4,r,0.147,3,V,2.0
V2,86.0,46.0,28.0,33.0,51.0,51,3691.0,square4,r,0.15,3,V,2.0
V2,87.0,45.0,24.0,37.0,55.0,55,3746.0,square4,r,0.204,3,V,2.0
V2,88.0,48.0,29.0,42.0,54.0,54,3800.0,square4,r,0.122,3,V,2.0
V2,89.0,43.0,31.0,38.0,52.0,52,3852.0,square4,r,0.168,3,V,2.0
V2,90.0,51.0,33.0,36.0,56.0,56,3908.0,square4,r,0.156,3,V,2.0
V2,91.0,49.0,32.0,37.0,59.0,59,3967.0,square4,r,0.235,3,V,2.0
V2,92.0,47.0,29.0,37.0,56.0,56,4023.0,square4,r,0.189,3,V,2.0
V2,93.0,45.0,27.0,35.0,56.0,56,4079.0,square4,r,0.001,3,V,2.0
V2,94.0,45.0,31.0,31.0,49.0,49,4128.0,square4,r,0.195,3,V,2.0
V2,95.0,47.0,33.0,36.0,52.0,52,4180.0,square4,r,0.104,3,V,2.0
V2,96.0,44.0,28.0,37.0,59.0,59,4239.0,square4,r,0.111,3,V,2.0
V2,97.0,48.0,28.0,33.0,55.0,55,4294.0,square4,r,0.076,3,V,2.0
V2,98.0,49.0,29.0,39.0,60.0,60,4354.0,square4,r,0.143,3,V,2.0
V2,99.0,44.0,30.0,36.0,50.0,50,4404.0,square4,r,0.295,3,V,2.0
S4,0.0,18.0,16.0,34.0,20.0,18,18.0,square1,r,1.438,0,S,4.0
S4,1.0,33.0,26.0,26.0,23.0,26,44.0,square3,f,0.175,2,S,4.0
S4,2.0,35.0,15.0,33.0,22.0,22,66.0,square4,j,0.446,3,S,4.0
S4,3.0,28.0,19.0,27.0,27.0,19,85.0,square2,i,0.213,1,S,4.0
S4,4.0,27.0,16.0,25.0,28.0,25,110.0,square3,f,0.222,2,S,4.0
S4,5.0,23.0,22.0,31.0,24.0,31,141.0,square3,f,0.001,2,S,4.0
S4,6.0,25.0,20.0,34.0,23.0,34,175.0,square3,f,0.049,2,S,4.0
S4,7.0,21.0,22.0,30.0,21.0,30,205.0,square3,f,0.128,2,S,4.0
S4,8.0,33.0,24.0,33.0,17.0,33,238.0,square3,f,0.078,2,S,4.0
S4,9.0,24.0,18.0,31.0,28.0,31,269.0,square3,f,0.002,2,S,4.0
S4,10.0,31.0,26.0,35.0,20.0,35,304.0,square3,f,0.006,2,S,4.0
S4,11.0,25.0,15.0,31.0,25.0,31,335.0,square3,f,0.068,2,S,4.0
S4,12.0,24.0,16.0,29.0,22.0,29,364.0,square3,f,0.111,2,S,4.0
S4,13.0,28.0,23.0,25.0,17.0,25,389.0,square3,f,0.153,2,S,4.0
S4,14.0,22.0,23.0,21.0,23.0,22,411.0,square1,r,0.237,0,S,4.0
S4,15.0,25.0,19.0,28.0,25.0,25,436.0,square4,j,0.013,3,S,4.0
S4,16.0,26.0,17.0,30.0,21.0,17,453.0,square2,i,0.023,1,S,4.0
S4,17.0,22.0,21.0,29.0,22.0,29,482.0,square3,f,0.181,2,S,4.0
S4,18.0,28.0,22.0,32.0,22.0,32,514.0,square3,f,0.196,2,S,4.0
S4,19.0,26.0,19.0,31.0,26.0,31,545.0,square3,f,0.161,2,S,4.0
S4,20.0,28.0,18.0,28.0,25.0,28,573.0,square3,f,0.175,2,S,4.0
S4,21.0,33.0,26.0,21.0,29.0,21,594.0,square3,f,0.044,2,S,4.0
S4,22.0,31.0,19.0,29.0,20.0,29,623.0,square3,f,0.058,2,S,4.0
S4,23.0,27.0,21.0,36.0,26.0,36,659.0,square3,f,0.227,2,S,4.0
S4,24.0,28.0,15.0,32.0,21.0,32,691.0,square3,f,0.107,2,S,4.0
S4,25.0,27.0,18.0,28.0,25.0,28,719.0,square3,f,0.027,2,S,4.0
S4,26.0,26.0,20.0,27.0,14.0,27,746.0,square3,f,0.009,2,S,4.0
S4,27.0,28.0,19.0,36.0,18.0,36,782.0,square3,f,0.042,2,S,4.0
S4,28.0,28.0,19.0,28.0,23.0,28,810.0,square3,f,0.01,2,S,4.0
S4,29.0,25.0,22.0,29.0,23.0,29,839.0,square3,f,0.051,2,S,4.0
S4,30.0,26.0,16.0,30.0,20.0,30,869.0,square3,f,0.075,2,S,4.0
S4,31.0,23.0,25.0,26.0,30.0,26,895.0,square3,f,0.074,2,S,4.0
S4,32.0,21.0,26.0,22.0,23.0,22,917.0,square3,f,0.041,2,S,4.0
S4,33.0,25.0,22.0,24.0,17.0,24,941.0,square3,f,0.053,2,S,4.0
S4,34.0,30.0,22.0,33.0,24.0,24,965.0,square4,j,0.325,3,S,4.0
S4,35.0,23.0,21.0,35.0,26.0,21,986.0,square2,i,0.502,1,S,4.0
S4,36.0,19.0,21.0,33.0,24.0,99999,986.0,invalid,,,-1,S,4.0
S4,37.0,20.0,17.0,26.0,26.0,20,1006.0,square1,r,0.215,0,S,4.0
S4,38.0,28.0,20.0,28.0,26.0,28,1034.0,square3,f,0.509,2,S,4.0
S4,39.0,28.0,23.0,40.0,27.0,27,1061.0,square4,j,0.025,3,S,4.0
S4,40.0,25.0,24.0,32.0,22.0,32,1093.0,square3,f,0.243,2,S,4.0
S4,41.0,23.0,23.0,26.0,17.0,26,1119.0,square3,f,0.081,2,S,4.0
S4,42.0,26.0,18.0,33.0,22.0,33,1152.0,square3,f,0.04,2,S,4.0
S4,43.0,22.0,21.0,36.0,25.0,36,1188.0,square3,f,0.01,2,S,4.0
S4,44.0,21.0,18.0,33.0,14.0,33,1221.0,square3,f,0.208,2,S,4.0
S4,45.0,29.0,19.0,30.0,29.0,30,1251.0,square3,f,0.081,2,S,4.0
S4,46.0,21.0,16.0,22.0,23.0,22,1273.0,square3,f,0.108,2,S,4.0
S4,47.0,22.0,18.0,28.0,22.0,28,1301.0,square3,f,0.092,2,S,4.0
S4,48.0,33.0,21.0,32.0,26.0,32,1333.0,square3,f,0.093,2,S,4.0
S4,49.0,23.0,17.0,20.0,21.0,20,1353.0,square3,f,0.047,2,S,4.0
S8,0.0,58.0,60.0,52.0,45.0,52,52.0,square3,r,0.811,2,S,8.0
S8,1.0,55.0,57.0,56.0,52.0,52,104.0,square4,f,0.409,3,S,8.0
S8,2.0,54.0,58.0,58.0,49.0,58,162.0,square2,j,0.225,1,S,8.0
S8,3.0,55.0,62.0,52.0,53.0,55,217.0,square1,i,0.229,0,S,8.0
S8,4.0,55.0,60.0,49.0,51.0,60,277.0,square2,j,0.134,1,S,8.0
S8,5.0,48.0,63.0,61.0,49.0,63,340.0,square2,j,0.192,1,S,8.0
S8,6.0,58.0,63.0,59.0,55.0,63,403.0,square2,j,0.112,1,S,8.0
S8,7.0,56.0,53.0,49.0,51.0,53,456.0,square2,j,0.092,1,S,8.0
S8,8.0,61.0,63.0,66.0,49.0,63,519.0,square2,j,0.101,1,S,8.0
S8,9.0,60.0,59.0,53.0,47.0,59,578.0,square2,j,0.092,1,S,8.0
S8,10.0,55.0,63.0,52.0,55.0,63,641.0,square2,j,0.099,1,S,8.0
S8,11.0,62.0,60.0,54.0,50.0,60,701.0,square2,j,0.104,1,S,8.0
S8,12.0,58.0,64.0,51.0,52.0,64,765.0,square2,j,0.141,1,S,8.0
S8,13.0,62.0,59.0,53.0,53.0,59,824.0,square2,j,0.297,1,S,8.0
S8,14.0,51.0,62.0,61.0,54.0,62,886.0,square2,j,0.016,1,S,8.0
S8,15.0,56.0,68.0,56.0,50.0,68,954.0,square2,j,0.03,1,S,8.0
S8,16.0,58.0,64.0,56.0,50.0,64,1018.0,square2,j,0.058,1,S,8.0
S8,17.0,64.0,63.0,60.0,42.0,63,1081.0,square2,j,0.034,1,S,8.0
S8,18.0,54.0,64.0,57.0,55.0,64,1145.0,square2,j,0.14,1,S,8.0
S8,19.0,56.0,53.0,57.0,53.0,53,1198.0,square2,j,0.128,1,S,8.0
S8,20.0,59.0,64.0,56.0,49.0,64,1262.0,square2,j,0.117,1,S,8.0
S8,21.0,54.0,59.0,55.0,48.0,59,1321.0,square2,j,0.059,1,S,8.0
S8,22.0,63.0,63.0,59.0,49.0,63,1384.0,square2,j,0.03,1,S,8.0
S8,23.0,59.0,60.0,48.0,52.0,60,1444.0,square2,j,0.125,1,S,8.0
S8,24.0,55.0,53.0,60.0,50.0,53,1497.0,square2,j,0.034,1,S,8.0
S8,25.0,57.0,60.0,55.0,54.0,60,1557.0,square2,j,0.182,1,S,8.0
S8,26.0,62.0,66.0,57.0,58.0,66,1623.0,square2,j,0.033,1,S,8.0
S8,27.0,58.0,55.0,52.0,48.0,55,1678.0,square2,j,0.031,1,S,8.0
S8,28.0,53.0,59.0,53.0,55.0,59,1737.0,square2,j,0.042,1,S,8.0
S8,29.0,60.0,58.0,57.0,53.0,58,1795.0,square2,j,0.188,1,S,8.0
S8,30.0,57.0,67.0,52.0,56.0,67,1862.0,square2,j,0.126,1,S,8.0
S8,31.0,60.0,58.0,52.0,50.0,58,1920.0,square2,j,0.101,1,S,8.0
S8,32.0,54.0,61.0,56.0,57.0,61,1981.0,square2,j,0.025,1,S,8.0
S8,33.0,66.0,64.0,63.0,52.0,64,2045.0,square2,j,0.175,1,S,8.0
S8,34.0,54.0,65.0,66.0,56.0,65,2110.0,square2,j,0.03,1,S,8.0
S8,35.0,54.0,62.0,61.0,48.0,62,2172.0,square2,j,0.042,1,S,8.0
S8,36.0,53.0,63.0,54.0,55.0,63,2235.0,square2,j,0.029,1,S,8.0
S8,37.0,64.0,58.0,57.0,51.0,58,2293.0,square2,j,0.025,1,S,8.0
S8,38.0,68.0,65.0,59.0,57.0,65,2358.0,square2,j,0.023,1,S,8.0
S8,39.0,64.0,65.0,51.0,55.0,65,2423.0,square2,j,0.074,1,S,8.0
S8,40.0,63.0,61.0,57.0,47.0,61,2484.0,square2,j,0.204,1,S,8.0
S8,41.0,65.0,58.0,55.0,49.0,58,2542.0,square2,j,0.143,1,S,8.0
S8,42.0,52.0,60.0,51.0,56.0,60,2602.0,square2,j,0.05,1,S,8.0
S8,43.0,63.0,57.0,48.0,50.0,57,2659.0,square2,j,0.075,1,S,8.0
S8,44.0,59.0,63.0,53.0,53.0,63,2722.0,square2,j,0.065,1,S,8.0
S8,45.0,62.0,62.0,60.0,53.0,62,2784.0,square2,j,0.02,1,S,8.0
S8,46.0,56.0,62.0,57.0,60.0,62,2846.0,square2,j,0.057,1,S,8.0
S8,47.0,60.0,63.0,58.0,56.0,63,2909.0,square2,j,0.021,1,S,8.0
S8,48.0,59.0,63.0,49.0,53.0,63,2972.0,square2,j,0.0,1,S,8.0
S8,49.0,67.0,67.0,59.0,55.0,67,3039.0,square2,j,0.079,1,S,8.0
S12,0.0,38.0,42.0,30.0,42.0,38,38.0,square1,r,1.017,0,S,12.0
S12,1.0,30.0,42.0,28.0,37.0,28,66.0,square3,f,0.286,2,S,12.0
S12,2.0,34.0,41.0,38.0,43.0,43,109.0,square4,j,0.309,3,S,12.0
S12,3.0,38.0,51.0,38.0,38.0,51,160.0,square2,i,0.202,1,S,12.0
S12,4.0,32.0,37.0,33.0,45.0,37,197.0,square2,i,0.163,1,S,12.0
S12,5.0,38.0,52.0,36.0,35.0,52,249.0,square2,i,0.143,1,S,12.0
S12,6.0,30.0,43.0,30.0,38.0,43,292.0,square2,i,0.028,1,S,12.0
S12,7.0,38.0,39.0,30.0,39.0,39,331.0,square2,i,0.174,1,S,12.0
S12,8.0,37.0,49.0,35.0,38.0,49,380.0,square2,i,0.181,1,S,12.0
S12,9.0,37.0,44.0,29.0,38.0,44,424.0,square2,i,0.187,1,S,12.0
S12,10.0,35.0,42.0,30.0,45.0,42,466.0,square2,i,0.001,1,S,12.0
S12,11.0,34.0,45.0,36.0,32.0,45,511.0,square2,i,0.162,1,S,12.0
S12,12.0,33.0,45.0,35.0,42.0,45,556.0,square2,i,0.16,1,S,12.0
S12,13.0,36.0,36.0,29.0,40.0,36,592.0,square2,i,0.076,1,S,12.0
S12,14.0,36.0,49.0,32.0,42.0,49,641.0,square2,i,0.109,1,S,12.0
S12,15.0,35.0,43.0,35.0,46.0,43,684.0,square2,i,0.117,1,S,12.0
S12,16.0,39.0,48.0,41.0,43.0,48,732.0,square2,i,0.186,1,S,12.0
S12,17.0,35.0,47.0,27.0,38.0,47,779.0,square2,i,0.001,1,S,12.0
S12,18.0,37.0,51.0,33.0,33.0,51,830.0,square2,i,0.168,1,S,12.0
S12,19.0,41.0,42.0,33.0,36.0,42,872.0,square2,i,0.144,1,S,12.0
S12,20.0,34.0,44.0,26.0,41.0,44,916.0,square2,i,0.183,1,S,12.0
S12,21.0,35.0,37.0,29.0,35.0,37,953.0,square2,i,0.0,1,S,12.0
S12,22.0,37.0,48.0,31.0,41.0,48,1001.0,square2,i,0.026,1,S,12.0
S12,23.0,36.0,43.0,27.0,45.0,43,1044.0,square2,i,0.009,1,S,12.0
S12,24.0,39.0,48.0,38.0,38.0,48,1092.0,square2,i,0.017,1,S,12.0
S12,25.0,31.0,43.0,30.0,40.0,43,1135.0,square2,i,0.054,1,S,12.0
S12,26.0,35.0,48.0,34.0,33.0,48,1183.0,square2,i,0.054,1,S,12.0
S12,27.0,46.0,46.0,28.0,38.0,46,1229.0,square2,i,0.025,1,S,12.0
S12,28.0,32.0,37.0,32.0,40.0,37,1266.0,square2,i,0.004,1,S,12.0
S12,29.0,38.0,41.0,32.0,44.0,41,1307.0,square2,i,0.008,1,S,12.0
S12,30.0,32.0,48.0,29.0,42.0,48,1355.0,square2,i,0.057,1,S,12.0
S12,31.0,34.0,46.0,30.0,42.0,46,1401.0,square2,i,0.109,1,S,12.0
S12,32.0,39.0,43.0,41.0,40.0,43,1444.0,square2,i,0.074,1,S,12.0
S12,33.0,36.0,47.0,33.0,46.0,47,1491.0,square2,i,0.023,1,S,12.0
S12,34.0,36.0,41.0,34.0,41.0,41,1532.0,square2,i,0.086,1,S,12.0
S12,35.0,34.0,42.0,31.0,43.0,42,1574.0,square2,i,0.026,1,S,12.0
S12,36.0,39.0,43.0,26.0,33.0,43,1617.0,square2,i,0.034,1,S,12.0
S12,37.0,39.0,49.0,30.0,42.0,49,1666.0,square2,i,0.049,1,S,12.0
S12,38.0,33.0,47.0,36.0,41.0,47,1713.0,square2,i,0.059,1,S,12.0
S12,39.0,29.0,46.0,35.0,36.0,46,1759.0,square2,i,0.031,1,S,12.0
S12,40.0,39.0,39.0,29.0,36.0,39,1798.0,square2,i,0.045,1,S,12.0
S12,41.0,33.0,44.0,31.0,40.0,44,1842.0,square2,i,0.041,1,S,12.0
S12,42.0,34.0,46.0,25.0,37.0,46,1888.0,square2,i,0.044,1,S,12.0
S12,43.0,37.0,42.0,30.0,42.0,42,1930.0,square2,i,0.074,1,S,12.0
S12,44.0,33.0,49.0,36.0,39.0,49,1979.0,square2,i,0.063,1,S,12.0
S12,45.0,35.0,40.0,30.0,47.0,40,2019.0,square2,i,0.064,1,S,12.0
S12,46.0,40.0,41.0,29.0,35.0,41,2060.0,square2,i,0.05,1,S,12.0
S12,47.0,32.0,42.0,28.0,43.0,42,2102.0,square2,i,0.08,1,S,12.0
S12,48.0,43.0,47.0,31.0,38.0,47,2149.0,square2,i,0.001,1,S,12.0
S12,49.0,37.0,41.0,35.0,40.0,41,2190.0,square2,i,0.01,1,S,12.0
S5,0.0,90.0,70.0,79.0,84.0,84,84.0,square4,r,1.051,3,S,5.0
S5,1.0,92.0,77.0,83.0,81.0,77,161.0,square2,f,0.058,1,S,5.0
S5,2.0,83.0,72.0,81.0,76.0,83,244.0,square1,i,0.047,0,S,5.0
S5,3.0,87.0,72.0,79.0,81.0,79,323.0,square3,j,0.203,2,S,5.0
S5,4.0,86.0,81.0,78.0,72.0,72,395.0,square4,r,0.075,3,S,5.0
S5,5.0,89.0,70.0,79.0,83.0,83,478.0,square4,r,0.083,3,S,5.0
S5,6.0,86.0,69.0,81.0,81.0,81,559.0,square4,r,0.149,3,S,5.0
S5,7.0,82.0,72.0,86.0,80.0,80,639.0,square4,r,0.191,3,S,5.0
S5,8.0,84.0,67.0,80.0,77.0,67,706.0,square2,f,0.315,1,S,5.0
S5,9.0,92.0,80.0,86.0,84.0,92,798.0,square1,i,0.107,0,S,5.0
S5,10.0,82.0,71.0,80.0,80.0,80,878.0,square3,j,0.449,2,S,5.0
S5,11.0,80.0,75.0,79.0,75.0,80,958.0,square1,i,0.019,0,S,5.0
S5,12.0,84.0,75.0,80.0,82.0,84,1042.0,square1,i,0.131,0,S,5.0
S5,13.0,85.0,74.0,74.0,81.0,85,1127.0,square1,i,0.175,0,S,5.0
S5,14.0,81.0,79.0,85.0,81.0,81,1208.0,square1,i,0.009,0,S,5.0
S5,15.0,81.0,75.0,76.0,77.0,81,1289.0,square1,i,0.001,0,S,5.0
S5,16.0,86.0,74.0,78.0,74.0,86,1375.0,square1,i,0.026,0,S,5.0
S5,17.0,81.0,77.0,81.0,77.0,81,1456.0,square1,i,0.001,0,S,5.0
S5,18.0,87.0,70.0,84.0,82.0,87,1543.0,square1,i,0.026,0,S,5.0
S5,19.0,84.0,76.0,83.0,76.0,84,1627.0,square1,i,0.043,0,S,5.0
S5,20.0,79.0,78.0,82.0,76.0,79,1706.0,square1,i,0.011,0,S,5.0
S5,21.0,86.0,68.0,80.0,72.0,86,1792.0,square1,i,0.07,0,S,5.0
S5,22.0,93.0,80.0,85.0,84.0,93,1885.0,square1,i,0.03,0,S,5.0
S5,23.0,87.0,73.0,76.0,70.0,87,1972.0,square1,i,0.041,0,S,5.0
S5,24.0,85.0,69.0,81.0,78.0,85,2057.0,square1,i,0.009,0,S,5.0
S5,25.0,89.0,77.0,77.0,76.0,89,2146.0,square1,i,0.189,0,S,5.0
S5,26.0,84.0,71.0,81.0,75.0,84,2230.0,square1,i,0.0,0,S,5.0
S5,27.0,84.0,75.0,82.0,71.0,84,2314.0,square1,i,0.0,0,S,5.0
S5,28.0,83.0,72.0,82.0,78.0,83,2397.0,square1,i,0.201,0,S,5.0
S5,29.0,91.0,67.0,79.0,74.0,91,2488.0,square1,i,0.009,0,S,5.0
S5,30.0,82.0,69.0,81.0,77.0,82,2570.0,square1,i,0.076,0,S,5.0
S5,31.0,82.0,72.0,80.0,78.0,82,2652.0,square1,i,0.06,0,S,5.0
S5,32.0,83.0,73.0,91.0,80.0,83,2735.0,square1,i,0.047,0,S,5.0
S5,33.0,83.0,68.0,85.0,78.0,83,2818.0,square1,i,0.067,0,S,5.0
S5,34.0,89.0,79.0,83.0,77.0,89,2907.0,square1,i,0.065,0,S,5.0
S5,35.0,88.0,72.0,79.0,80.0,88,2995.0,square1,i,0.064,0,S,5.0
S5,36.0,90.0,74.0,84.0,76.0,90,3085.0,square1,i,0.087,0,S,5.0
S5,37.0,85.0,75.0,80.0,82.0,85,3170.0,square1,i,0.077,0,S,5.0
S5,38.0,78.0,74.0,85.0,79.0,78,3248.0,square1,i,0.085,0,S,5.0
S5,39.0,87.0,73.0,87.0,85.0,87,3335.0,square1,i,0.08,0,S,5.0
S5,40.0,83.0,67.0,81.0,80.0,83,3418.0,square1,i,0.054,0,S,5.0
S5,41.0,82.0,69.0,88.0,80.0,82,3500.0,square1,i,0.158,0,S,5.0
S5,42.0,85.0,78.0,91.0,80.0,85,3585.0,square1,i,0.101,0,S,5.0
S5,43.0,89.0,74.0,78.0,74.0,89,3674.0,square1,i,0.11,0,S,5.0
S5,44.0,90.0,74.0,77.0,85.0,90,3764.0,square1,i,0.07,0,S,5.0
S5,45.0,89.0,68.0,81.0,78.0,89,3853.0,square1,i,0.055,0,S,5.0
S5,46.0,86.0,70.0,86.0,68.0,86,3939.0,square1,i,0.041,0,S,5.0
S5,47.0,90.0,77.0,85.0,84.0,90,4029.0,square1,i,0.053,0,S,5.0
S5,48.0,76.0,66.0,82.0,79.0,76,4105.0,square1,i,0.036,0,S,5.0
S5,49.0,84.0,73.0,82.0,75.0,84,4189.0,square1,i,0.076,0,S,5.0
S2,0.0,62.0,57.0,71.0,74.0,62,62.0,square1,r,0.883,0,S,2.0
S2,1.0,64.0,59.0,72.0,67.0,67,129.0,square4,f,0.076,3,S,2.0
S2,2.0,68.0,57.0,75.0,68.0,75,204.0,square3,i,0.215,2,S,2.0
S2,3.0,69.0,57.0,80.0,70.0,57,261.0,square2,j,0.142,1,S,2.0
S2,4.0,66.0,60.0,74.0,68.0,74,335.0,square3,i,0.093,2,S,2.0
S2,5.0,63.0,62.0,77.0,72.0,77,412.0,square3,i,0.086,2,S,2.0
S2,6.0,69.0,61.0,75.0,74.0,75,487.0,square3,i,0.11,2,S,2.0
S2,7.0,74.0,66.0,79.0,72.0,79,566.0,square3,i,0.001,2,S,2.0
S2,8.0,81.0,65.0,76.0,72.0,76,642.0,square3,i,0.051,2,S,2.0
S2,9.0,70.0,66.0,78.0,70.0,78,720.0,square3,i,0.008,2,S,2.0
S2,10.0,70.0,72.0,70.0,74.0,70,790.0,square3,i,0.0,2,S,2.0
S2,11.0,64.0,66.0,72.0,67.0,72,862.0,square3,i,0.031,2,S,2.0
S2,12.0,66.0,57.0,70.0,67.0,70,932.0,square3,i,0.0,2,S,2.0
S2,13.0,68.0,68.0,71.0,73.0,71,1003.0,square3,i,0.001,2,S,2.0
S2,14.0,70.0,63.0,77.0,71.0,77,1080.0,square3,i,0.008,2,S,2.0
S2,15.0,64.0,66.0,75.0,66.0,75,1155.0,square3,i,0.066,2,S,2.0
S2,16.0,67.0,61.0,73.0,70.0,73,1228.0,square3,i,0.031,2,S,2.0
S2,17.0,65.0,58.0,71.0,75.0,71,1299.0,square3,i,0.053,2,S,2.0
S2,18.0,72.0,64.0,81.0,61.0,81,1380.0,square3,i,0.035,2,S,2.0
S2,19.0,60.0,63.0,72.0,65.0,72,1452.0,square3,i,0.033,2,S,2.0
S2,20.0,68.0,56.0,71.0,70.0,71,1523.0,square3,i,0.006,2,S,2.0
S2,21.0,65.0,65.0,74.0,71.0,74,1597.0,square3,i,0.036,2,S,2.0
S2,22.0,69.0,62.0,77.0,72.0,77,1674.0,square3,i,0.029,2,S,2.0
S2,23.0,64.0,71.0,74.0,65.0,74,1748.0,square3,i,0.017,2,S,2.0
S2,24.0,66.0,62.0,78.0,70.0,78,1826.0,square3,i,0.05,2,S,2.0
S2,25.0,67.0,69.0,76.0,66.0,76,1902.0,square3,i,0.032,2,S,2.0
S2,26.0,65.0,63.0,74.0,69.0,74,1976.0,square3,i,0.041,2,S,2.0
S2,27.0,68.0,64.0,67.0,68.0,67,2043.0,square3,i,0.033,2,S,2.0
S2,28.0,61.0,52.0,71.0,68.0,71,2114.0,square3,i,0.026,2,S,2.0
S2,29.0,67.0,64.0,73.0,69.0,73,2187.0,square3,i,0.029,2,S,2.0
S2,30.0,67.0,53.0,77.0,67.0,77,2264.0,square3,i,0.061,2,S,2.0
S2,31.0,67.0,69.0,69.0,68.0,69,2333.0,square3,i,0.059,2,S,2.0
S2,32.0,71.0,63.0,73.0,70.0,73,2406.0,square3,i,0.093,2,S,2.0
S2,33.0,61.0,65.0,68.0,71.0,68,2474.0,square3,i,0.083,2,S,2.0
S2,34.0,66.0,55.0,78.0,68.0,78,2552.0,square3,i,0.068,2,S,2.0
S2,35.0,60.0,57.0,66.0,66.0,66,2618.0,square3,i,0.069,2,S,2.0
S2,36.0,64.0,63.0,73.0,72.0,73,2691.0,square3,i,0.092,2,S,2.0
S2,37.0,65.0,62.0,75.0,68.0,75,2766.0,square3,i,0.063,2,S,2.0
S2,38.0,69.0,57.0,71.0,62.0,71,2837.0,square3,i,0.063,2,S,2.0
S2,39.0,72.0,66.0,74.0,74.0,74,2911.0,square3,i,0.083,2,S,2.0
S2,40.0,66.0,63.0,76.0,59.0,76,2987.0,square3,i,0.109,2,S,2.0
S2,41.0,74.0,64.0,67.0,76.0,67,3054.0,square3,i,0.095,2,S,2.0
S2,42.0,62.0,67.0,72.0,68.0,72,3126.0,square3,i,0.076,2,S,2.0
S2,43.0,69.0,63.0,75.0,71.0,75,3201.0,square3,i,0.098,2,S,2.0
S2,44.0,72.0,60.0,74.0,67.0,74,3275.0,square3,i,0.054,2,S,2.0
S2,45.0,69.0,63.0,76.0,73.0,76,3351.0,square3,i,0.094,2,S,2.0
S2,46.0,64.0,71.0,75.0,72.0,75,3426.0,square3,i,0.051,2,S,2.0
S2,47.0,75.0,62.0,75.0,69.0,75,3501.0,square3,i,0.115,2,S,2.0
S2,48.0,66.0,65.0,74.0,68.0,74,3575.0,square3,i,0.102,2,S,2.0
S2,49.0,67.0,64.0,72.0,76.0,72,3647.0,square3,i,0.088,2,S,2.0
S3,0.0,38.0,48.0,42.0,57.0,57,57.0,square4,r,0.804,3,S,3.0
S3,1.0,29.0,43.0,51.0,57.0,43,100.0,square2,f,0.209,1,S,3.0
S3,2.0,41.0,49.0,46.0,49.0,41,141.0,square1,i,0.244,0,S,3.0
S3,3.0,44.0,50.0,45.0,52.0,45,186.0,square3,j,0.151,2,S,3.0
S3,4.0,37.0,51.0,45.0,58.0,58,244.0,square4,r,0.241,3,S,3.0
S3,5.0,47.0,43.0,42.0,49.0,49,293.0,square4,r,0.001,3,S,3.0
S3,6.0,44.0,53.0,51.0,58.0,58,351.0,square4,r,0.025,3,S,3.0
S3,7.0,39.0,47.0,46.0,54.0,54,405.0,square4,r,0.107,3,S,3.0
S3,8.0,43.0,53.0,41.0,52.0,52,457.0,square4,r,0.174,3,S,3.0
S3,9.0,42.0,46.0,41.0,53.0,53,510.0,square4,r,0.176,3,S,3.0
S3,10.0,37.0,49.0,49.0,55.0,55,565.0,square4,r,0.029,3,S,3.0
S3,11.0,40.0,47.0,36.0,59.0,59,624.0,square4,r,0.029,3,S,3.0
S3,12.0,46.0,51.0,39.0,56.0,56,680.0,square4,r,0.011,3,S,3.0
S3,13.0,39.0,48.0,45.0,57.0,57,737.0,square4,r,0.042,3,S,3.0
S3,14.0,39.0,55.0,43.0,47.0,47,784.0,square4,r,0.0,3,S,3.0
S3,15.0,46.0,46.0,47.0,52.0,52,836.0,square4,r,0.202,3,S,3.0
S3,16.0,42.0,49.0,50.0,55.0,55,891.0,square4,r,0.003,3,S,3.0
S3,17.0,45.0,45.0,56.0,47.0,47,938.0,square4,r,0.027,3,S,3.0
S3,18.0,46.0,43.0,45.0,50.0,50,988.0,square4,r,0.025,3,S,3.0
S3,19.0,41.0,47.0,50.0,55.0,55,1043.0,square4,r,0.013,3,S,3.0
S3,20.0,45.0,52.0,49.0,52.0,52,1095.0,square4,r,0.049,3,S,3.0
S3,21.0,40.0,43.0,47.0,46.0,46,1141.0,square4,r,0.079,3,S,3.0
S3,22.0,45.0,46.0,44.0,47.0,47,1188.0,square4,r,0.055,3,S,3.0
S3,23.0,36.0,50.0,42.0,46.0,46,1234.0,square4,r,0.056,3,S,3.0
S3,24.0,42.0,54.0,49.0,55.0,55,1289.0,square4,r,0.064,3,S,3.0
S3,25.0,43.0,51.0,44.0,54.0,54,1343.0,square4,r,0.047,3,S,3.0
S3,26.0,49.0,50.0,52.0,52.0,52,1395.0,square4,r,0.024,3,S,3.0
S3,27.0,47.0,52.0,44.0,50.0,50,1445.0,square4,r,0.026,3,S,3.0
S3,28.0,37.0,48.0,40.0,47.0,47,1492.0,square4,r,0.052,3,S,3.0
S3,29.0,50.0,43.0,50.0,57.0,57,1549.0,square4,r,0.143,3,S,3.0
S3,30.0,50.0,50.0,46.0,47.0,47,1596.0,square4,r,0.197,3,S,3.0
S3,31.0,37.0,53.0,49.0,56.0,56,1652.0,square4,r,0.196,3,S,3.0
S3,32.0,42.0,50.0,43.0,58.0,58,1710.0,square4,r,0.07,3,S,3.0
S3,33.0,44.0,49.0,46.0,59.0,59,1769.0,square4,r,0.047,3,S,3.0
S3,34.0,42.0,50.0,50.0,58.0,58,1827.0,square4,r,0.082,3,S,3.0
S3,35.0,43.0,46.0,45.0,50.0,50,1877.0,square4,r,0.07,3,S,3.0
S3,36.0,46.0,52.0,50.0,48.0,48,1925.0,square4,r,0.06,3,S,3.0
S3,37.0,48.0,50.0,49.0,52.0,52,1977.0,square4,r,0.115,3,S,3.0
S3,38.0,39.0,43.0,50.0,55.0,55,2032.0,square4,r,0.133,3,S,3.0
S3,39.0,50.0,53.0,46.0,57.0,57,2089.0,square4,r,0.041,3,S,3.0
S3,40.0,41.0,46.0,48.0,55.0,55,2144.0,square4,r,0.044,3,S,3.0
S3,41.0,49.0,49.0,40.0,56.0,56,2200.0,square4,r,0.075,3,S,3.0
S3,42.0,47.0,49.0,43.0,48.0,48,2248.0,square4,r,0.107,3,S,3.0
S3,43.0,46.0,43.0,41.0,58.0,58,2306.0,square4,r,0.091,3,S,3.0
S3,44.0,46.0,52.0,51.0,55.0,55,2361.0,square4,r,0.113,3,S,3.0
S3,45.0,46.0,41.0,46.0,49.0,49,2410.0,square4,r,0.142,3,S,3.0
S3,46.0,32.0,56.0,40.0,50.0,50,2460.0,square4,r,0.04,3,S,3.0
S3,47.0,42.0,49.0,44.0,51.0,51,2511.0,square4,r,0.0,3,S,3.0
S3,48.0,36.0,45.0,38.0,50.0,50,2561.0,square4,r,0.059,3,S,3.0
S3,49.0,45.0,48.0,47.0,52.0,52,2613.0,square4,r,0.025,3,S,3.0
