block,Trial,square1,square2,square3,square4,currPoints,totalPoints,square,choiceKey.keys,choiceKey.rt,armNum,blockType,blockNum
prac,0.0,100.0,0.0,0.0,0.0,0,0.0,square2,,,1,p,0.0
prac,1.0,100.0,0.0,0.0,0.0,100,100.0,square1,,,0,p,0.0
prac,2.0,100.0,0.0,0.0,0.0,0,100.0,square3,,,2,p,0.0
prac,3.0,100.0,0.0,0.0,0.0,100,200.0,square1,,,0,p,0.0
prac,4.0,100.0,0.0,0.0,0.0,0,200.0,square4,,,3,p,0.0
prac,5.0,100.0,0.0,0.0,0.0,100,300.0,square1,,,0,p,0.0
prac,6.0,100.0,0.0,0.0,0.0,100,400.0,square1,,,0,p,0.0
prac,7.0,100.0,0.0,0.0,0.0,100,500.0,square1,,,0,p,0.0
prac,8.0,100.0,0.0,0.0,0.0,100,600.0,square1,,,0,p,0.0
prac,9.0,100.0,0.0,0.0,0.0,100,700.0,square1,,,0,p,0.0
V6,0.0,43.0,59.0,68.0,49.0,43,43.0,square1,r,0.7,0,V,6.0
V6,1.0,43.0,62.0,71.0,50.0,62,105.0,square2,i,0.2504,1,V,6.0
V6,2.0,48.0,61.0,72.0,51.0,72,177.0,square3,f,0.0004,2,V,6.0
V6,3.0,46.0,55.0,71.0,51.0,51,228.0,square4,j,0.3215,3,V,6.0
V6,4.0,44.0,61.0,74.0,48.0,74,302.0,square3,f,0.2665,2,V,6.0
V6,5.0,45.0,62.0,70.0,51.0,62,364.0,square2,i,0.1502,1,V,6.0
V6,6.0,42.0,67.0,73.0,46.0,73,437.0,square3,f,0.1616,2,V,6.0
V6,7.0,44.0,63.0,71.0,53.0,44,481.0,square1,r,0.1816,0,V,6.0
V6,8.0,41.0,62.0,73.0,52.0,52,533.0,square4,j,0.1666,3,V,6.0
V6,9.0,46.0,59.0,72.0,54.0,59,592.0,square2,i,0.051,1,V,6.0
V6,10.0,45.0,59.0,70.0,53.0,70,662.0,square3,f,0.101,2,V,6.0
V6,11.0,45.0,60.0,70.0,49.0,45,707.0,square1,r,0.2104,0,V,6.0
V6,12.0,45.0,66.0,64.0,48.0,48,755.0,square4,j,0.1508,3,V,6.0
V6,13.0,45.0,61.0,69.0,47.0,69,824.0,square3,f,0.1169,2,V,6.0
V6,14.0,47.0,60.0,71.0,56.0,60,884.0,square2,i,0.1646,1,V,6.0
V6,15.0,46.0,64.0,67.0,52.0,67,951.0,square3,f,0.0668,2,V,6.0
V6,16.0,50.0,60.0,69.0,54.0,50,1001.0,square1,r,0.1785,0,V,6.0
V6,17.0,43.0,60.0,70.0,53.0,53,1054.0,square4,j,0.1423,3,V,6.0
V6,18.0,46.0,63.0,72.0,55.0,72,1126.0,square3,f,0.1836,2,V,6.0
V6,19.0,46.0,65.0,73.0,51.0,65,1191.0,square2,i,0.0833,1,V,6.0
V6,20.0,44.0,63.0,66.0,51.0,66,1257.0,square3,f,0.1196,2,V,6.0
V6,21.0,43.0,63.0,70.0,49.0,70,1327.0,square3,f,0.0835,2,V,6.0
V6,22.0,45.0,63.0,71.0,50.0,50,1377.0,square4,j,0.1336,3,V,6.0
V6,23.0,45.0,38.0,28.0,60.0,45,1422.0,square1,r,0.4895,0,V,6.0
V6,24.0,46.0,33.0,33.0,53.0,33,1455.0,square3,f,0.0004,2,V,6.0
V6,25.0,45.0,36.0,32.0,63.0,36,1491.0,square2,i,0.0671,1,V,6.0
V6,26.0,52.0,37.0,28.0,57.0,57,1548.0,square4,j,0.1514,3,V,6.0
V6,27.0,45.0,33.0,30.0,62.0,45,1593.0,square1,r,0.0545,0,V,6.0
V6,28.0,43.0,37.0,24.0,51.0,51,1644.0,square4,j,0.0494,3,V,6.0
V6,29.0,48.0,39.0,34.0,61.0,34,1678.0,square3,f,0.2003,2,V,6.0
V6,30.0,48.0,44.0,35.0,59.0,44,1722.0,square2,i,0.0359,1,V,6.0
V6,31.0,50.0,39.0,34.0,53.0,53,1775.0,square4,j,0.0003,3,V,6.0
V6,32.0,44.0,33.0,33.0,54.0,44,1819.0,square1,r,0.1004,0,V,6.0
V6,33.0,48.0,37.0,30.0,56.0,56,1875.0,square4,j,0.1652,3,V,6.0
V6,34.0,52.0,37.0,27.0,59.0,37,1912.0,square2,i,0.0837,1,V,6.0
V6,35.0,47.0,32.0,29.0,59.0,29,1941.0,square3,f,0.043,2,V,6.0
V6,36.0,45.0,37.0,27.0,56.0,56,1997.0,square4,j,0.0043,3,V,6.0
V6,37.0,39.0,37.0,31.0,57.0,57,2054.0,square4,j,0.0004,3,V,6.0
V6,38.0,50.0,38.0,29.0,56.0,56,2110.0,square4,j,0.2166,3,V,6.0
V6,39.0,48.0,37.0,27.0,57.0,57,2167.0,square4,j,0.0465,3,V,6.0
V6,40.0,53.0,37.0,29.0,57.0,37,2204.0,square2,i,0.1249,1,V,6.0
V6,41.0,41.0,34.0,33.0,58.0,41,2245.0,square1,r,0.5034,0,V,6.0
V6,42.0,50.0,37.0,31.0,57.0,57,2302.0,square4,j,0.017,3,V,6.0
V6,43.0,48.0,34.0,30.0,58.0,58,2360.0,square4,j,0.1602,3,V,6.0
V6,44.0,44.0,37.0,33.0,60.0,60,2420.0,square4,j,0.1334,3,V,6.0
V6,45.0,44.0,32.0,33.0,55.0,55,2475.0,square4,j,0.1709,3,V,6.0
V6,46.0,44.0,36.0,33.0,59.0,59,2534.0,square4,j,0.1161,3,V,6.0
V6,47.0,42.0,34.0,29.0,52.0,29,2563.0,square3,f,0.0164,2,V,6.0
V6,48.0,46.0,41.0,28.0,60.0,60,2623.0,square4,j,0.0999,3,V,6.0
V6,49.0,46.0,40.0,27.0,55.0,55,2678.0,square4,j,0.0651,3,V,6.0
V6,50.0,46.0,41.0,32.0,55.0,55,2733.0,square4,j,0.1363,3,V,6.0
V6,51.0,41.0,39.0,30.0,55.0,55,2788.0,square4,j,0.1141,3,V,6.0
V6,52.0,47.0,37.0,31.0,55.0,37,2825.0,square2,i,0.0623,1,V,6.0
V6,53.0,57.0,36.0,30.0,58.0,57,2882.0,square1,r,0.4672,0,V,6.0
V6,54.0,42.0,38.0,28.0,50.0,28,2910.0,square3,f,0.1293,2,V,6.0
V6,55.0,56.0,42.0,67.0,46.0,46,2956.0,square4,j,0.1042,3,V,6.0
V6,56.0,54.0,37.0,68.0,46.0,46,3002.0,square4,j,0.1115,3,V,6.0
V6,57.0,57.0,40.0,64.0,52.0,52,3054.0,square4,j,0.0165,3,V,6.0
V6,58.0,53.0,45.0,68.0,45.0,45,3099.0,square4,j,0.3445,3,V,6.0
V6,59.0,59.0,41.0,69.0,49.0,59,3158.0,square1,r,0.6815,0,V,6.0
V6,60.0,62.0,41.0,71.0,51.0,41,3199.0,square2,i,0.0402,1,V,6.0
V6,61.0,58.0,50.0,72.0,51.0,72,3271.0,square3,f,0.1,2,V,6.0
V6,62.0,61.0,43.0,65.0,47.0,47,3318.0,square4,j,0.2166,3,V,6.0
V6,63.0,55.0,40.0,67.0,51.0,67,3385.0,square3,f,0.0868,2,V,6.0
V6,64.0,56.0,43.0,67.0,47.0,67,3452.0,square3,f,0.0126,2,V,6.0
V6,65.0,62.0,46.0,67.0,48.0,67,3519.0,square3,f,0.0021,2,V,6.0
V6,66.0,55.0,44.0,67.0,48.0,67,3586.0,square3,f,0.1335,2,V,6.0
V6,67.0,61.0,46.0,70.0,49.0,70,3656.0,square3,f,0.1001,2,V,6.0
V6,68.0,63.0,41.0,72.0,46.0,72,3728.0,square3,f,0.1037,2,V,6.0
V6,69.0,59.0,41.0,68.0,48.0,68,3796.0,square3,f,0.0835,2,V,6.0
V6,70.0,59.0,37.0,70.0,45.0,70,3866.0,square3,f,0.2261,2,V,6.0
V6,71.0,83.0,64.0,56.0,70.0,56,3922.0,square3,f,0.0098,2,V,6.0
V6,72.0,82.0,59.0,53.0,75.0,53,3975.0,square3,f,0.5452,2,V,6.0
V6,73.0,85.0,67.0,58.0,73.0,58,4033.0,square3,f,0.2344,2,V,6.0
V6,74.0,79.0,67.0,61.0,73.0,67,4100.0,square2,i,0.167,1,V,6.0
V6,75.0,84.0,62.0,53.0,69.0,62,4162.0,square2,i,0.2204,1,V,6.0
V6,76.0,81.0,60.0,55.0,76.0,81,4243.0,square1,r,0.1573,0,V,6.0
V6,77.0,84.0,61.0,60.0,72.0,84,4327.0,square1,r,0.0018,0,V,6.0
V6,78.0,90.0,61.0,54.0,74.0,90,4417.0,square1,r,0.1995,0,V,6.0
V6,79.0,80.0,64.0,51.0,75.0,80,4497.0,square1,r,0.0618,0,V,6.0
V6,80.0,85.0,62.0,56.0,78.0,85,4582.0,square1,r,0.1426,0,V,6.0
V6,81.0,86.0,65.0,58.0,69.0,86,4668.0,square1,r,0.1719,0,V,6.0
V6,82.0,83.0,62.0,58.0,77.0,83,4751.0,square1,r,0.0335,0,V,6.0
V6,83.0,87.0,61.0,59.0,70.0,87,4838.0,square1,r,0.0663,0,V,6.0
V6,84.0,89.0,65.0,54.0,78.0,89,4927.0,square1,r,0.1262,0,V,6.0
V6,85.0,78.0,63.0,55.0,75.0,78,5005.0,square1,r,0.1697,0,V,6.0
V6,86.0,87.0,67.0,52.0,75.0,87,5092.0,square1,r,0.2315,0,V,6.0
V6,87.0,86.0,62.0,60.0,75.0,86,5178.0,square1,r,0.1579,0,V,6.0
V6,88.0,79.0,67.0,56.0,76.0,79,5257.0,square1,r,0.1499,0,V,6.0
V6,89.0,83.0,61.0,57.0,75.0,83,5340.0,square1,r,0.0165,0,V,6.0
V6,90.0,83.0,67.0,51.0,76.0,83,5423.0,square1,r,0.0733,0,V,6.0
V6,91.0,83.0,63.0,55.0,69.0,63,5486.0,square2,i,0.1504,1,V,6.0
V6,92.0,89.0,56.0,53.0,68.0,53,5539.0,square3,f,0.0555,2,V,6.0
V6,93.0,84.0,61.0,59.0,74.0,74,5613.0,square4,j,0.2163,3,V,6.0
V6,94.0,77.0,58.0,58.0,76.0,77,5690.0,square1,r,0.0352,0,V,6.0
V6,95.0,82.0,60.0,53.0,74.0,74,5764.0,square4,j,0.3507,3,V,6.0
V6,96.0,87.0,61.0,56.0,71.0,87,5851.0,square1,r,0.0626,0,V,6.0
V6,97.0,83.0,66.0,55.0,75.0,83,5934.0,square1,r,0.0501,0,V,6.0
V6,98.0,81.0,63.0,55.0,76.0,81,6015.0,square1,r,0.117,0,V,6.0
V6,99.0,92.0,63.0,61.0,78.0,92,6107.0,square1,r,0.1011,0,V,6.0
V5,0.0,46.0,21.0,37.0,28.0,37,37.0,square3,r,0.3878,2,V,5.0
V5,1.0,43.0,27.0,36.0,31.0,31,68.0,square4,f,0.0003,3,V,5.0
V5,2.0,50.0,18.0,43.0,32.0,18,86.0,square2,j,0.1332,1,V,5.0
V5,3.0,53.0,23.0,36.0,34.0,53,139.0,square1,i,0.1072,0,V,5.0
V5,4.0,52.0,19.0,38.0,34.0,52,191.0,square1,i,0.1173,0,V,5.0
V5,5.0,50.0,22.0,41.0,29.0,50,241.0,square1,i,0.0375,0,V,5.0
V5,6.0,52.0,19.0,40.0,33.0,40,281.0,square3,r,0.1857,2,V,5.0
V5,7.0,48.0,24.0,36.0,27.0,27,308.0,square4,f,0.1023,3,V,5.0
V5,8.0,50.0,24.0,35.0,33.0,24,332.0,square2,j,0.1832,1,V,5.0
V5,9.0,48.0,25.0,39.0,34.0,34,366.0,square4,f,0.0488,3,V,5.0
V5,10.0,52.0,19.0,32.0,34.0,19,385.0,square2,j,0.0594,1,V,5.0
V5,11.0,48.0,22.0,32.0,32.0,22,407.0,square2,j,0.0005,1,V,5.0
V5,12.0,47.0,17.0,43.0,29.0,47,454.0,square1,i,0.1005,0,V,5.0
V5,13.0,46.0,21.0,42.0,29.0,46,500.0,square1,i,0.1442,0,V,5.0
V5,14.0,47.0,28.0,42.0,28.0,47,547.0,square1,i,0.1435,0,V,5.0
V5,15.0,50.0,29.0,38.0,36.0,50,597.0,square1,i,0.0234,0,V,5.0
V5,16.0,49.0,24.0,36.0,34.0,36,633.0,square3,r,0.1,2,V,5.0
V5,17.0,50.0,20.0,38.0,35.0,50,683.0,square1,i,0.0585,0,V,5.0
V5,18.0,49.0,22.0,46.0,29.0,49,732.0,square1,i,0.1335,0,V,5.0
V5,19.0,46.0,23.0,40.0,31.0,46,778.0,square1,i,0.1334,0,V,5.0
V5,20.0,51.0,22.0,41.0,28.0,28,806.0,square4,f,0.1759,3,V,5.0
V5,21.0,51.0,26.0,36.0,31.0,26,832.0,square2,j,0.15,1,V,5.0
V5,22.0,47.0,18.0,41.0,28.0,47,879.0,square1,i,0.1435,0,V,5.0
V5,23.0,52.0,20.0,36.0,29.0,52,931.0,square1,i,0.0003,0,V,5.0
V5,24.0,51.0,21.0,41.0,34.0,51,982.0,square1,i,0.0337,0,V,5.0
V5,25.0,50.0,20.0,41.0,27.0,41,1023.0,square3,r,0.0339,2,V,5.0
V5,26.0,49.0,29.0,37.0,28.0,49,1072.0,square1,i,0.1996,0,V,5.0
V5,27.0,10.0,13.0,42.0,32.0,10,1082.0,square1,i,0.0165,0,V,5.0
V5,28.0,9.0,19.0,40.0,27.0,27,1109.0,square4,f,0.0252,3,V,5.0
V5,29.0,17.0,17.0,38.0,29.0,17,1126.0,square2,j,0.1005,1,V,5.0
V5,30.0,8.0,18.0,36.0,29.0,36,1162.0,square3,r,0.1361,2,V,5.0
V5,31.0,16.0,24.0,34.0,29.0,34,1196.0,square3,r,0.0917,2,V,5.0
V5,32.0,9.0,17.0,35.0,31.0,9,1205.0,square1,i,0.0998,0,V,5.0
V5,33.0,11.0,19.0,36.0,28.0,28,1233.0,square4,f,0.125,3,V,5.0
V5,34.0,10.0,19.0,38.0,28.0,19,1252.0,square2,j,0.0834,1,V,5.0
V5,35.0,5.0,23.0,40.0,34.0,40,1292.0,square3,r,0.0004,2,V,5.0
V5,36.0,17.0,20.0,36.0,31.0,36,1328.0,square3,r,0.1504,2,V,5.0
V5,37.0,12.0,13.0,36.0,30.0,36,1364.0,square3,r,0.1104,2,V,5.0
V5,38.0,14.0,24.0,35.0,27.0,35,1399.0,square3,r,0.0846,2,V,5.0
V5,39.0,13.0,20.0,39.0,32.0,39,1438.0,square3,r,0.1334,2,V,5.0
V5,40.0,9.0,15.0,37.0,24.0,37,1475.0,square3,r,0.117,2,V,5.0
V5,41.0,9.0,14.0,38.0,31.0,14,1489.0,square2,j,0.2003,1,V,5.0
V5,42.0,14.0,17.0,43.0,31.0,31,1520.0,square4,f,0.007,3,V,5.0
V5,43.0,10.0,18.0,39.0,23.0,10,1530.0,square1,i,0.1145,0,V,5.0
V5,44.0,10.0,20.0,33.0,32.0,33,1563.0,square3,r,0.2005,2,V,5.0
V5,45.0,16.0,17.0,37.0,29.0,29,1592.0,square4,f,0.0188,3,V,5.0
V5,46.0,9.0,22.0,37.0,25.0,37,1629.0,square3,r,0.2,2,V,5.0
V5,47.0,10.0,22.0,35.0,26.0,35,1664.0,square3,r,0.0614,2,V,5.0
V5,48.0,11.0,16.0,39.0,23.0,39,1703.0,square3,r,0.1712,2,V,5.0
V5,49.0,13.0,16.0,33.0,27.0,33,1736.0,square3,r,0.1498,2,V,5.0
V5,50.0,12.0,16.0,39.0,24.0,39,1775.0,square3,r,0.1586,2,V,5.0
V5,51.0,10.0,21.0,43.0,28.0,21,1796.0,square2,j,0.08,1,V,5.0
V5,52.0,8.0,15.0,36.0,28.0,8,1804.0,square1,i,0.0671,0,V,5.0
V5,53.0,38.0,20.0,31.0,54.0,54,1858.0,square4,f,0.0658,3,V,5.0
V5,54.0,39.0,20.0,35.0,51.0,35,1893.0,square3,r,0.101,2,V,5.0
V5,55.0,41.0,21.0,27.0,50.0,50,1943.0,square4,f,0.1308,3,V,5.0
V5,56.0,39.0,23.0,28.0,49.0,49,1992.0,square4,f,0.2209,3,V,5.0
V5,57.0,36.0,28.0,29.0,59.0,59,2051.0,square4,f,0.0171,3,V,5.0
V5,58.0,38.0,22.0,28.0,49.0,49,2100.0,square4,f,0.0335,3,V,5.0
V5,59.0,44.0,23.0,30.0,51.0,51,2151.0,square4,f,0.293,3,V,5.0
V5,60.0,43.0,21.0,31.0,48.0,48,2199.0,square4,f,0.1301,3,V,5.0
V5,61.0,39.0,24.0,35.0,50.0,50,2249.0,square4,f,0.1039,3,V,5.0
V5,62.0,38.0,25.0,31.0,52.0,52,2301.0,square4,f,0.036,3,V,5.0
V5,63.0,41.0,14.0,31.0,52.0,52,2353.0,square4,f,0.1672,3,V,5.0
V5,64.0,43.0,23.0,30.0,51.0,30,2383.0,square3,r,0.1901,2,V,5.0
V5,65.0,41.0,23.0,35.0,52.0,52,2435.0,square4,f,0.2001,3,V,5.0
V5,66.0,41.0,17.0,33.0,47.0,47,2482.0,square4,f,0.0336,3,V,5.0
V5,67.0,44.0,23.0,32.0,49.0,49,2531.0,square4,f,0.1497,3,V,5.0
V5,68.0,44.0,24.0,31.0,44.0,44,2575.0,square4,f,0.0505,3,V,5.0
V5,69.0,43.0,28.0,27.0,48.0,48,2623.0,square4,f,0.1169,3,V,5.0
V5,70.0,38.0,22.0,26.0,50.0,50,2673.0,square4,f,0.3914,3,V,5.0
V5,71.0,41.0,29.0,26.0,53.0,53,2726.0,square4,f,0.1494,3,V,5.0
V5,72.0,40.0,20.0,28.0,51.0,51,2777.0,square4,f,0.7836,3,V,5.0
V5,73.0,59.0,44.0,51.0,35.0,51,2828.0,square3,r,0.1537,2,V,5.0
V5,74.0,60.0,38.0,55.0,43.0,43,2871.0,square4,f,0.4843,3,V,5.0
V5,75.0,63.0,45.0,50.0,37.0,37,2908.0,square4,f,0.1332,3,V,5.0
V5,76.0,62.0,42.0,50.0,37.0,50,2958.0,square3,r,0.0894,2,V,5.0
V5,77.0,57.0,37.0,52.0,35.0,52,3010.0,square3,r,0.5035,2,V,5.0
V5,78.0,66.0,45.0,54.0,37.0,54,3064.0,square3,r,0.6972,2,V,5.0
V5,79.0,64.0,37.0,48.0,35.0,35,3099.0,square4,f,0.0747,3,V,5.0
V5,80.0,63.0,40.0,56.0,38.0,56,3155.0,square3,r,0.05,2,V,5.0
V5,81.0,62.0,41.0,54.0,32.0,54,3209.0,square3,r,0.0865,2,V,5.0
V5,82.0,58.0,41.0,59.0,39.0,59,3268.0,square3,r,0.0675,2,V,5.0
V5,83.0,66.0,46.0,54.0,35.0,54,3322.0,square3,r,0.2999,2,V,5.0
V5,84.0,67.0,44.0,52.0,33.0,52,3374.0,square3,r,0.7217,2,V,5.0
V5,85.0,67.0,45.0,46.0,36.0,46,3420.0,square3,r,0.0164,2,V,5.0
V5,86.0,65.0,44.0,51.0,38.0,51,3471.0,square3,r,0.0811,2,V,5.0
V5,87.0,64.0,49.0,48.0,35.0,48,3519.0,square3,r,0.3339,2,V,5.0
V5,88.0,68.0,47.0,56.0,36.0,56,3575.0,square3,r,0.0003,2,V,5.0
V5,89.0,60.0,42.0,57.0,32.0,57,3632.0,square3,r,0.0004,2,V,5.0
V5,90.0,59.0,43.0,53.0,34.0,99999,3632.0,invalid,,,-1,V,5.0
V5,91.0,64.0,43.0,51.0,34.0,34,3666.0,square4,f,0.2883,3,V,5.0
V5,92.0,65.0,41.0,57.0,38.0,57,3723.0,square3,r,0.0003,2,V,5.0
V5,93.0,59.0,48.0,54.0,40.0,59,3782.0,square1,i,0.0827,0,V,5.0
V5,94.0,66.0,44.0,53.0,43.0,44,3826.0,square2,j,0.0292,1,V,5.0
V5,95.0,63.0,43.0,50.0,40.0,63,3889.0,square1,i,0.1668,0,V,5.0
V5,96.0,62.0,44.0,50.0,33.0,62,3951.0,square1,i,0.155,0,V,5.0
V5,97.0,64.0,49.0,55.0,37.0,64,4015.0,square1,i,0.1349,0,V,5.0
V5,98.0,65.0,44.0,53.0,36.0,65,4080.0,square1,i,0.0813,0,V,5.0
V5,99.0,65.0,42.0,55.0,35.0,65,4145.0,square1,i,0.1415,0,V,5.0
V1,0.0,46.0,61.0,52.0,71.0,46,46.0,square1,f,0.8672,0,V,1.0
V1,1.0,45.0,63.0,54.0,78.0,78,124.0,square4,r,0.1326,3,V,1.0
V1,2.0,51.0,58.0,59.0,77.0,59,183.0,square3,j,0.3317,2,V,1.0
V1,3.0,53.0,65.0,56.0,75.0,65,248.0,square2,i,0.3925,1,V,1.0
V1,4.0,49.0,68.0,53.0,72.0,72,320.0,square4,r,0.146,3,V,1.0
V1,5.0,47.0,70.0,59.0,76.0,76,396.0,square4,r,0.0658,3,V,1.0
V1,6.0,55.0,63.0,54.0,76.0,76,472.0,square4,r,0.1296,3,V,1.0
V1,7.0,47.0,67.0,55.0,74.0,74,546.0,square4,r,0.0165,3,V,1.0
V1,8.0,47.0,65.0,46.0,76.0,76,622.0,square4,r,0.0003,3,V,1.0
V1,9.0,46.0,68.0,59.0,78.0,78,700.0,square4,r,0.0999,3,V,1.0
V1,10.0,58.0,67.0,58.0,79.0,79,779.0,square4,r,0.0003,3,V,1.0
V1,11.0,44.0,61.0,54.0,72.0,72,851.0,square4,r,0.1493,3,V,1.0
V1,12.0,44.0,65.0,56.0,75.0,75,926.0,square4,r,0.0004,3,V,1.0
V1,13.0,47.0,63.0,53.0,73.0,53,979.0,square3,j,0.0004,2,V,1.0
V1,14.0,49.0,66.0,56.0,75.0,66,1045.0,square2,i,0.1164,1,V,1.0
V1,15.0,49.0,66.0,52.0,79.0,49,1094.0,square1,f,0.0003,0,V,1.0
V1,16.0,51.0,61.0,48.0,72.0,72,1166.0,square4,r,0.1783,3,V,1.0
V1,17.0,46.0,61.0,59.0,71.0,71,1237.0,square4,r,0.1828,3,V,1.0
V1,18.0,45.0,61.0,53.0,72.0,72,1309.0,square4,r,0.1496,3,V,1.0
V1,19.0,49.0,63.0,54.0,76.0,76,1385.0,square4,r,0.115,3,V,1.0
V1,20.0,46.0,66.0,52.0,72.0,72,1457.0,square4,r,0.2339,3,V,1.0
V1,21.0,50.0,65.0,51.0,73.0,73,1530.0,square4,r,0.1195,3,V,1.0
V1,22.0,56.0,62.0,56.0,77.0,77,1607.0,square4,r,1.1169,3,V,1.0
V1,23.0,45.0,67.0,54.0,83.0,83,1690.0,square4,r,0.1348,3,V,1.0
V1,24.0,46.0,69.0,57.0,71.0,71,1761.0,square4,r,0.1709,3,V,1.0
V1,25.0,41.0,65.0,55.0,76.0,76,1837.0,square4,r,0.019,3,V,1.0
V1,26.0,51.0,60.0,55.0,74.0,74,1911.0,square4,r,0.1902,3,V,1.0
V1,27.0,52.0,63.0,56.0,73.0,73,1984.0,square4,r,0.1832,3,V,1.0
V1,28.0,50.0,68.0,50.0,76.0,68,2052.0,square2,i,0.0004,1,V,1.0
V1,29.0,51.0,60.0,54.0,74.0,74,2126.0,square4,r,0.016,3,V,1.0
V1,30.0,35.0,67.0,57.0,40.0,57,2183.0,square3,j,0.0498,2,V,1.0
V1,31.0,38.0,60.0,52.0,35.0,35,2218.0,square4,r,0.0879,3,V,1.0
V1,32.0,37.0,67.0,52.0,41.0,37,2255.0,square1,f,0.0003,0,V,1.0
V1,33.0,37.0,62.0,53.0,42.0,42,2297.0,square4,r,0.0165,3,V,1.0
V1,34.0,35.0,58.0,54.0,43.0,58,2355.0,square2,i,0.0606,1,V,1.0
V1,35.0,40.0,60.0,50.0,44.0,50,2405.0,square3,j,0.1469,2,V,1.0
V1,36.0,39.0,66.0,50.0,39.0,39,2444.0,square1,f,0.0172,0,V,1.0
V1,37.0,32.0,59.0,54.0,38.0,59,2503.0,square2,i,0.0977,1,V,1.0
V1,38.0,32.0,64.0,50.0,39.0,39,2542.0,square4,r,0.0671,3,V,1.0
V1,39.0,37.0,60.0,45.0,40.0,60,2602.0,square2,i,0.1162,1,V,1.0
V1,40.0,35.0,61.0,54.0,43.0,61,2663.0,square2,i,0.1348,1,V,1.0
V1,41.0,33.0,62.0,49.0,42.0,62,2725.0,square2,i,0.0499,1,V,1.0
V1,42.0,31.0,70.0,52.0,42.0,70,2795.0,square2,i,0.0669,1,V,1.0
V1,43.0,37.0,59.0,48.0,41.0,48,2843.0,square3,j,0.0334,2,V,1.0
V1,44.0,39.0,63.0,53.0,44.0,39,2882.0,square1,f,0.1187,0,V,1.0
V1,45.0,37.0,62.0,48.0,41.0,41,2923.0,square4,r,0.1135,3,V,1.0
V1,46.0,34.0,65.0,52.0,39.0,65,2988.0,square2,i,0.0801,1,V,1.0
V1,47.0,42.0,59.0,52.0,43.0,59,3047.0,square2,i,0.1535,1,V,1.0
V1,48.0,39.0,62.0,50.0,38.0,62,3109.0,square2,i,0.0835,1,V,1.0
V1,49.0,33.0,63.0,49.0,40.0,33,3142.0,square1,f,0.083,0,V,1.0
V1,50.0,38.0,66.0,54.0,37.0,54,3196.0,square3,j,0.0003,2,V,1.0
V1,51.0,33.0,66.0,50.0,37.0,66,3262.0,square2,i,0.1211,1,V,1.0
V1,52.0,41.0,65.0,55.0,44.0,65,3327.0,square2,i,0.1197,1,V,1.0
V1,53.0,75.0,50.0,46.0,60.0,60,3387.0,square4,r,0.0665,3,V,1.0
V1,54.0,74.0,53.0,45.0,61.0,53,3440.0,square2,i,0.026,1,V,1.0
V1,55.0,74.0,54.0,43.0,65.0,74,3514.0,square1,f,0.0498,0,V,1.0
V1,56.0,73.0,54.0,44.0,56.0,73,3587.0,square1,f,0.1666,0,V,1.0
V1,57.0,67.0,58.0,52.0,63.0,67,3654.0,square1,f,0.1402,0,V,1.0
V1,58.0,72.0,51.0,43.0,62.0,72,3726.0,square1,f,0.1109,0,V,1.0
V1,59.0,68.0,47.0,49.0,56.0,49,3775.0,square3,j,0.1006,2,V,1.0
V1,60.0,72.0,55.0,46.0,65.0,46,3821.0,square3,j,0.0002,2,V,1.0
V1,61.0,76.0,50.0,46.0,62.0,76,3897.0,square1,f,0.1,0,V,1.0
V1,62.0,77.0,58.0,46.0,66.0,66,3963.0,square4,r,0.1374,3,V,1.0
V1,63.0,72.0,53.0,48.0,66.0,72,4035.0,square1,f,0.1598,0,V,1.0
V1,64.0,70.0,49.0,49.0,60.0,70,4105.0,square1,f,0.05,0,V,1.0
V1,65.0,68.0,49.0,46.0,66.0,68,4173.0,square1,f,0.0665,0,V,1.0
V1,66.0,77.0,52.0,41.0,64.0,52,4225.0,square2,i,0.1005,1,V,1.0
V1,67.0,74.0,56.0,42.0,69.0,69,4294.0,square4,r,0.165,3,V,1.0
V1,68.0,77.0,50.0,46.0,68.0,46,4340.0,square3,j,0.0005,2,V,1.0
V1,69.0,76.0,48.0,45.0,63.0,76,4416.0,square1,f,0.0003,0,V,1.0
V1,70.0,71.0,53.0,50.0,65.0,71,4487.0,square1,f,0.2499,0,V,1.0
V1,71.0,70.0,56.0,44.0,59.0,70,4557.0,square1,f,0.1046,0,V,1.0
V1,72.0,74.0,54.0,55.0,61.0,74,4631.0,square1,f,0.4734,0,V,1.0
V1,73.0,73.0,53.0,47.0,61.0,73,4704.0,square1,f,0.0003,0,V,1.0
V1,74.0,71.0,53.0,51.0,65.0,71,4775.0,square1,f,0.1448,0,V,1.0
V1,75.0,72.0,51.0,48.0,64.0,72,4847.0,square1,f,0.0004,0,V,1.0
V1,76.0,72.0,53.0,49.0,62.0,62,4909.0,square4,r,0.0625,3,V,1.0
V1,77.0,62.0,76.0,64.0,86.0,76,4985.0,square2,i,0.0871,1,V,1.0
V1,78.0,61.0,74.0,63.0,87.0,74,5059.0,square2,i,0.0835,1,V,1.0
V1,79.0,56.0,78.0,67.0,89.0,56,5115.0,square1,f,0.0645,0,V,1.0
V1,80.0,59.0,75.0,63.0,84.0,75,5190.0,square2,i,0.0628,1,V,1.0
V1,81.0,63.0,74.0,68.0,82.0,68,5258.0,square3,j,0.1833,2,V,1.0
V1,82.0,59.0,75.0,67.0,80.0,75,5333.0,square2,i,0.0039,1,V,1.0
V1,83.0,58.0,77.0,63.0,82.0,77,5410.0,square2,i,0.0379,1,V,1.0
V1,84.0,57.0,76.0,64.0,87.0,76,5486.0,square2,i,0.0004,1,V,1.0
V1,85.0,61.0,73.0,66.0,83.0,73,5559.0,square2,i,0.0404,1,V,1.0
V1,86.0,60.0,71.0,66.0,85.0,71,5630.0,square2,i,0.1187,1,V,1.0
V1,87.0,61.0,80.0,73.0,84.0,84,5714.0,square4,r,0.1026,3,V,1.0
V1,88.0,67.0,77.0,67.0,85.0,67,5781.0,square3,j,0.0359,2,V,1.0
V1,89.0,60.0,79.0,63.0,86.0,60,5841.0,square1,f,0.0878,0,V,1.0
V1,90.0,60.0,74.0,66.0,88.0,88,5929.0,square4,r,0.1413,3,V,1.0
V1,91.0,57.0,81.0,61.0,79.0,79,6008.0,square4,r,0.1162,3,V,1.0
V1,92.0,61.0,78.0,61.0,84.0,84,6092.0,square4,r,0.1138,3,V,1.0
V1,93.0,64.0,72.0,69.0,83.0,83,6175.0,square4,r,0.0164,3,V,1.0
V1,94.0,64.0,73.0,68.0,83.0,83,6258.0,square4,r,0.0151,3,V,1.0
V1,95.0,61.0,69.0,68.0,87.0,69,6327.0,square2,i,0.033,1,V,1.0
V1,96.0,55.0,77.0,65.0,88.0,65,6392.0,square3,j,0.0218,2,V,1.0
V1,97.0,61.0,75.0,63.0,82.0,61,6453.0,square1,f,0.1171,0,V,1.0
V1,98.0,59.0,71.0,66.0,82.0,71,6524.0,square2,i,0.0663,1,V,1.0
V1,99.0,61.0,69.0,67.0,84.0,84,6608.0,square4,r,0.0673,3,V,1.0
NS5,0.0,26.0,19.0,54.0,39.0,39,39.0,square4,i,0.6492,3,N,5.0
NS5,1.0,21.0,17.0,51.0,42.0,17,56.0,square2,j,0.0345,1,N,5.0
NS5,2.0,19.0,17.0,52.0,42.0,52,108.0,square3,f,1.7333,2,N,5.0
NS5,3.0,21.0,16.0,55.0,38.0,21,129.0,square1,r,0.1678,0,N,5.0
NS5,4.0,14.0,26.0,52.0,44.0,14,143.0,square1,r,0.0172,0,N,5.0
NS5,5.0,18.0,25.0,47.0,42.0,47,190.0,square3,f,0.1504,2,N,5.0
NS5,6.0,23.0,21.0,54.0,38.0,38,228.0,square4,i,0.1333,3,N,5.0
NS5,7.0,18.0,27.0,56.0,39.0,27,255.0,square2,j,0.0594,1,N,5.0
NS5,8.0,18.0,28.0,57.0,40.0,57,312.0,square3,f,0.0998,2,N,5.0
NS5,9.0,15.0,29.0,53.0,38.0,53,365.0,square3,f,0.1832,2,N,5.0
NS5,10.0,13.0,26.0,56.0,41.0,56,421.0,square3,f,0.0163,2,N,5.0
NS5,11.0,11.0,25.0,58.0,41.0,58,479.0,square3,f,0.0665,2,N,5.0
NS5,12.0,9.0,22.0,53.0,40.0,9,488.0,square1,r,0.1332,0,N,5.0
NS5,13.0,11.0,21.0,55.0,39.0,39,527.0,square4,i,0.125,3,N,5.0
NS5,14.0,12.0,17.0,49.0,38.0,49,576.0,square3,f,0.0312,2,N,5.0
NS5,15.0,18.0,19.0,52.0,37.0,52,628.0,square3,f,0.0286,2,N,5.0
NS5,16.0,18.0,20.0,49.0,40.0,49,677.0,square3,f,0.0483,2,N,5.0
NS5,17.0,16.0,16.0,50.0,41.0,50,727.0,square3,f,0.1336,2,N,5.0
NS5,18.0,16.0,18.0,51.0,43.0,51,778.0,square3,f,0.0662,2,N,5.0
NS5,19.0,14.0,20.0,44.0,45.0,44,822.0,square3,f,0.1171,2,N,5.0
NS5,20.0,19.0,21.0,42.0,48.0,42,864.0,square3,f,0.117,2,N,5.0
NS5,21.0,19.0,22.0,43.0,47.0,22,886.0,square2,j,0.0156,1,N,5.0
NS5,22.0,17.0,15.0,43.0,47.0,47,933.0,square4,i,0.2457,3,N,5.0
NS5,23.0,16.0,28.0,37.0,47.0,16,949.0,square1,r,0.1967,0,N,5.0
NS5,24.0,20.0,21.0,38.0,49.0,38,987.0,square3,f,0.2213,2,N,5.0
NS5,25.0,22.0,17.0,34.0,46.0,46,1033.0,square4,i,0.1005,3,N,5.0
NS5,26.0,30.0,16.0,32.0,50.0,50,1083.0,square4,i,0.0338,3,N,5.0
NS5,27.0,21.0,20.0,35.0,42.0,42,1125.0,square4,i,0.0165,3,N,5.0
NS5,28.0,20.0,23.0,39.0,42.0,23,1148.0,square2,j,0.0004,1,N,5.0
NS5,29.0,21.0,18.0,39.0,41.0,41,1189.0,square4,i,0.1173,3,N,5.0
NS5,30.0,20.0,11.0,41.0,44.0,20,1209.0,square1,r,0.0522,0,N,5.0
NS5,31.0,20.0,9.0,36.0,43.0,36,1245.0,square3,f,0.0501,2,N,5.0
NS5,32.0,21.0,13.0,35.0,46.0,46,1291.0,square4,i,0.1624,3,N,5.0
NS5,33.0,16.0,22.0,32.0,44.0,44,1335.0,square4,i,0.0438,3,N,5.0
NS5,34.0,20.0,20.0,33.0,37.0,37,1372.0,square4,i,0.0837,3,N,5.0
NS5,35.0,19.0,27.0,34.0,40.0,19,1391.0,square1,r,0.0291,0,N,5.0
NS5,36.0,20.0,23.0,31.0,37.0,23,1414.0,square2,j,0.1008,1,N,5.0
NS5,37.0,15.0,28.0,41.0,40.0,41,1455.0,square3,f,0.0351,2,N,5.0
NS5,38.0,18.0,21.0,45.0,37.0,37,1492.0,square4,i,0.1169,3,N,5.0
NS5,39.0,23.0,22.0,40.0,34.0,40,1532.0,square3,f,0.2006,2,N,5.0
NS5,40.0,22.0,25.0,44.0,26.0,44,1576.0,square3,f,0.1311,2,N,5.0
NS5,41.0,28.0,25.0,39.0,29.0,39,1615.0,square3,f,0.1189,2,N,5.0
NS5,42.0,27.0,27.0,42.0,35.0,27,1642.0,square2,j,0.1503,1,N,5.0
NS5,43.0,25.0,25.0,49.0,38.0,38,1680.0,square4,i,0.0214,3,N,5.0
NS5,44.0,24.0,26.0,42.0,30.0,24,1704.0,square1,r,0.1406,0,N,5.0
NS5,45.0,33.0,22.0,43.0,37.0,22,1726.0,square2,j,0.091,1,N,5.0
NS5,46.0,32.0,24.0,50.0,38.0,50,1776.0,square3,f,0.0003,2,N,5.0
NS5,47.0,39.0,25.0,52.0,29.0,29,1805.0,square4,i,0.1668,3,N,5.0
NS5,48.0,42.0,22.0,46.0,33.0,46,1851.0,square3,f,0.0151,2,N,5.0
NS5,49.0,40.0,26.0,40.0,33.0,40,1891.0,square3,f,0.6923,2,N,5.0
NS5,50.0,34.0,19.0,47.0,33.0,47,1938.0,square3,f,0.1815,2,N,5.0
NS5,51.0,29.0,25.0,45.0,29.0,45,1983.0,square3,f,0.0508,2,N,5.0
NS5,52.0,29.0,24.0,48.0,35.0,48,2031.0,square3,f,0.0005,2,N,5.0
NS5,53.0,24.0,25.0,45.0,40.0,45,2076.0,square3,f,0.2157,2,N,5.0
NS5,54.0,26.0,25.0,51.0,36.0,51,2127.0,square3,f,0.0797,2,N,5.0
NS5,55.0,25.0,28.0,56.0,34.0,56,2183.0,square3,f,0.1669,2,N,5.0
NS5,56.0,23.0,27.0,54.0,36.0,27,2210.0,square2,j,0.1668,1,N,5.0
NS5,57.0,19.0,25.0,51.0,31.0,51,2261.0,square3,f,0.0004,2,N,5.0
NS5,58.0,20.0,30.0,53.0,29.0,29,2290.0,square4,i,0.117,3,N,5.0
NS5,59.0,17.0,30.0,52.0,28.0,17,2307.0,square1,r,0.0424,0,N,5.0
NS5,60.0,15.0,30.0,55.0,30.0,55,2362.0,square3,f,0.125,2,N,5.0
NS5,61.0,22.0,29.0,54.0,30.0,54,2416.0,square3,f,0.0587,2,N,5.0
NS5,62.0,18.0,31.0,55.0,32.0,31,2447.0,square2,j,0.0003,1,N,5.0
NS5,63.0,19.0,31.0,51.0,37.0,37,2484.0,square4,i,0.0665,3,N,5.0
NS5,64.0,20.0,30.0,45.0,35.0,20,2504.0,square1,r,0.0835,0,N,5.0
NS5,65.0,24.0,21.0,55.0,38.0,55,2559.0,square3,f,0.1864,2,N,5.0
NS5,66.0,22.0,29.0,58.0,36.0,58,2617.0,square3,f,0.061,2,N,5.0
NS5,67.0,22.0,26.0,51.0,36.0,51,2668.0,square3,f,0.0149,2,N,5.0
NS5,68.0,20.0,28.0,52.0,36.0,52,2720.0,square3,f,0.0501,2,N,5.0
NS5,69.0,18.0,27.0,52.0,40.0,52,2772.0,square3,f,0.2164,2,N,5.0
NS5,70.0,22.0,34.0,55.0,39.0,55,2827.0,square3,f,0.1171,2,N,5.0
NS5,71.0,27.0,37.0,59.0,41.0,59,2886.0,square3,f,0.0465,2,N,5.0
NS5,72.0,27.0,37.0,57.0,40.0,57,2943.0,square3,f,0.1756,2,N,5.0
NS5,73.0,35.0,36.0,55.0,38.0,55,2998.0,square3,f,0.2468,2,N,5.0
NS5,74.0,27.0,36.0,52.0,36.0,52,3050.0,square3,f,0.1372,2,N,5.0
NS5,75.0,31.0,40.0,53.0,38.0,40,3090.0,square2,j,0.0998,1,N,5.0
NS5,76.0,33.0,41.0,59.0,35.0,35,3125.0,square4,i,0.0162,3,N,5.0
NS5,77.0,33.0,42.0,56.0,38.0,33,3158.0,square1,r,0.2274,0,N,5.0
NS5,78.0,30.0,42.0,53.0,37.0,53,3211.0,square3,f,0.0163,2,N,5.0
NS5,79.0,27.0,49.0,51.0,44.0,51,3262.0,square3,f,0.05,2,N,5.0
NS5,80.0,31.0,49.0,45.0,44.0,45,3307.0,square3,f,0.1169,2,N,5.0
NS5,81.0,33.0,51.0,48.0,43.0,51,3358.0,square2,j,0.0828,1,N,5.0
NS5,82.0,31.0,54.0,41.0,43.0,43,3401.0,square4,i,0.0728,3,N,5.0
NS5,83.0,25.0,57.0,42.0,40.0,25,3426.0,square1,r,0.0727,0,N,5.0
NS5,84.0,36.0,57.0,45.0,38.0,57,3483.0,square2,j,0.0556,1,N,5.0
NS5,85.0,36.0,62.0,44.0,42.0,62,3545.0,square2,j,0.1005,1,N,5.0
NS5,86.0,33.0,55.0,48.0,43.0,55,3600.0,square2,j,0.1606,1,N,5.0
NS5,87.0,37.0,53.0,44.0,46.0,53,3653.0,square2,j,0.0506,1,N,5.0
NS5,88.0,36.0,54.0,41.0,48.0,54,3707.0,square2,j,0.0686,1,N,5.0
NS5,89.0,39.0,62.0,47.0,47.0,62,3769.0,square2,j,0.1172,1,N,5.0
NS5,90.0,37.0,62.0,51.0,48.0,62,3831.0,square2,j,0.0712,1,N,5.0
NS5,91.0,40.0,64.0,48.0,53.0,64,3895.0,square2,j,0.0699,1,N,5.0
NS5,92.0,42.0,64.0,51.0,55.0,55,3950.0,square4,i,0.0356,3,N,5.0
NS5,93.0,39.0,63.0,51.0,53.0,39,3989.0,square1,r,0.1354,0,N,5.0
NS5,94.0,41.0,60.0,50.0,58.0,50,4039.0,square3,f,0.0165,2,N,5.0
NS5,95.0,36.0,55.0,53.0,52.0,55,4094.0,square2,j,0.2002,1,N,5.0
NS5,96.0,36.0,56.0,55.0,56.0,56,4150.0,square2,j,0.067,1,N,5.0
NS5,97.0,28.0,52.0,57.0,53.0,52,4202.0,square2,j,0.2004,1,N,5.0
NS5,98.0,29.0,53.0,53.0,43.0,53,4255.0,square2,j,0.0588,1,N,5.0
NS5,99.0,25.0,55.0,53.0,46.0,46,4301.0,square4,i,0.1333,3,N,5.0
NS7,0.0,26.0,62.0,36.0,41.0,41,41.0,square4,r,1.301,3,N,7.0
NS7,1.0,31.0,61.0,40.0,42.0,61,102.0,square2,i,0.1333,1,N,7.0
NS7,2.0,30.0,60.0,46.0,41.0,46,148.0,square3,j,0.098,2,N,7.0
NS7,3.0,27.0,57.0,46.0,39.0,27,175.0,square1,f,0.1445,0,N,7.0
NS7,4.0,20.0,58.0,45.0,39.0,58,233.0,square2,i,0.1335,1,N,7.0
NS7,5.0,29.0,57.0,46.0,42.0,57,290.0,square2,i,0.0668,1,N,7.0
NS7,6.0,28.0,61.0,44.0,40.0,61,351.0,square2,i,0.1988,1,N,7.0
NS7,7.0,24.0,56.0,46.0,40.0,56,407.0,square2,i,0.0477,1,N,7.0
NS7,8.0,25.0,66.0,45.0,36.0,66,473.0,square2,i,0.0958,1,N,7.0
NS7,9.0,27.0,65.0,46.0,40.0,65,538.0,square2,i,0.1333,1,N,7.0
NS7,10.0,27.0,65.0,41.0,46.0,65,603.0,square2,i,0.1501,1,N,7.0
NS7,11.0,26.0,58.0,40.0,51.0,58,661.0,square2,i,0.0004,1,N,7.0
NS7,12.0,19.0,64.0,43.0,57.0,64,725.0,square2,i,0.0004,1,N,7.0
NS7,13.0,21.0,64.0,43.0,54.0,54,779.0,square4,r,0.0003,3,N,7.0
NS7,14.0,26.0,67.0,44.0,55.0,44,823.0,square3,j,0.1841,2,N,7.0
NS7,15.0,20.0,64.0,40.0,61.0,20,843.0,square1,f,0.0833,0,N,7.0
NS7,16.0,20.0,61.0,38.0,66.0,61,904.0,square2,i,0.0999,1,N,7.0
NS7,17.0,20.0,56.0,39.0,64.0,56,960.0,square2,i,0.0506,1,N,7.0
NS7,18.0,21.0,56.0,33.0,65.0,65,1025.0,square4,r,0.2002,3,N,7.0
NS7,19.0,21.0,56.0,36.0,68.0,68,1093.0,square4,r,0.1996,3,N,7.0
NS7,20.0,26.0,58.0,37.0,64.0,64,1157.0,square4,r,0.0838,3,N,7.0
NS7,21.0,29.0,62.0,36.0,61.0,61,1218.0,square4,r,0.1701,3,N,7.0
NS7,22.0,24.0,63.0,37.0,55.0,55,1273.0,square4,r,0.0329,3,N,7.0
NS7,23.0,26.0,64.0,38.0,54.0,54,1327.0,square4,r,0.2168,3,N,7.0
NS7,24.0,18.0,65.0,39.0,53.0,65,1392.0,square2,i,0.0165,1,N,7.0
NS7,25.0,20.0,62.0,36.0,53.0,36,1428.0,square3,j,0.0399,2,N,7.0
NS7,26.0,24.0,56.0,39.0,52.0,24,1452.0,square1,f,0.0259,0,N,7.0
NS7,27.0,31.0,58.0,36.0,51.0,58,1510.0,square2,i,0.0835,1,N,7.0
NS7,28.0,28.0,59.0,42.0,53.0,59,1569.0,square2,i,0.0831,1,N,7.0
NS7,29.0,30.0,57.0,36.0,51.0,57,1626.0,square2,i,0.1169,1,N,7.0
NS7,30.0,29.0,57.0,35.0,53.0,57,1683.0,square2,i,0.116,1,N,7.0
NS7,31.0,27.0,59.0,37.0,48.0,59,1742.0,square2,i,0.1001,1,N,7.0
NS7,32.0,29.0,59.0,38.0,45.0,45,1787.0,square4,r,0.074,3,N,7.0
NS7,33.0,35.0,58.0,37.0,52.0,37,1824.0,square3,j,0.0302,2,N,7.0
NS7,34.0,33.0,59.0,43.0,52.0,33,1857.0,square1,f,0.1388,0,N,7.0
NS7,35.0,37.0,61.0,43.0,49.0,61,1918.0,square2,i,0.1004,1,N,7.0
NS7,36.0,36.0,62.0,48.0,54.0,62,1980.0,square2,i,0.1668,1,N,7.0
NS7,37.0,35.0,62.0,46.0,57.0,62,2042.0,square2,i,0.1843,1,N,7.0
NS7,38.0,37.0,59.0,52.0,53.0,59,2101.0,square2,i,0.0003,1,N,7.0
NS7,39.0,32.0,57.0,50.0,59.0,57,2158.0,square2,i,0.1771,1,N,7.0
NS7,40.0,30.0,56.0,54.0,59.0,59,2217.0,square4,r,0.0002,3,N,7.0
NS7,41.0,36.0,54.0,52.0,56.0,56,2273.0,square4,r,0.1373,3,N,7.0
NS7,42.0,30.0,55.0,57.0,55.0,55,2328.0,square4,r,0.1529,3,N,7.0
NS7,43.0,35.0,52.0,54.0,58.0,52,2380.0,square2,i,0.0003,1,N,7.0
NS7,44.0,30.0,56.0,55.0,57.0,57,2437.0,square4,r,0.1792,3,N,7.0
NS7,45.0,28.0,63.0,57.0,58.0,57,2494.0,square3,j,0.0998,2,N,7.0
NS7,46.0,29.0,60.0,58.0,57.0,29,2523.0,square1,f,0.0003,0,N,7.0
NS7,47.0,31.0,58.0,54.0,53.0,54,2577.0,square3,j,0.0163,2,N,7.0
NS7,48.0,27.0,58.0,59.0,48.0,59,2636.0,square3,j,0.1171,2,N,7.0
NS7,49.0,28.0,48.0,60.0,54.0,60,2696.0,square3,j,0.1009,2,N,7.0
NS7,50.0,27.0,49.0,62.0,53.0,62,2758.0,square3,j,0.1841,2,N,7.0
NS7,51.0,41.0,49.0,63.0,56.0,63,2821.0,square3,j,0.0833,2,N,7.0
NS7,52.0,36.0,43.0,66.0,56.0,66,2887.0,square3,j,0.0337,2,N,7.0
NS7,53.0,41.0,51.0,69.0,54.0,69,2956.0,square3,j,0.0614,2,N,7.0
NS7,54.0,37.0,52.0,63.0,53.0,63,3019.0,square3,j,0.0832,2,N,7.0
NS7,55.0,40.0,51.0,60.0,54.0,60,3079.0,square3,j,0.2019,2,N,7.0
NS7,56.0,45.0,57.0,63.0,59.0,63,3142.0,square3,j,0.0484,2,N,7.0
NS7,57.0,42.0,49.0,64.0,53.0,64,3206.0,square3,j,0.0662,2,N,7.0
NS7,58.0,39.0,49.0,62.0,52.0,52,3258.0,square4,r,0.067,3,N,7.0
NS7,59.0,47.0,49.0,67.0,54.0,49,3307.0,square2,i,0.0174,1,N,7.0
NS7,60.0,43.0,53.0,70.0,55.0,43,3350.0,square1,f,0.0099,0,N,7.0
NS7,61.0,41.0,48.0,69.0,52.0,69,3419.0,square3,j,0.184,2,N,7.0
NS7,62.0,39.0,48.0,65.0,54.0,65,3484.0,square3,j,0.0724,2,N,7.0
NS7,63.0,38.0,48.0,64.0,56.0,64,3548.0,square3,j,0.0165,2,N,7.0
NS7,64.0,34.0,46.0,65.0,51.0,65,3613.0,square3,j,0.2003,2,N,7.0
NS7,65.0,43.0,51.0,63.0,53.0,63,3676.0,square3,j,0.0672,2,N,7.0
NS7,66.0,41.0,51.0,64.0,50.0,64,3740.0,square3,j,0.0915,2,N,7.0
NS7,67.0,44.0,51.0,63.0,54.0,63,3803.0,square3,j,0.0841,2,N,7.0
NS7,68.0,42.0,49.0,62.0,48.0,62,3865.0,square3,j,0.1035,2,N,7.0
NS7,69.0,41.0,50.0,63.0,52.0,63,3928.0,square3,j,0.0003,2,N,7.0
NS7,70.0,45.0,45.0,59.0,53.0,59,3987.0,square3,j,0.0196,2,N,7.0
NS7,71.0,44.0,40.0,52.0,52.0,52,4039.0,square4,r,0.1392,3,N,7.0
NS7,72.0,51.0,38.0,55.0,47.0,38,4077.0,square2,i,0.1007,1,N,7.0
NS7,73.0,42.0,36.0,49.0,47.0,42,4119.0,square1,f,0.0335,0,N,7.0
NS7,74.0,44.0,40.0,46.0,48.0,46,4165.0,square3,j,0.167,2,N,7.0
NS7,75.0,46.0,38.0,45.0,53.0,53,4218.0,square4,r,0.0844,3,N,7.0
NS7,76.0,48.0,44.0,40.0,53.0,53,4271.0,square4,r,0.1332,3,N,7.0
NS7,77.0,45.0,42.0,40.0,55.0,55,4326.0,square4,r,0.1335,3,N,7.0
NS7,78.0,41.0,39.0,40.0,56.0,56,4382.0,square4,r,0.0003,3,N,7.0
NS7,79.0,44.0,38.0,41.0,55.0,55,4437.0,square4,r,0.0576,3,N,7.0
NS7,80.0,48.0,49.0,48.0,62.0,62,4499.0,square4,r,0.169,3,N,7.0
NS7,81.0,44.0,47.0,43.0,61.0,61,4560.0,square4,r,0.2005,3,N,7.0
NS7,82.0,45.0,46.0,38.0,54.0,54,4614.0,square4,r,0.2058,3,N,7.0
NS7,83.0,44.0,40.0,41.0,57.0,57,4671.0,square4,r,0.0171,3,N,7.0
NS7,84.0,47.0,46.0,41.0,53.0,53,4724.0,square4,r,0.1821,3,N,7.0
NS7,85.0,50.0,45.0,45.0,54.0,45,4769.0,square2,i,0.0672,1,N,7.0
NS7,86.0,45.0,43.0,44.0,54.0,44,4813.0,square3,j,0.1499,2,N,7.0
NS7,87.0,43.0,47.0,49.0,55.0,43,4856.0,square1,f,0.0174,0,N,7.0
NS7,88.0,40.0,48.0,44.0,58.0,58,4914.0,square4,r,0.0262,3,N,7.0
NS7,89.0,40.0,44.0,47.0,54.0,54,4968.0,square4,r,0.0003,3,N,7.0
NS7,90.0,38.0,43.0,48.0,55.0,55,5023.0,square4,r,0.1681,3,N,7.0
NS7,91.0,36.0,45.0,43.0,55.0,45,5068.0,square2,i,0.0386,1,N,7.0
NS7,92.0,29.0,44.0,45.0,53.0,53,5121.0,square4,r,0.067,3,N,7.0
NS7,93.0,33.0,46.0,44.0,57.0,44,5165.0,square3,j,0.1341,2,N,7.0
NS7,94.0,32.0,43.0,52.0,47.0,47,5212.0,square4,r,0.0003,3,N,7.0
NS7,95.0,41.0,46.0,50.0,51.0,46,5258.0,square2,i,0.0835,1,N,7.0
NS7,96.0,38.0,41.0,46.0,52.0,38,5296.0,square1,f,0.1846,0,N,7.0
NS7,97.0,41.0,44.0,40.0,52.0,40,5336.0,square3,j,0.0827,2,N,7.0
NS7,98.0,45.0,41.0,41.0,55.0,55,5391.0,square4,r,0.1164,3,N,7.0
NS7,99.0,39.0,41.0,39.0,53.0,41,5432.0,square2,i,0.0004,1,N,7.0
NS12,0.0,80.0,24.0,40.0,79.0,80,80.0,square1,r,0.2665,0,N,12.0
NS12,1.0,78.0,28.0,44.0,78.0,44,124.0,square3,f,0.1994,2,N,12.0
NS12,2.0,77.0,28.0,37.0,82.0,82,206.0,square4,i,0.0678,3,N,12.0
NS12,3.0,76.0,33.0,39.0,82.0,33,239.0,square2,j,0.0522,1,N,12.0
NS12,4.0,79.0,37.0,34.0,78.0,79,318.0,square1,r,0.1171,0,N,12.0
NS12,5.0,83.0,33.0,28.0,81.0,81,399.0,square4,i,0.1215,3,N,12.0
NS12,6.0,77.0,39.0,33.0,80.0,80,479.0,square4,i,0.0005,3,N,12.0
NS12,7.0,77.0,40.0,25.0,85.0,85,564.0,square4,i,0.0663,3,N,12.0
NS12,8.0,77.0,40.0,29.0,87.0,87,651.0,square4,i,0.1083,3,N,12.0
NS12,9.0,70.0,42.0,29.0,88.0,88,739.0,square4,i,0.0384,3,N,12.0
NS12,10.0,65.0,47.0,31.0,86.0,86,825.0,square4,i,0.1007,3,N,12.0
NS12,11.0,67.0,46.0,26.0,84.0,26,851.0,square3,f,0.0003,2,N,12.0
NS12,12.0,67.0,36.0,26.0,84.0,36,887.0,square2,j,0.2002,1,N,12.0
NS12,13.0,69.0,33.0,23.0,82.0,82,969.0,square4,i,0.1166,3,N,12.0
NS12,14.0,66.0,35.0,20.0,81.0,66,1035.0,square1,r,0.0863,0,N,12.0
NS12,15.0,66.0,30.0,23.0,78.0,78,1113.0,square4,i,0.1692,3,N,12.0
NS12,16.0,69.0,28.0,17.0,74.0,74,1187.0,square4,i,0.1162,3,N,12.0
NS12,17.0,66.0,32.0,20.0,78.0,78,1265.0,square4,i,0.2339,3,N,12.0
NS12,18.0,60.0,33.0,26.0,76.0,76,1341.0,square4,i,0.3562,3,N,12.0
NS12,19.0,63.0,37.0,23.0,76.0,76,1417.0,square4,i,0.1608,3,N,12.0
NS12,20.0,59.0,36.0,24.0,78.0,78,1495.0,square4,i,0.0195,3,N,12.0
NS12,21.0,59.0,35.0,25.0,79.0,59,1554.0,square1,r,0.0766,0,N,12.0
NS12,22.0,61.0,37.0,26.0,88.0,37,1591.0,square2,j,0.1164,1,N,12.0
NS12,23.0,61.0,37.0,25.0,83.0,25,1616.0,square3,f,0.0316,2,N,12.0
NS12,24.0,61.0,39.0,26.0,85.0,85,1701.0,square4,i,0.0568,3,N,12.0
NS12,25.0,63.0,30.0,29.0,77.0,77,1778.0,square4,i,0.139,3,N,12.0
NS12,26.0,58.0,39.0,29.0,83.0,83,1861.0,square4,i,0.0727,3,N,12.0
NS12,27.0,60.0,34.0,32.0,85.0,85,1946.0,square4,i,0.0186,3,N,12.0
NS12,28.0,63.0,32.0,35.0,77.0,77,2023.0,square4,i,0.0999,3,N,12.0
NS12,29.0,61.0,35.0,23.0,79.0,79,2102.0,square4,i,0.0697,3,N,12.0
NS12,30.0,57.0,27.0,30.0,69.0,69,2171.0,square4,i,0.1,3,N,12.0
NS12,31.0,64.0,29.0,26.0,69.0,69,2240.0,square4,i,0.1476,3,N,12.0
NS12,32.0,65.0,29.0,33.0,69.0,69,2309.0,square4,i,0.356,3,N,12.0
NS12,33.0,68.0,29.0,33.0,73.0,73,2382.0,square4,i,0.0497,3,N,12.0
NS12,34.0,69.0,29.0,29.0,67.0,69,2451.0,square1,r,0.0336,0,N,12.0
NS12,35.0,66.0,32.0,30.0,61.0,32,2483.0,square2,j,0.0338,1,N,12.0
NS12,36.0,64.0,27.0,26.0,58.0,26,2509.0,square3,f,0.1323,2,N,12.0
NS12,37.0,65.0,32.0,27.0,67.0,67,2576.0,square4,i,0.2856,3,N,12.0
NS12,38.0,63.0,32.0,30.0,64.0,64,2640.0,square4,i,0.3789,3,N,12.0
NS12,39.0,65.0,30.0,30.0,70.0,70,2710.0,square4,i,0.1236,3,N,12.0
NS12,40.0,71.0,37.0,32.0,69.0,71,2781.0,square1,r,0.1172,0,N,12.0
NS12,41.0,66.0,45.0,37.0,69.0,66,2847.0,square1,r,0.2004,0,N,12.0
NS12,42.0,75.0,42.0,35.0,65.0,65,2912.0,square4,i,0.1,3,N,12.0
NS12,43.0,82.0,39.0,35.0,57.0,39,2951.0,square2,j,0.1169,1,N,12.0
NS12,44.0,81.0,34.0,34.0,61.0,34,2985.0,square3,f,0.0834,2,N,12.0
NS12,45.0,74.0,33.0,36.0,59.0,74,3059.0,square1,r,0.1005,0,N,12.0
NS12,46.0,77.0,32.0,40.0,57.0,77,3136.0,square1,r,0.1668,0,N,12.0
NS12,47.0,79.0,32.0,39.0,60.0,79,3215.0,square1,r,0.1169,0,N,12.0
NS12,48.0,80.0,28.0,34.0,62.0,80,3295.0,square1,r,0.0329,0,N,12.0
NS12,49.0,76.0,23.0,37.0,64.0,76,3371.0,square1,r,0.033,0,N,12.0
NS12,50.0,75.0,25.0,37.0,65.0,75,3446.0,square1,r,0.1646,0,N,12.0
NS12,51.0,74.0,25.0,39.0,70.0,74,3520.0,square1,r,0.0004,0,N,12.0
NS12,52.0,79.0,26.0,40.0,73.0,79,3599.0,square1,r,0.2835,0,N,12.0
NS12,53.0,75.0,25.0,33.0,69.0,75,3674.0,square1,r,0.0499,0,N,12.0
NS12,54.0,79.0,25.0,38.0,68.0,68,3742.0,square4,i,0.1341,3,N,12.0
NS12,55.0,81.0,22.0,34.0,68.0,81,3823.0,square1,r,0.1669,0,N,12.0
NS12,56.0,72.0,29.0,39.0,69.0,39,3862.0,square3,f,0.1333,2,N,12.0
NS12,57.0,72.0,28.0,38.0,73.0,28,3890.0,square2,j,0.0165,1,N,12.0
NS12,58.0,69.0,25.0,32.0,71.0,69,3959.0,square1,r,0.0703,0,N,12.0
NS12,59.0,75.0,30.0,33.0,69.0,75,4034.0,square1,r,0.2506,0,N,12.0
NS12,60.0,68.0,28.0,39.0,68.0,68,4102.0,square1,r,0.0164,0,N,12.0
NS12,61.0,69.0,32.0,37.0,60.0,69,4171.0,square1,r,0.4169,0,N,12.0
NS12,62.0,63.0,37.0,39.0,55.0,63,4234.0,square1,r,0.1341,0,N,12.0
NS12,63.0,63.0,38.0,43.0,54.0,54,4288.0,square4,i,0.0003,3,N,12.0
NS12,64.0,60.0,30.0,35.0,55.0,30,4318.0,square2,j,0.0615,1,N,12.0
NS12,65.0,60.0,37.0,34.0,55.0,34,4352.0,square3,f,0.2004,2,N,12.0
NS12,66.0,61.0,40.0,35.0,51.0,61,4413.0,square1,r,0.1339,0,N,12.0
NS12,67.0,65.0,37.0,35.0,53.0,65,4478.0,square1,r,0.0502,0,N,12.0
NS12,68.0,62.0,33.0,38.0,50.0,50,4528.0,square4,i,0.0839,3,N,12.0
NS12,69.0,56.0,41.0,29.0,54.0,56,4584.0,square1,r,0.184,0,N,12.0
NS12,70.0,56.0,39.0,30.0,57.0,39,4623.0,square2,j,0.0567,1,N,12.0
NS12,71.0,61.0,40.0,33.0,64.0,33,4656.0,square3,f,0.1831,2,N,12.0
NS12,72.0,51.0,42.0,35.0,67.0,67,4723.0,square4,i,0.0003,3,N,12.0
NS12,73.0,56.0,39.0,39.0,67.0,56,4779.0,square1,r,0.1341,0,N,12.0
NS12,74.0,50.0,38.0,40.0,63.0,63,4842.0,square4,i,0.1343,3,N,12.0
NS12,75.0,52.0,37.0,41.0,67.0,67,4909.0,square4,i,0.1034,3,N,12.0
NS12,76.0,47.0,40.0,46.0,67.0,67,4976.0,square4,i,0.0005,3,N,12.0
NS12,77.0,45.0,35.0,47.0,67.0,67,5043.0,square4,i,0.0002,3,N,12.0
NS12,78.0,44.0,38.0,52.0,66.0,66,5109.0,square4,i,0.0174,3,N,12.0
NS12,79.0,41.0,38.0,52.0,64.0,64,5173.0,square4,i,0.0004,3,N,12.0
NS12,80.0,36.0,41.0,57.0,58.0,36,5209.0,square1,r,0.1669,0,N,12.0
NS12,81.0,36.0,42.0,66.0,63.0,42,5251.0,square2,j,0.0466,1,N,12.0
NS12,82.0,35.0,44.0,65.0,62.0,65,5316.0,square3,f,0.0172,2,N,12.0
NS12,83.0,37.0,42.0,70.0,65.0,65,5381.0,square4,i,0.1006,3,N,12.0
NS12,84.0,35.0,39.0,72.0,58.0,58,5439.0,square4,i,0.0833,3,N,12.0
NS12,85.0,30.0,40.0,62.0,55.0,55,5494.0,square4,i,0.1345,3,N,12.0
NS12,86.0,36.0,40.0,65.0,59.0,59,5553.0,square4,i,0.2,3,N,12.0
NS12,87.0,31.0,41.0,67.0,57.0,57,5610.0,square4,i,0.1331,3,N,12.0
NS12,88.0,30.0,50.0,67.0,52.0,30,5640.0,square1,r,0.1404,0,N,12.0
NS12,89.0,28.0,41.0,69.0,54.0,41,5681.0,square2,j,0.0027,1,N,12.0
NS12,90.0,29.0,41.0,61.0,57.0,61,5742.0,square3,f,0.1168,2,N,12.0
NS12,91.0,30.0,36.0,59.0,54.0,59,5801.0,square3,f,0.0977,2,N,12.0
NS12,92.0,28.0,29.0,60.0,54.0,60,5861.0,square3,f,0.1072,2,N,12.0
NS12,93.0,30.0,35.0,62.0,52.0,62,5923.0,square3,f,0.1517,2,N,12.0
NS12,94.0,30.0,36.0,60.0,56.0,60,5983.0,square3,f,0.6838,2,N,12.0
NS12,95.0,29.0,33.0,63.0,60.0,63,6046.0,square3,f,0.1839,2,N,12.0
NS12,96.0,29.0,30.0,59.0,59.0,59,6105.0,square3,f,0.1334,2,N,12.0
NS12,97.0,31.0,35.0,61.0,61.0,61,6166.0,square3,f,0.1833,2,N,12.0
NS12,98.0,31.0,40.0,67.0,58.0,67,6233.0,square3,f,0.1651,2,N,12.0
NS12,99.0,33.0,37.0,65.0,67.0,65,6298.0,square3,f,0.1173,2,N,12.0
