block,Trial,square1,square2,square3,square4,currPoints,totalPoints,square,choiceKey.keys,choiceKey.rt,armNum,blockType,blockNum
prac,0.0,100.0,0.0,0.0,0.0,99999,0.0,invalid,,,-1,p,0.0
prac,1.0,100.0,0.0,0.0,0.0,0,0.0,square4,,,3,p,0.0
prac,2.0,100.0,0.0,0.0,0.0,0,0.0,square4,,,3,p,0.0
prac,3.0,100.0,0.0,0.0,0.0,99999,0.0,invalid,,,-1,p,0.0
prac,4.0,100.0,0.0,0.0,0.0,99999,0.0,invalid,,,-1,p,0.0
prac,5.0,100.0,0.0,0.0,0.0,0,0.0,square4,,,3,p,0.0
prac,6.0,100.0,0.0,0.0,0.0,99999,0.0,invalid,,,-1,p,0.0
prac,7.0,100.0,0.0,0.0,0.0,99999,0.0,invalid,,,-1,p,0.0
prac,8.0,100.0,0.0,0.0,0.0,99999,0.0,invalid,,,-1,p,0.0
prac,9.0,100.0,0.0,0.0,0.0,99999,0.0,invalid,,,-1,p,0.0
S3,0.0,38.0,48.0,42.0,57.0,99999,0.0,invalid,,,-1,S,3.0
S3,1.0,29.0,43.0,51.0,57.0,51,51.0,square3,r,0.112,2,S,3.0
S3,2.0,41.0,49.0,46.0,49.0,99999,51.0,invalid,,,-1,S,3.0
S3,3.0,44.0,50.0,45.0,52.0,99999,51.0,invalid,,,-1,S,3.0
S3,4.0,37.0,51.0,45.0,58.0,99999,51.0,invalid,,,-1,S,3.0
S3,5.0,47.0,43.0,42.0,49.0,99999,51.0,invalid,,,-1,S,3.0
S3,6.0,44.0,53.0,51.0,58.0,99999,51.0,invalid,,,-1,S,3.0
S3,7.0,39.0,47.0,46.0,54.0,46,97.0,square3,r,0.0614,2,S,3.0
S3,8.0,43.0,53.0,41.0,52.0,41,138.0,square3,r,0.0976,2,S,3.0
S3,9.0,42.0,46.0,41.0,53.0,41,179.0,square3,r,1.0248,2,S,3.0
S3,10.0,37.0,49.0,49.0,55.0,99999,179.0,invalid,,,-1,S,3.0
S3,11.0,40.0,47.0,36.0,59.0,99999,179.0,invalid,,,-1,S,3.0
S3,12.0,46.0,51.0,39.0,56.0,39,218.0,square3,r,1.9285,2,S,3.0
S3,13.0,39.0,48.0,45.0,57.0,45,263.0,square3,r,0.222,2,S,3.0
S3,14.0,39.0,55.0,43.0,47.0,43,306.0,square3,r,0.3153,2,S,3.0
S3,15.0,46.0,46.0,47.0,52.0,47,353.0,square3,r,0.4608,2,S,3.0
S3,16.0,42.0,49.0,50.0,55.0,50,403.0,square3,r,0.2834,2,S,3.0
S3,17.0,45.0,45.0,56.0,47.0,56,459.0,square3,r,0.3317,2,S,3.0
S3,18.0,46.0,43.0,45.0,50.0,45,504.0,square3,r,0.4095,2,S,3.0
S3,19.0,41.0,47.0,50.0,55.0,50,554.0,square3,r,0.6273,2,S,3.0
S3,20.0,45.0,52.0,49.0,52.0,49,603.0,square3,r,0.3861,2,S,3.0
S3,21.0,40.0,43.0,47.0,46.0,99999,603.0,invalid,,,-1,S,3.0
S3,22.0,45.0,46.0,44.0,47.0,44,647.0,square3,r,0.1665,2,S,3.0
S3,23.0,36.0,50.0,42.0,46.0,42,689.0,square3,r,0.5519,2,S,3.0
S3,24.0,42.0,54.0,49.0,55.0,49,738.0,square3,r,0.3777,2,S,3.0
S3,25.0,43.0,51.0,44.0,54.0,44,782.0,square3,r,0.3027,2,S,3.0
S3,26.0,49.0,50.0,52.0,52.0,52,834.0,square3,r,0.7151,2,S,3.0
S3,27.0,47.0,52.0,44.0,50.0,44,878.0,square3,r,0.4101,2,S,3.0
S3,28.0,37.0,48.0,40.0,47.0,40,918.0,square3,r,0.3098,2,S,3.0
S3,29.0,50.0,43.0,50.0,57.0,50,968.0,square3,r,0.661,2,S,3.0
S3,30.0,50.0,50.0,46.0,47.0,46,1014.0,square3,r,1.7264,2,S,3.0
S3,31.0,37.0,53.0,49.0,56.0,49,1063.0,square3,r,0.5509,2,S,3.0
S3,32.0,42.0,50.0,43.0,58.0,43,1106.0,square3,r,0.001,2,S,3.0
S3,33.0,44.0,49.0,46.0,59.0,46,1152.0,square3,r,0.0156,2,S,3.0
S3,34.0,42.0,50.0,50.0,58.0,50,1202.0,square3,r,0.2948,2,S,3.0
S3,35.0,43.0,46.0,45.0,50.0,45,1247.0,square3,r,0.1964,2,S,3.0
S3,36.0,46.0,52.0,50.0,48.0,50,1297.0,square3,r,0.1597,2,S,3.0
S3,37.0,48.0,50.0,49.0,52.0,99999,1297.0,invalid,,,-1,S,3.0
S3,38.0,39.0,43.0,50.0,55.0,50,1347.0,square3,r,0.8265,2,S,3.0
S3,39.0,50.0,53.0,46.0,57.0,46,1393.0,square3,r,0.4262,2,S,3.0
S3,40.0,41.0,46.0,48.0,55.0,48,1441.0,square3,r,0.3469,2,S,3.0
S3,41.0,49.0,49.0,40.0,56.0,40,1481.0,square3,r,0.0155,2,S,3.0
S3,42.0,47.0,49.0,43.0,48.0,43,1524.0,square3,r,0.3619,2,S,3.0
S3,43.0,46.0,43.0,41.0,58.0,41,1565.0,square3,r,0.2586,2,S,3.0
S3,44.0,46.0,52.0,51.0,55.0,99999,1565.0,invalid,,,-1,S,3.0
S3,45.0,46.0,41.0,46.0,49.0,46,1611.0,square3,r,1.0341,2,S,3.0
S3,46.0,32.0,56.0,40.0,50.0,40,1651.0,square3,r,0.3924,2,S,3.0
S3,47.0,42.0,49.0,44.0,51.0,44,1695.0,square3,r,0.4441,2,S,3.0
S3,48.0,36.0,45.0,38.0,50.0,38,1733.0,square3,r,0.6621,2,S,3.0
S3,49.0,45.0,48.0,47.0,52.0,47,1780.0,square3,r,0.3951,2,S,3.0
S10,0.0,72.0,76.0,80.0,64.0,64,64.0,square4,r,1.7577,3,S,10.0
S10,1.0,76.0,75.0,74.0,65.0,65,129.0,square4,r,0.2503,3,S,10.0
S10,2.0,70.0,72.0,79.0,74.0,74,203.0,square4,r,0.2017,3,S,10.0
S10,3.0,69.0,77.0,76.0,68.0,76,279.0,square3,i,0.478,2,S,10.0
S10,4.0,72.0,79.0,77.0,70.0,72,351.0,square1,f,1.3433,0,S,10.0
S10,5.0,68.0,74.0,72.0,64.0,68,419.0,square1,f,0.312,0,S,10.0
S10,6.0,70.0,77.0,72.0,62.0,77,496.0,square2,j,0.3132,1,S,10.0
S10,7.0,78.0,81.0,80.0,74.0,81,577.0,square2,j,0.0276,1,S,10.0
S10,8.0,78.0,78.0,82.0,66.0,78,655.0,square2,j,0.1641,1,S,10.0
S10,9.0,69.0,76.0,77.0,65.0,69,724.0,square1,f,0.0588,0,S,10.0
S10,10.0,72.0,78.0,72.0,75.0,72,796.0,square1,f,0.0014,0,S,10.0
S10,11.0,71.0,76.0,78.0,66.0,66,862.0,square4,r,0.2768,3,S,10.0
S10,12.0,73.0,83.0,79.0,69.0,69,931.0,square4,r,0.0825,3,S,10.0
S10,13.0,68.0,77.0,65.0,65.0,99999,931.0,invalid,,,-1,S,10.0
S10,14.0,69.0,84.0,79.0,65.0,99999,931.0,invalid,,,-1,S,10.0
S10,15.0,72.0,84.0,70.0,71.0,71,1002.0,square4,r,1.0291,3,S,10.0
S10,16.0,79.0,80.0,82.0,67.0,67,1069.0,square4,r,0.2611,3,S,10.0
S10,17.0,69.0,83.0,75.0,70.0,83,1152.0,square2,j,1.2329,1,S,10.0
S10,18.0,69.0,75.0,69.0,68.0,75,1227.0,square2,j,0.0747,1,S,10.0
S10,19.0,70.0,83.0,73.0,66.0,70,1297.0,square1,f,0.7984,0,S,10.0
S10,20.0,69.0,83.0,75.0,66.0,69,1366.0,square1,f,0.2142,0,S,10.0
S10,21.0,77.0,70.0,75.0,70.0,99999,1366.0,invalid,,,-1,S,10.0
S10,22.0,73.0,77.0,81.0,69.0,81,1447.0,square3,i,0.0987,2,S,10.0
S10,23.0,73.0,78.0,70.0,65.0,70,1517.0,square3,i,0.2004,2,S,10.0
S10,24.0,70.0,80.0,75.0,66.0,75,1592.0,square3,i,0.0456,2,S,10.0
S10,25.0,70.0,80.0,73.0,72.0,73,1665.0,square3,i,0.1721,2,S,10.0
S10,26.0,73.0,75.0,73.0,75.0,73,1738.0,square3,i,0.1798,2,S,10.0
S10,27.0,77.0,81.0,83.0,66.0,83,1821.0,square3,i,0.2103,2,S,10.0
S10,28.0,73.0,79.0,79.0,73.0,79,1900.0,square3,i,0.0432,2,S,10.0
S10,29.0,73.0,79.0,72.0,69.0,72,1972.0,square3,i,0.0183,2,S,10.0
S10,30.0,71.0,85.0,79.0,69.0,79,2051.0,square3,i,0.0016,2,S,10.0
S10,31.0,71.0,85.0,83.0,66.0,83,2134.0,square3,i,0.2299,2,S,10.0
S10,32.0,78.0,79.0,77.0,65.0,77,2211.0,square3,i,0.1922,2,S,10.0
S10,33.0,83.0,79.0,72.0,68.0,72,2283.0,square3,i,0.2024,2,S,10.0
S10,34.0,68.0,74.0,79.0,72.0,74,2357.0,square2,j,0.1672,1,S,10.0
S10,35.0,70.0,83.0,79.0,67.0,83,2440.0,square2,j,0.1773,1,S,10.0
S10,36.0,67.0,76.0,75.0,72.0,72,2512.0,square4,r,0.1855,3,S,10.0
S10,37.0,76.0,82.0,79.0,60.0,60,2572.0,square4,r,0.002,3,S,10.0
S10,38.0,72.0,75.0,69.0,68.0,68,2640.0,square4,r,0.0171,3,S,10.0
S10,39.0,73.0,78.0,76.0,70.0,70,2710.0,square4,r,0.0167,3,S,10.0
S10,40.0,76.0,77.0,66.0,60.0,60,2770.0,square4,r,0.023,3,S,10.0
S10,41.0,74.0,83.0,73.0,67.0,74,2844.0,square1,f,0.1049,0,S,10.0
S10,42.0,72.0,69.0,80.0,63.0,72,2916.0,square1,f,0.201,0,S,10.0
S10,43.0,69.0,74.0,72.0,68.0,69,2985.0,square1,f,0.0018,0,S,10.0
S10,44.0,67.0,76.0,70.0,65.0,67,3052.0,square1,f,0.0382,0,S,10.0
S10,45.0,76.0,81.0,74.0,72.0,72,3124.0,square4,r,0.7053,3,S,10.0
S10,46.0,76.0,79.0,76.0,66.0,66,3190.0,square4,r,0.1596,3,S,10.0
S10,47.0,67.0,81.0,84.0,60.0,60,3250.0,square4,r,0.0176,3,S,10.0
S10,48.0,73.0,83.0,75.0,66.0,83,3333.0,square2,j,1.3359,1,S,10.0
S10,49.0,66.0,77.0,74.0,71.0,77,3410.0,square2,j,0.0848,1,S,10.0
S1,0.0,72.0,58.0,70.0,66.0,70,70.0,square3,r,1.7632,2,S,1.0
S1,1.0,75.0,64.0,66.0,69.0,69,139.0,square4,f,0.5208,3,S,1.0
S1,2.0,75.0,62.0,62.0,79.0,75,214.0,square1,j,0.595,0,S,1.0
S1,3.0,68.0,62.0,63.0,69.0,62,276.0,square2,i,1.0738,1,S,1.0
S1,4.0,82.0,63.0,64.0,73.0,64,340.0,square3,r,0.6748,2,S,1.0
S1,5.0,66.0,70.0,65.0,73.0,73,413.0,square4,f,0.8276,3,S,1.0
S1,6.0,73.0,65.0,62.0,65.0,73,486.0,square1,j,0.5682,0,S,1.0
S1,7.0,70.0,61.0,65.0,66.0,61,547.0,square2,i,1.6271,1,S,1.0
S1,8.0,78.0,63.0,67.0,68.0,67,614.0,square3,r,0.8671,2,S,1.0
S1,9.0,74.0,67.0,66.0,68.0,68,682.0,square4,f,0.6819,3,S,1.0
S1,10.0,73.0,59.0,68.0,68.0,73,755.0,square1,j,0.6602,0,S,1.0
S1,11.0,76.0,65.0,62.0,81.0,65,820.0,square2,i,0.5117,1,S,1.0
S1,12.0,77.0,66.0,69.0,63.0,69,889.0,square3,r,0.5779,2,S,1.0
S1,13.0,75.0,63.0,68.0,73.0,73,962.0,square4,f,0.8789,3,S,1.0
S1,14.0,67.0,60.0,67.0,69.0,67,1029.0,square1,j,0.5967,0,S,1.0
S1,15.0,70.0,63.0,69.0,73.0,69,1098.0,square3,r,0.6265,2,S,1.0
S1,16.0,69.0,61.0,69.0,69.0,61,1159.0,square2,i,0.5359,1,S,1.0
S1,17.0,73.0,68.0,67.0,73.0,73,1232.0,square1,j,0.4172,0,S,1.0
S1,18.0,70.0,58.0,73.0,66.0,66,1298.0,square4,f,0.1446,3,S,1.0
S1,19.0,75.0,58.0,62.0,68.0,62,1360.0,square3,r,0.635,2,S,1.0
S1,20.0,76.0,58.0,72.0,67.0,76,1436.0,square1,j,1.3117,0,S,1.0
S1,21.0,69.0,66.0,66.0,67.0,67,1503.0,square4,f,0.282,3,S,1.0
S1,22.0,70.0,68.0,65.0,65.0,70,1573.0,square1,j,0.1644,0,S,1.0
S1,23.0,71.0,60.0,64.0,64.0,71,1644.0,square1,j,0.0325,0,S,1.0
S1,24.0,70.0,72.0,62.0,67.0,70,1714.0,square1,j,0.1333,0,S,1.0
S1,25.0,68.0,60.0,70.0,65.0,60,1774.0,square2,i,0.0938,1,S,1.0
S1,26.0,76.0,64.0,72.0,69.0,72,1846.0,square3,r,0.7104,2,S,1.0
S1,27.0,71.0,56.0,70.0,65.0,65,1911.0,square4,f,1.3106,3,S,1.0
S1,28.0,67.0,67.0,71.0,76.0,67,1978.0,square1,j,0.0019,0,S,1.0
S1,29.0,78.0,64.0,64.0,74.0,64,2042.0,square3,r,1.1092,2,S,1.0
S1,30.0,74.0,63.0,65.0,71.0,63,2105.0,square2,i,0.6748,1,S,1.0
S1,31.0,78.0,58.0,69.0,69.0,99999,2105.0,invalid,,,-1,S,1.0
S1,32.0,71.0,67.0,68.0,60.0,71,2176.0,square1,j,0.0523,0,S,1.0
S1,33.0,68.0,63.0,65.0,73.0,68,2244.0,square1,j,0.0097,0,S,1.0
S1,34.0,71.0,62.0,74.0,73.0,73,2317.0,square4,f,0.0174,3,S,1.0
S1,35.0,75.0,59.0,67.0,77.0,67,2384.0,square3,r,0.451,2,S,1.0
S1,36.0,77.0,60.0,66.0,67.0,66,2450.0,square3,r,0.0112,2,S,1.0
S1,37.0,69.0,60.0,69.0,75.0,75,2525.0,square4,f,0.0445,3,S,1.0
S1,38.0,77.0,64.0,62.0,70.0,77,2602.0,square1,j,1.479,0,S,1.0
S1,39.0,72.0,66.0,69.0,65.0,72,2674.0,square1,j,0.0474,0,S,1.0
S1,40.0,69.0,63.0,66.0,69.0,69,2743.0,square1,j,0.0151,0,S,1.0
S1,41.0,72.0,62.0,70.0,70.0,72,2815.0,square1,j,0.0808,0,S,1.0
S1,42.0,78.0,60.0,63.0,62.0,78,2893.0,square1,j,0.1108,0,S,1.0
S1,43.0,71.0,62.0,67.0,73.0,71,2964.0,square1,j,0.1129,0,S,1.0
S1,44.0,75.0,63.0,69.0,73.0,75,3039.0,square1,j,0.1329,0,S,1.0
S1,45.0,66.0,60.0,68.0,73.0,66,3105.0,square1,j,1.812,0,S,1.0
S1,46.0,74.0,67.0,69.0,71.0,74,3179.0,square1,j,0.1648,0,S,1.0
S1,47.0,71.0,66.0,68.0,70.0,68,3247.0,square3,r,0.3114,2,S,1.0
S1,48.0,72.0,75.0,71.0,77.0,75,3322.0,square2,i,0.5408,1,S,1.0
S1,49.0,65.0,57.0,66.0,75.0,57,3379.0,square2,i,0.0363,1,S,1.0
S4,0.0,18.0,16.0,34.0,20.0,18,18.0,square1,r,1.4206,0,S,4.0
S4,1.0,33.0,26.0,26.0,23.0,26,44.0,square2,j,0.571,1,S,4.0
S4,2.0,35.0,15.0,33.0,22.0,33,77.0,square3,f,0.6069,2,S,4.0
S4,3.0,28.0,19.0,27.0,27.0,27,104.0,square4,i,0.8164,3,S,4.0
S4,4.0,27.0,16.0,25.0,28.0,25,129.0,square3,f,0.8107,2,S,4.0
S4,5.0,23.0,22.0,31.0,24.0,23,152.0,square1,r,0.6516,0,S,4.0
S4,6.0,25.0,20.0,34.0,23.0,20,172.0,square2,j,0.5846,1,S,4.0
S4,7.0,21.0,22.0,30.0,21.0,21,193.0,square4,i,0.8096,3,S,4.0
S4,8.0,33.0,24.0,33.0,17.0,24,217.0,square2,j,0.4666,1,S,4.0
S4,9.0,24.0,18.0,31.0,28.0,31,248.0,square3,f,0.413,2,S,4.0
S4,10.0,31.0,26.0,35.0,20.0,35,283.0,square3,f,0.3269,2,S,4.0
S4,11.0,25.0,15.0,31.0,25.0,31,314.0,square3,f,0.1437,2,S,4.0
S4,12.0,24.0,16.0,29.0,22.0,29,343.0,square3,f,0.161,2,S,4.0
S4,13.0,28.0,23.0,25.0,17.0,28,371.0,square1,r,0.1132,0,S,4.0
S4,14.0,22.0,23.0,21.0,23.0,21,392.0,square3,f,0.0822,2,S,4.0
S4,15.0,25.0,19.0,28.0,25.0,19,411.0,square2,j,1.142,1,S,4.0
S4,16.0,26.0,17.0,30.0,21.0,21,432.0,square4,i,1.6011,3,S,4.0
S4,17.0,22.0,21.0,29.0,22.0,22,454.0,square4,i,0.0735,3,S,4.0
S4,18.0,28.0,22.0,32.0,22.0,32,486.0,square3,f,1.8174,2,S,4.0
S4,19.0,26.0,19.0,31.0,26.0,31,517.0,square3,f,0.0115,2,S,4.0
S4,20.0,28.0,18.0,28.0,25.0,28,545.0,square3,f,0.1516,2,S,4.0
S4,21.0,33.0,26.0,21.0,29.0,21,566.0,square3,f,0.1511,2,S,4.0
S4,22.0,31.0,19.0,29.0,20.0,19,585.0,square2,j,0.8169,1,S,4.0
S4,23.0,27.0,21.0,36.0,26.0,21,606.0,square2,j,0.0253,1,S,4.0
S4,24.0,28.0,15.0,32.0,21.0,15,621.0,square2,j,0.051,1,S,4.0
S4,25.0,27.0,18.0,28.0,25.0,28,649.0,square3,f,0.3507,2,S,4.0
S4,26.0,26.0,20.0,27.0,14.0,27,676.0,square3,f,0.0017,2,S,4.0
S4,27.0,28.0,19.0,36.0,18.0,28,704.0,square1,r,0.0175,0,S,4.0
S4,28.0,28.0,19.0,28.0,23.0,23,727.0,square4,i,1.051,3,S,4.0
S4,29.0,25.0,22.0,29.0,23.0,23,750.0,square4,i,0.1226,3,S,4.0
S4,30.0,26.0,16.0,30.0,20.0,30,780.0,square3,f,0.0019,2,S,4.0
S4,31.0,23.0,25.0,26.0,30.0,26,806.0,square3,f,0.0347,2,S,4.0
S4,32.0,21.0,26.0,22.0,23.0,26,832.0,square2,j,0.0948,1,S,4.0
S4,33.0,25.0,22.0,24.0,17.0,22,854.0,square2,j,0.1027,1,S,4.0
S4,34.0,30.0,22.0,33.0,24.0,30,884.0,square1,r,0.2098,0,S,4.0
S4,35.0,23.0,21.0,35.0,26.0,23,907.0,square1,r,0.0668,0,S,4.0
S4,36.0,19.0,21.0,33.0,24.0,24,931.0,square4,i,1.0014,3,S,4.0
S4,37.0,20.0,17.0,26.0,26.0,26,957.0,square4,i,0.0895,3,S,4.0
S4,38.0,28.0,20.0,28.0,26.0,99999,957.0,invalid,,,-1,S,4.0
S4,39.0,28.0,23.0,40.0,27.0,28,985.0,square1,r,0.2501,0,S,4.0
S4,40.0,25.0,24.0,32.0,22.0,25,1010.0,square1,r,0.1012,0,S,4.0
S4,41.0,23.0,23.0,26.0,17.0,26,1036.0,square3,f,0.0018,2,S,4.0
S4,42.0,26.0,18.0,33.0,22.0,33,1069.0,square3,f,0.0538,2,S,4.0
S4,43.0,22.0,21.0,36.0,25.0,21,1090.0,square2,j,0.1209,1,S,4.0
S4,44.0,21.0,18.0,33.0,14.0,18,1108.0,square2,j,0.0519,1,S,4.0
S4,45.0,29.0,19.0,30.0,29.0,30,1138.0,square3,f,1.4886,2,S,4.0
S4,46.0,21.0,16.0,22.0,23.0,22,1160.0,square3,f,0.1179,2,S,4.0
S4,47.0,22.0,18.0,28.0,22.0,28,1188.0,square3,f,0.1836,2,S,4.0
S4,48.0,33.0,21.0,32.0,26.0,32,1220.0,square3,f,0.3665,2,S,4.0
S4,49.0,23.0,17.0,20.0,21.0,20,1240.0,square3,f,0.1932,2,S,4.0
S11,0.0,49.0,53.0,49.0,45.0,99999,0.0,invalid,,,-1,S,11.0
S11,1.0,54.0,56.0,42.0,50.0,56,56.0,square2,r,0.3464,1,S,11.0
S11,2.0,39.0,51.0,39.0,43.0,51,107.0,square2,r,0.096,1,S,11.0
S11,3.0,53.0,50.0,38.0,43.0,99999,107.0,invalid,,,-1,S,11.0
S11,4.0,47.0,54.0,39.0,48.0,47,154.0,square1,f,0.0017,0,S,11.0
S11,5.0,47.0,52.0,40.0,46.0,46,200.0,square4,j,0.8313,3,S,11.0
S11,6.0,47.0,46.0,44.0,54.0,44,244.0,square3,i,0.7529,2,S,11.0
S11,7.0,48.0,51.0,35.0,51.0,51,295.0,square2,r,0.8431,1,S,11.0
S11,8.0,52.0,49.0,36.0,43.0,49,344.0,square2,r,0.0107,1,S,11.0
S11,9.0,47.0,53.0,41.0,55.0,47,391.0,square1,f,0.0477,0,S,11.0
S11,10.0,44.0,48.0,41.0,43.0,41,432.0,square3,i,1.2469,2,S,11.0
S11,11.0,41.0,54.0,38.0,43.0,43,475.0,square4,j,0.2813,3,S,11.0
S11,12.0,45.0,54.0,44.0,45.0,45,520.0,square4,j,0.064,3,S,11.0
S11,13.0,54.0,52.0,44.0,50.0,52,572.0,square2,r,0.1405,1,S,11.0
S11,14.0,57.0,58.0,36.0,45.0,57,629.0,square1,f,0.3608,0,S,11.0
S11,15.0,48.0,54.0,43.0,49.0,49,678.0,square4,j,0.5863,3,S,11.0
S11,16.0,58.0,47.0,42.0,46.0,46,724.0,square4,j,0.0352,3,S,11.0
S11,17.0,41.0,61.0,42.0,53.0,42,766.0,square3,i,0.2447,2,S,11.0
S11,18.0,51.0,58.0,33.0,39.0,58,824.0,square2,r,0.6768,1,S,11.0
S11,19.0,48.0,49.0,37.0,42.0,49,873.0,square2,r,0.1105,1,S,11.0
S11,20.0,52.0,52.0,45.0,46.0,52,925.0,square1,f,0.0272,0,S,11.0
S11,21.0,47.0,53.0,44.0,51.0,47,972.0,square1,f,0.0952,0,S,11.0
S11,22.0,49.0,54.0,37.0,41.0,49,1021.0,square1,f,0.0828,0,S,11.0
S11,23.0,52.0,54.0,41.0,45.0,54,1075.0,square2,r,0.1618,1,S,11.0
S11,24.0,42.0,56.0,41.0,45.0,56,1131.0,square2,r,0.1432,1,S,11.0
S11,25.0,52.0,56.0,42.0,44.0,44,1175.0,square4,j,0.0785,3,S,11.0
S11,26.0,43.0,56.0,41.0,45.0,45,1220.0,square4,j,0.0489,3,S,11.0
S11,27.0,48.0,50.0,40.0,43.0,43,1263.0,square4,j,0.051,3,S,11.0
S11,28.0,46.0,49.0,38.0,48.0,38,1301.0,square3,i,0.5348,2,S,11.0
S11,29.0,46.0,55.0,40.0,42.0,40,1341.0,square3,i,0.1118,2,S,11.0
S11,30.0,46.0,56.0,43.0,37.0,56,1397.0,square2,r,0.1175,1,S,11.0
S11,31.0,42.0,49.0,44.0,42.0,49,1446.0,square2,r,1.0615,1,S,11.0
S11,32.0,51.0,52.0,36.0,40.0,52,1498.0,square2,r,0.114,1,S,11.0
S11,33.0,44.0,53.0,39.0,43.0,44,1542.0,square1,f,0.2165,0,S,11.0
S11,34.0,52.0,52.0,43.0,49.0,49,1591.0,square4,j,0.5259,3,S,11.0
S11,35.0,53.0,51.0,38.0,45.0,45,1636.0,square4,j,0.0512,3,S,11.0
S11,36.0,50.0,44.0,42.0,48.0,42,1678.0,square3,i,0.0953,2,S,11.0
S11,37.0,49.0,51.0,40.0,48.0,40,1718.0,square3,i,0.1766,2,S,11.0
S11,38.0,47.0,47.0,39.0,38.0,47,1765.0,square2,r,0.0018,1,S,11.0
S11,39.0,51.0,55.0,40.0,42.0,55,1820.0,square2,r,0.0811,1,S,11.0
S11,40.0,50.0,52.0,41.0,44.0,50,1870.0,square1,f,0.0926,0,S,11.0
S11,41.0,47.0,50.0,46.0,50.0,47,1917.0,square1,f,0.1447,0,S,11.0
S11,42.0,52.0,48.0,41.0,47.0,48,1965.0,square2,r,0.2825,1,S,11.0
S11,43.0,50.0,56.0,34.0,42.0,56,2021.0,square2,r,0.1102,1,S,11.0
S11,44.0,42.0,48.0,37.0,49.0,48,2069.0,square2,r,0.0938,1,S,11.0
S11,45.0,47.0,47.0,41.0,40.0,41,2110.0,square3,i,1.16,2,S,11.0
S11,46.0,50.0,56.0,40.0,44.0,44,2154.0,square4,j,0.6778,3,S,11.0
S11,47.0,46.0,48.0,38.0,47.0,47,2201.0,square4,j,0.0934,3,S,11.0
S11,48.0,45.0,54.0,44.0,41.0,54,2255.0,square2,r,0.166,1,S,11.0
S11,49.0,44.0,53.0,41.0,41.0,53,2308.0,square2,r,0.0107,1,S,11.0
S8,0.0,58.0,60.0,52.0,45.0,45,45.0,square4,r,1.8617,3,S,8.0
S8,1.0,55.0,57.0,56.0,52.0,52,97.0,square4,r,0.1615,3,S,8.0
S8,2.0,54.0,58.0,58.0,49.0,58,155.0,square2,i,0.1455,1,S,8.0
S8,3.0,55.0,62.0,52.0,53.0,52,207.0,square3,f,0.5828,2,S,8.0
S8,4.0,55.0,60.0,49.0,51.0,49,256.0,square3,f,0.002,2,S,8.0
S8,5.0,48.0,63.0,61.0,49.0,48,304.0,square1,j,0.0683,0,S,8.0
S8,6.0,58.0,63.0,59.0,55.0,58,362.0,square1,j,0.0628,0,S,8.0
S8,7.0,56.0,53.0,49.0,51.0,49,411.0,square3,f,0.0463,2,S,8.0
S8,8.0,61.0,63.0,66.0,49.0,66,477.0,square3,f,0.3165,2,S,8.0
S8,9.0,60.0,59.0,53.0,47.0,59,536.0,square2,i,0.0777,1,S,8.0
S8,10.0,55.0,63.0,52.0,55.0,63,599.0,square2,i,0.0771,1,S,8.0
S8,11.0,62.0,60.0,54.0,50.0,60,659.0,square2,i,0.1312,1,S,8.0
S8,12.0,58.0,64.0,51.0,52.0,51,710.0,square3,f,0.1455,2,S,8.0
S8,13.0,62.0,59.0,53.0,53.0,53,763.0,square3,f,0.1106,2,S,8.0
S8,14.0,51.0,62.0,61.0,54.0,61,824.0,square3,f,0.026,2,S,8.0
S8,15.0,56.0,68.0,56.0,50.0,56,880.0,square3,f,0.1608,2,S,8.0
S8,16.0,58.0,64.0,56.0,50.0,50,930.0,square4,r,0.9995,3,S,8.0
S8,17.0,64.0,63.0,60.0,42.0,42,972.0,square4,r,0.1011,3,S,8.0
S8,18.0,54.0,64.0,57.0,55.0,55,1027.0,square4,r,0.002,3,S,8.0
S8,19.0,56.0,53.0,57.0,53.0,53,1080.0,square4,r,0.1509,3,S,8.0
S8,20.0,59.0,64.0,56.0,49.0,64,1144.0,square2,i,0.5534,1,S,8.0
S8,21.0,54.0,59.0,55.0,48.0,59,1203.0,square2,i,0.4336,1,S,8.0
S8,22.0,63.0,63.0,59.0,49.0,63,1266.0,square2,i,0.044,1,S,8.0
S8,23.0,59.0,60.0,48.0,52.0,60,1326.0,square2,i,1.1612,1,S,8.0
S8,24.0,55.0,53.0,60.0,50.0,53,1379.0,square2,i,0.0727,1,S,8.0
S8,25.0,57.0,60.0,55.0,54.0,57,1436.0,square1,j,0.0843,0,S,8.0
S8,26.0,62.0,66.0,57.0,58.0,62,1498.0,square1,j,0.0834,0,S,8.0
S8,27.0,58.0,55.0,52.0,48.0,48,1546.0,square4,r,0.1194,3,S,8.0
S8,28.0,53.0,59.0,53.0,55.0,53,1599.0,square3,f,0.2947,2,S,8.0
S8,29.0,60.0,58.0,57.0,53.0,57,1656.0,square3,f,0.1144,2,S,8.0
S8,30.0,57.0,67.0,52.0,56.0,57,1713.0,square1,j,0.0962,0,S,8.0
S8,31.0,60.0,58.0,52.0,50.0,58,1771.0,square2,i,0.0673,1,S,8.0
S8,32.0,54.0,61.0,56.0,57.0,61,1832.0,square2,i,0.095,1,S,8.0
S8,33.0,66.0,64.0,63.0,52.0,66,1898.0,square1,j,0.2829,0,S,8.0
S8,34.0,54.0,65.0,66.0,56.0,66,1964.0,square3,f,0.331,2,S,8.0
S8,35.0,54.0,62.0,61.0,48.0,48,2012.0,square4,r,0.0801,3,S,8.0
S8,36.0,53.0,63.0,54.0,55.0,54,2066.0,square3,f,0.4284,2,S,8.0
S8,37.0,64.0,58.0,57.0,51.0,58,2124.0,square2,i,0.4947,1,S,8.0
S8,38.0,68.0,65.0,59.0,57.0,65,2189.0,square2,i,0.1107,1,S,8.0
S8,39.0,64.0,65.0,51.0,55.0,65,2254.0,square2,i,0.1774,1,S,8.0
S8,40.0,63.0,61.0,57.0,47.0,63,2317.0,square1,j,0.0336,0,S,8.0
S8,41.0,65.0,58.0,55.0,49.0,58,2375.0,square2,i,1.4469,1,S,8.0
S8,42.0,52.0,60.0,51.0,56.0,60,2435.0,square2,i,0.1116,1,S,8.0
S8,43.0,63.0,57.0,48.0,50.0,57,2492.0,square2,i,0.1351,1,S,8.0
S8,44.0,59.0,63.0,53.0,53.0,63,2555.0,square2,i,0.0125,1,S,8.0
S8,45.0,62.0,62.0,60.0,53.0,62,2617.0,square1,j,0.0796,0,S,8.0
S8,46.0,56.0,62.0,57.0,60.0,56,2673.0,square1,j,0.0015,0,S,8.0
S8,47.0,60.0,63.0,58.0,56.0,60,2733.0,square1,j,0.0572,0,S,8.0
S8,48.0,59.0,63.0,49.0,53.0,63,2796.0,square2,i,0.2031,1,S,8.0
S8,49.0,67.0,67.0,59.0,55.0,67,2863.0,square2,i,0.0642,1,S,8.0
V12,0.0,47.0,30.0,38.0,55.0,30,30.0,square2,r,1.8506,1,V,12.0
V12,1.0,46.0,33.0,39.0,57.0,46,76.0,square1,i,0.5446,0,V,12.0
V12,2.0,51.0,29.0,42.0,52.0,42,118.0,square3,j,0.8111,2,V,12.0
V12,3.0,52.0,30.0,38.0,62.0,62,180.0,square4,f,0.4097,3,V,12.0
V12,4.0,48.0,30.0,39.0,62.0,62,242.0,square4,f,0.36,3,V,12.0
V12,5.0,55.0,34.0,43.0,61.0,34,276.0,square2,r,0.4479,1,V,12.0
V12,6.0,45.0,35.0,42.0,56.0,45,321.0,square1,i,0.2916,0,V,12.0
V12,7.0,48.0,29.0,35.0,57.0,35,356.0,square3,j,0.1981,2,V,12.0
V12,8.0,46.0,33.0,38.0,59.0,33,389.0,square2,r,0.3105,1,V,12.0
V12,9.0,44.0,31.0,42.0,56.0,44,433.0,square1,i,1.2342,0,V,12.0
V12,10.0,48.0,34.0,45.0,55.0,45,478.0,square3,j,1.1648,2,V,12.0
V12,11.0,45.0,32.0,41.0,55.0,55,533.0,square4,f,0.316,3,V,12.0
V12,12.0,52.0,26.0,42.0,57.0,57,590.0,square4,f,0.0598,3,V,12.0
V12,13.0,56.0,31.0,41.0,54.0,31,621.0,square2,r,0.1773,1,V,12.0
V12,14.0,44.0,34.0,40.0,64.0,44,665.0,square1,i,0.0767,0,V,12.0
V12,15.0,48.0,32.0,39.0,61.0,48,713.0,square1,i,0.1447,0,V,12.0
V12,16.0,49.0,33.0,37.0,58.0,49,762.0,square1,i,0.0438,0,V,12.0
V12,17.0,45.0,33.0,43.0,57.0,43,805.0,square3,j,0.5013,2,V,12.0
V12,18.0,45.0,28.0,40.0,58.0,40,845.0,square3,j,0.128,2,V,12.0
V12,19.0,42.0,33.0,43.0,59.0,59,904.0,square4,f,0.0273,3,V,12.0
V12,20.0,46.0,30.0,38.0,62.0,62,966.0,square4,f,0.2013,3,V,12.0
V12,21.0,46.0,35.0,40.0,55.0,55,1021.0,square4,f,0.0728,3,V,12.0
V12,22.0,46.0,34.0,36.0,63.0,34,1055.0,square2,r,0.6511,1,V,12.0
V12,23.0,54.0,34.0,42.0,56.0,34,1089.0,square2,r,0.1676,1,V,12.0
V12,24.0,44.0,30.0,41.0,59.0,59,1148.0,square4,f,0.0951,3,V,12.0
V12,25.0,49.0,33.0,37.0,64.0,64,1212.0,square4,f,0.0107,3,V,12.0
V12,26.0,52.0,34.0,39.0,57.0,39,1251.0,square3,j,0.0946,2,V,12.0
V12,27.0,50.0,26.0,37.0,55.0,37,1288.0,square3,j,0.111,2,V,12.0
V12,28.0,41.0,29.0,46.0,21.0,41,1329.0,square1,i,1.9479,0,V,12.0
V12,29.0,41.0,28.0,51.0,20.0,41,1370.0,square1,i,0.0017,0,V,12.0
V12,30.0,32.0,31.0,46.0,22.0,31,1401.0,square2,r,0.7963,1,V,12.0
V12,31.0,38.0,28.0,45.0,22.0,28,1429.0,square2,r,0.2776,1,V,12.0
V12,32.0,35.0,27.0,44.0,16.0,16,1445.0,square4,f,0.026,3,V,12.0
V12,33.0,39.0,29.0,49.0,21.0,21,1466.0,square4,f,0.2263,3,V,12.0
V12,34.0,39.0,28.0,49.0,15.0,15,1481.0,square4,f,0.1017,3,V,12.0
V12,35.0,36.0,29.0,50.0,17.0,50,1531.0,square3,j,0.5487,2,V,12.0
V12,36.0,41.0,28.0,48.0,12.0,48,1579.0,square3,j,0.1664,2,V,12.0
V12,37.0,34.0,29.0,46.0,25.0,46,1625.0,square3,j,0.2163,2,V,12.0
V12,38.0,38.0,28.0,51.0,19.0,51,1676.0,square3,j,0.1441,2,V,12.0
V12,39.0,39.0,31.0,45.0,13.0,45,1721.0,square3,j,0.0092,2,V,12.0
V12,40.0,35.0,28.0,46.0,26.0,46,1767.0,square3,j,0.0771,2,V,12.0
V12,41.0,38.0,27.0,46.0,20.0,46,1813.0,square3,j,0.1265,2,V,12.0
V12,42.0,40.0,26.0,50.0,23.0,40,1853.0,square1,i,0.1987,0,V,12.0
V12,43.0,33.0,30.0,45.0,18.0,33,1886.0,square1,i,0.1753,0,V,12.0
V12,44.0,39.0,31.0,46.0,22.0,31,1917.0,square2,r,0.2194,1,V,12.0
V12,45.0,32.0,26.0,42.0,20.0,26,1943.0,square2,r,0.0268,1,V,12.0
V12,46.0,36.0,29.0,43.0,24.0,24,1967.0,square4,f,0.6521,3,V,12.0
V12,47.0,37.0,30.0,46.0,21.0,21,1988.0,square4,f,0.0018,3,V,12.0
V12,48.0,37.0,27.0,44.0,19.0,44,2032.0,square3,j,0.2266,2,V,12.0
V12,49.0,36.0,33.0,55.0,16.0,55,2087.0,square3,j,0.0959,2,V,12.0
V12,50.0,45.0,28.0,44.0,18.0,44,2131.0,square3,j,0.1776,2,V,12.0
V12,51.0,35.0,32.0,49.0,19.0,49,2180.0,square3,j,0.1248,2,V,12.0
V12,52.0,36.0,56.0,31.0,52.0,31,2211.0,square3,j,0.1299,2,V,12.0
V12,53.0,36.0,57.0,29.0,45.0,57,2268.0,square2,r,0.6172,1,V,12.0
V12,54.0,38.0,61.0,28.0,51.0,61,2329.0,square2,r,0.1565,1,V,12.0
V12,55.0,35.0,60.0,29.0,47.0,35,2364.0,square1,i,0.65,0,V,12.0
V12,56.0,34.0,62.0,29.0,46.0,34,2398.0,square1,i,0.1109,0,V,12.0
V12,57.0,43.0,57.0,32.0,46.0,46,2444.0,square4,f,0.1608,3,V,12.0
V12,58.0,40.0,59.0,32.0,50.0,32,2476.0,square3,j,0.6845,2,V,12.0
V12,59.0,41.0,62.0,33.0,48.0,33,2509.0,square3,j,0.1274,2,V,12.0
V12,60.0,36.0,61.0,32.0,49.0,32,2541.0,square3,j,0.1825,2,V,12.0
V12,61.0,39.0,56.0,32.0,44.0,44,2585.0,square4,f,0.0698,3,V,12.0
V12,62.0,39.0,57.0,30.0,46.0,46,2631.0,square4,f,0.1652,3,V,12.0
V12,63.0,42.0,53.0,29.0,46.0,46,2677.0,square4,f,0.0015,3,V,12.0
V12,64.0,35.0,57.0,32.0,50.0,57,2734.0,square2,r,0.1483,1,V,12.0
V12,65.0,44.0,58.0,32.0,49.0,58,2792.0,square2,r,0.0019,1,V,12.0
V12,66.0,44.0,56.0,29.0,52.0,56,2848.0,square2,r,0.1048,1,V,12.0
V12,67.0,41.0,60.0,30.0,49.0,60,2908.0,square2,r,0.1479,1,V,12.0
V12,68.0,42.0,58.0,32.0,45.0,58,2966.0,square2,r,0.1612,1,V,12.0
V12,69.0,36.0,60.0,33.0,50.0,60,3026.0,square2,r,0.0799,1,V,12.0
V12,70.0,36.0,57.0,27.0,46.0,57,3083.0,square2,r,0.111,1,V,12.0
V12,71.0,41.0,59.0,32.0,48.0,59,3142.0,square2,r,0.0877,1,V,12.0
V12,72.0,34.0,59.0,31.0,49.0,59,3201.0,square2,r,0.1163,1,V,12.0
V12,73.0,71.0,53.0,65.0,49.0,53,3254.0,square2,r,0.0604,1,V,12.0
V12,74.0,69.0,49.0,63.0,45.0,69,3323.0,square1,i,0.1097,0,V,12.0
V12,75.0,72.0,51.0,56.0,46.0,72,3395.0,square1,i,0.1786,0,V,12.0
V12,76.0,72.0,48.0,58.0,43.0,72,3467.0,square1,i,0.0198,0,V,12.0
V12,77.0,74.0,57.0,59.0,44.0,74,3541.0,square1,i,0.1113,0,V,12.0
V12,78.0,69.0,55.0,63.0,50.0,69,3610.0,square1,i,0.0477,0,V,12.0
V12,79.0,73.0,53.0,58.0,43.0,73,3683.0,square1,i,0.143,0,V,12.0
V12,80.0,71.0,47.0,65.0,40.0,71,3754.0,square1,i,0.0769,0,V,12.0
V12,81.0,66.0,49.0,57.0,40.0,66,3820.0,square1,i,0.1457,0,V,12.0
V12,82.0,71.0,53.0,57.0,48.0,71,3891.0,square1,i,0.1458,0,V,12.0
V12,83.0,70.0,50.0,56.0,49.0,70,3961.0,square1,i,0.1156,0,V,12.0
V12,84.0,69.0,45.0,64.0,43.0,69,4030.0,square1,i,0.0016,0,V,12.0
V12,85.0,64.0,48.0,54.0,42.0,54,4084.0,square3,j,0.1657,2,V,12.0
V12,86.0,71.0,49.0,63.0,44.0,63,4147.0,square3,j,0.0014,2,V,12.0
V12,87.0,72.0,52.0,55.0,42.0,55,4202.0,square3,j,0.2822,2,V,12.0
V12,88.0,64.0,48.0,59.0,44.0,59,4261.0,square3,j,0.0619,2,V,12.0
V12,89.0,69.0,48.0,62.0,45.0,62,4323.0,square3,j,0.2625,2,V,12.0
V12,90.0,68.0,56.0,60.0,42.0,68,4391.0,square1,i,0.3264,0,V,12.0
V12,91.0,69.0,52.0,62.0,45.0,69,4460.0,square1,i,0.0019,0,V,12.0
V12,92.0,65.0,50.0,64.0,47.0,65,4525.0,square1,i,0.1292,0,V,12.0
V12,93.0,68.0,51.0,62.0,43.0,68,4593.0,square1,i,0.0647,0,V,12.0
V12,94.0,68.0,52.0,60.0,38.0,68,4661.0,square1,i,0.2608,0,V,12.0
V12,95.0,71.0,52.0,58.0,47.0,71,4732.0,square1,i,0.0144,0,V,12.0
V12,96.0,66.0,49.0,59.0,44.0,66,4798.0,square1,i,0.1907,0,V,12.0
V12,97.0,74.0,47.0,54.0,47.0,47,4845.0,square2,r,0.0293,1,V,12.0
V12,98.0,68.0,43.0,64.0,41.0,43,4888.0,square2,r,0.2943,1,V,12.0
V12,99.0,71.0,53.0,62.0,44.0,71,4959.0,square1,i,0.0791,0,V,12.0
V3,0.0,62.0,45.0,70.0,53.0,99999,0.0,invalid,,,-1,V,3.0
V3,1.0,63.0,47.0,76.0,60.0,63,63.0,square1,r,1.3647,0,V,3.0
V3,2.0,65.0,54.0,73.0,57.0,65,128.0,square1,r,0.0775,0,V,3.0
V3,3.0,68.0,51.0,71.0,51.0,51,179.0,square4,i,0.1136,3,V,3.0
V3,4.0,61.0,49.0,75.0,53.0,75,254.0,square3,f,0.0359,2,V,3.0
V3,5.0,65.0,47.0,74.0,50.0,47,301.0,square2,j,1.8431,1,V,3.0
V3,6.0,61.0,51.0,72.0,57.0,61,362.0,square1,r,0.1614,0,V,3.0
V3,7.0,67.0,49.0,75.0,55.0,67,429.0,square1,r,0.0593,0,V,3.0
V3,8.0,64.0,48.0,76.0,56.0,64,493.0,square1,r,0.0668,0,V,3.0
V3,9.0,67.0,49.0,71.0,56.0,56,549.0,square4,i,0.24,3,V,3.0
V3,10.0,65.0,50.0,71.0,56.0,56,605.0,square4,i,0.0896,3,V,3.0
V3,11.0,63.0,43.0,78.0,58.0,78,683.0,square3,f,0.0845,2,V,3.0
V3,12.0,66.0,53.0,73.0,54.0,73,756.0,square3,f,0.1185,2,V,3.0
V3,13.0,64.0,46.0,78.0,51.0,46,802.0,square2,j,0.1846,1,V,3.0
V3,14.0,67.0,51.0,71.0,58.0,51,853.0,square2,j,0.0834,1,V,3.0
V3,15.0,61.0,50.0,73.0,54.0,61,914.0,square1,r,0.1174,0,V,3.0
V3,16.0,64.0,52.0,74.0,54.0,54,968.0,square4,i,0.4189,3,V,3.0
V3,17.0,61.0,48.0,74.0,55.0,48,1016.0,square2,j,1.351,1,V,3.0
V3,18.0,65.0,50.0,70.0,59.0,70,1086.0,square3,f,0.5443,2,V,3.0
V3,19.0,64.0,52.0,76.0,56.0,64,1150.0,square1,r,0.5092,0,V,3.0
V3,20.0,64.0,50.0,69.0,58.0,58,1208.0,square4,i,0.9921,3,V,3.0
V3,21.0,66.0,50.0,72.0,56.0,50,1258.0,square2,j,0.1111,1,V,3.0
V3,22.0,43.0,48.0,40.0,62.0,43,1301.0,square1,r,0.594,0,V,3.0
V3,23.0,41.0,51.0,35.0,59.0,59,1360.0,square4,i,0.1119,3,V,3.0
V3,24.0,51.0,51.0,37.0,60.0,51,1411.0,square2,j,0.4299,1,V,3.0
V3,25.0,45.0,53.0,36.0,57.0,36,1447.0,square3,f,0.1126,2,V,3.0
V3,26.0,44.0,51.0,38.0,59.0,44,1491.0,square1,r,0.4937,0,V,3.0
V3,27.0,43.0,51.0,34.0,66.0,66,1557.0,square4,i,0.537,3,V,3.0
V3,28.0,47.0,51.0,40.0,67.0,51,1608.0,square2,j,0.0273,1,V,3.0
V3,29.0,42.0,55.0,35.0,65.0,35,1643.0,square3,f,0.1105,2,V,3.0
V3,30.0,49.0,54.0,36.0,62.0,49,1692.0,square1,r,0.1019,0,V,3.0
V3,31.0,50.0,53.0,42.0,66.0,66,1758.0,square4,i,0.0849,3,V,3.0
V3,32.0,47.0,53.0,34.0,58.0,53,1811.0,square2,j,0.1704,1,V,3.0
V3,33.0,45.0,56.0,34.0,62.0,34,1845.0,square3,f,0.0619,2,V,3.0
V3,34.0,48.0,54.0,38.0,64.0,64,1909.0,square4,i,0.397,3,V,3.0
V3,35.0,39.0,55.0,42.0,65.0,65,1974.0,square4,i,0.1115,3,V,3.0
V3,36.0,46.0,57.0,41.0,63.0,57,2031.0,square2,j,0.014,1,V,3.0
V3,37.0,43.0,54.0,41.0,65.0,41,2072.0,square3,f,0.4776,2,V,3.0
V3,38.0,47.0,52.0,37.0,63.0,37,2109.0,square3,f,0.1269,2,V,3.0
V3,39.0,47.0,53.0,38.0,55.0,47,2156.0,square1,r,0.0319,0,V,3.0
V3,40.0,41.0,54.0,39.0,64.0,64,2220.0,square4,i,0.1839,3,V,3.0
V3,41.0,48.0,52.0,38.0,64.0,52,2272.0,square2,j,0.1077,1,V,3.0
V3,42.0,45.0,50.0,34.0,63.0,50,2322.0,square2,j,0.1286,1,V,3.0
V3,43.0,44.0,50.0,34.0,62.0,50,2372.0,square2,j,0.0929,1,V,3.0
V3,44.0,47.0,55.0,39.0,65.0,65,2437.0,square4,i,0.0635,3,V,3.0
V3,45.0,45.0,55.0,31.0,63.0,63,2500.0,square4,i,0.1769,3,V,3.0
V3,46.0,42.0,52.0,38.0,64.0,38,2538.0,square3,f,0.1467,2,V,3.0
V3,47.0,44.0,53.0,37.0,55.0,55,2593.0,square4,i,0.0852,3,V,3.0
V3,48.0,44.0,49.0,37.0,58.0,58,2651.0,square4,i,0.1272,3,V,3.0
V3,49.0,48.0,58.0,35.0,54.0,48,2699.0,square1,r,0.1592,0,V,3.0
V3,50.0,42.0,28.0,30.0,52.0,42,2741.0,square1,r,0.1111,0,V,3.0
V3,51.0,46.0,29.0,32.0,51.0,29,2770.0,square2,j,0.6118,1,V,3.0
V3,52.0,37.0,20.0,36.0,50.0,20,2790.0,square2,j,0.1594,1,V,3.0
V3,53.0,44.0,22.0,34.0,55.0,22,2812.0,square2,j,0.8949,1,V,3.0
V3,54.0,37.0,27.0,26.0,50.0,27,2839.0,square2,j,0.0238,1,V,3.0
V3,55.0,41.0,21.0,39.0,53.0,21,2860.0,square2,j,0.1504,1,V,3.0
V3,56.0,40.0,20.0,38.0,51.0,20,2880.0,square2,j,0.1104,1,V,3.0
V3,57.0,44.0,28.0,31.0,57.0,28,2908.0,square2,j,0.0649,1,V,3.0
V3,58.0,46.0,20.0,28.0,49.0,20,2928.0,square2,j,0.133,1,V,3.0
V3,59.0,44.0,24.0,30.0,55.0,24,2952.0,square2,j,0.1952,1,V,3.0
V3,60.0,42.0,29.0,29.0,51.0,29,2981.0,square2,j,0.2611,1,V,3.0
V3,61.0,41.0,21.0,30.0,46.0,21,3002.0,square2,j,0.0858,1,V,3.0
V3,62.0,41.0,27.0,31.0,49.0,27,3029.0,square2,j,0.1773,1,V,3.0
V3,63.0,42.0,27.0,34.0,51.0,27,3056.0,square2,j,0.1186,1,V,3.0
V3,64.0,41.0,24.0,30.0,47.0,47,3103.0,square4,i,0.0614,3,V,3.0
V3,65.0,36.0,18.0,34.0,48.0,48,3151.0,square4,i,0.0106,3,V,3.0
V3,66.0,39.0,28.0,35.0,45.0,45,3196.0,square4,i,0.0605,3,V,3.0
V3,67.0,42.0,21.0,32.0,46.0,46,3242.0,square4,i,0.1155,3,V,3.0
V3,68.0,40.0,24.0,35.0,53.0,53,3295.0,square4,i,0.1505,3,V,3.0
V3,69.0,48.0,23.0,34.0,50.0,50,3345.0,square4,i,0.0843,3,V,3.0
V3,70.0,40.0,27.0,31.0,49.0,40,3385.0,square1,r,0.2329,0,V,3.0
V3,71.0,41.0,23.0,28.0,51.0,41,3426.0,square1,r,0.4669,0,V,3.0
V3,72.0,42.0,25.0,33.0,55.0,42,3468.0,square1,r,0.194,0,V,3.0
V3,73.0,41.0,24.0,35.0,55.0,55,3523.0,square4,i,0.6611,3,V,3.0
V3,74.0,38.0,26.0,28.0,53.0,53,3576.0,square4,i,0.1443,3,V,3.0
V3,75.0,54.0,39.0,69.0,50.0,39,3615.0,square2,j,0.1532,1,V,3.0
V3,76.0,55.0,42.0,64.0,53.0,64,3679.0,square3,f,0.1275,2,V,3.0
V3,77.0,59.0,37.0,66.0,44.0,66,3745.0,square3,f,0.0093,2,V,3.0
V3,78.0,58.0,38.0,60.0,46.0,58,3803.0,square1,r,0.0874,0,V,3.0
V3,79.0,54.0,35.0,66.0,49.0,54,3857.0,square1,r,0.1461,0,V,3.0
V3,80.0,60.0,36.0,68.0,44.0,36,3893.0,square2,j,0.1608,1,V,3.0
V3,81.0,55.0,38.0,66.0,51.0,38,3931.0,square2,j,0.178,1,V,3.0
V3,82.0,57.0,47.0,64.0,50.0,50,3981.0,square4,i,0.0597,3,V,3.0
V3,83.0,57.0,37.0,63.0,45.0,45,4026.0,square4,i,0.1805,3,V,3.0
V3,84.0,54.0,40.0,65.0,53.0,65,4091.0,square3,f,1.2589,2,V,3.0
V3,85.0,58.0,41.0,63.0,48.0,63,4154.0,square3,f,0.0693,2,V,3.0
V3,86.0,53.0,38.0,57.0,49.0,57,4211.0,square3,f,0.123,2,V,3.0
V3,87.0,49.0,42.0,60.0,43.0,42,4253.0,square2,j,0.7982,1,V,3.0
V3,88.0,56.0,35.0,70.0,46.0,35,4288.0,square2,j,0.1311,1,V,3.0
V3,89.0,58.0,39.0,63.0,52.0,58,4346.0,square1,r,0.178,0,V,3.0
V3,90.0,59.0,43.0,63.0,45.0,45,4391.0,square4,i,0.5927,3,V,3.0
V3,91.0,54.0,37.0,69.0,49.0,49,4440.0,square4,i,0.1438,3,V,3.0
V3,92.0,56.0,41.0,61.0,47.0,47,4487.0,square4,i,0.0346,3,V,3.0
V3,93.0,58.0,35.0,68.0,47.0,68,4555.0,square3,f,0.002,2,V,3.0
V3,94.0,61.0,37.0,67.0,51.0,67,4622.0,square3,f,0.0266,2,V,3.0
V3,95.0,57.0,32.0,64.0,47.0,47,4669.0,square4,i,0.4937,3,V,3.0
V3,96.0,53.0,38.0,63.0,48.0,48,4717.0,square4,i,0.1527,3,V,3.0
V3,97.0,57.0,44.0,71.0,50.0,50,4767.0,square4,i,0.094,3,V,3.0
V3,98.0,56.0,39.0,70.0,47.0,39,4806.0,square2,j,0.0507,1,V,3.0
V3,99.0,62.0,40.0,67.0,49.0,49,4855.0,square4,i,0.0452,3,V,3.0
V5,0.0,46.0,21.0,37.0,28.0,99999,0.0,invalid,,,-1,V,5.0
V5,1.0,43.0,27.0,36.0,31.0,27,27.0,square2,r,0.5884,1,V,5.0
V5,2.0,50.0,18.0,43.0,32.0,43,70.0,square3,i,0.5841,2,V,5.0
V5,3.0,53.0,23.0,36.0,34.0,36,106.0,square3,i,0.0338,2,V,5.0
V5,4.0,52.0,19.0,38.0,34.0,52,158.0,square1,f,0.5499,0,V,5.0
V5,5.0,50.0,22.0,41.0,29.0,50,208.0,square1,f,0.0753,0,V,5.0
V5,6.0,52.0,19.0,40.0,33.0,33,241.0,square4,j,0.5836,3,V,5.0
V5,7.0,48.0,24.0,36.0,27.0,27,268.0,square4,j,0.0672,3,V,5.0
V5,8.0,50.0,24.0,35.0,33.0,99999,268.0,invalid,,,-1,V,5.0
V5,9.0,48.0,25.0,39.0,34.0,25,293.0,square2,r,1.2099,1,V,5.0
V5,10.0,52.0,19.0,32.0,34.0,19,312.0,square2,r,0.0342,1,V,5.0
V5,11.0,48.0,22.0,32.0,32.0,32,344.0,square3,i,0.168,2,V,5.0
V5,12.0,47.0,17.0,43.0,29.0,47,391.0,square1,f,0.4338,0,V,5.0
V5,13.0,46.0,21.0,42.0,29.0,29,420.0,square4,j,0.4825,3,V,5.0
V5,14.0,47.0,28.0,42.0,28.0,28,448.0,square4,j,0.084,3,V,5.0
V5,15.0,50.0,29.0,38.0,36.0,29,477.0,square2,r,0.8173,1,V,5.0
V5,16.0,49.0,24.0,36.0,34.0,24,501.0,square2,r,0.1496,1,V,5.0
V5,17.0,50.0,20.0,38.0,35.0,38,539.0,square3,i,0.1667,2,V,5.0
V5,18.0,49.0,22.0,46.0,29.0,46,585.0,square3,i,0.1177,2,V,5.0
V5,19.0,46.0,23.0,40.0,31.0,31,616.0,square4,j,0.0517,3,V,5.0
V5,20.0,51.0,22.0,41.0,28.0,51,667.0,square1,f,0.3845,0,V,5.0
V5,21.0,51.0,26.0,36.0,31.0,51,718.0,square1,f,0.7346,0,V,5.0
V5,22.0,47.0,18.0,41.0,28.0,99999,718.0,invalid,,,-1,V,5.0
V5,23.0,52.0,20.0,36.0,29.0,52,770.0,square1,f,0.0829,0,V,5.0
V5,24.0,51.0,21.0,41.0,34.0,99999,770.0,invalid,,,-1,V,5.0
V5,25.0,50.0,20.0,41.0,27.0,99999,770.0,invalid,,,-1,V,5.0
V5,26.0,49.0,29.0,37.0,28.0,29,799.0,square2,r,1.0345,1,V,5.0
V5,27.0,10.0,13.0,42.0,32.0,13,812.0,square2,r,0.1665,1,V,5.0
V5,28.0,9.0,19.0,40.0,27.0,9,821.0,square1,f,0.0173,0,V,5.0
V5,29.0,17.0,17.0,38.0,29.0,29,850.0,square4,j,0.2441,3,V,5.0
V5,30.0,8.0,18.0,36.0,29.0,29,879.0,square4,j,0.1005,3,V,5.0
V5,31.0,16.0,24.0,34.0,29.0,29,908.0,square4,j,0.417,3,V,5.0
V5,32.0,9.0,17.0,35.0,31.0,35,943.0,square3,i,1.6103,2,V,5.0
V5,33.0,11.0,19.0,36.0,28.0,36,979.0,square3,i,0.1344,2,V,5.0
V5,34.0,10.0,19.0,38.0,28.0,99999,979.0,invalid,,,-1,V,5.0
V5,35.0,5.0,23.0,40.0,34.0,23,1002.0,square2,r,0.6123,1,V,5.0
V5,36.0,17.0,20.0,36.0,31.0,20,1022.0,square2,r,0.1812,1,V,5.0
V5,37.0,12.0,13.0,36.0,30.0,13,1035.0,square2,r,0.0135,1,V,5.0
V5,38.0,14.0,24.0,35.0,27.0,35,1070.0,square3,i,0.1353,2,V,5.0
V5,39.0,13.0,20.0,39.0,32.0,39,1109.0,square3,i,0.1626,2,V,5.0
V5,40.0,9.0,15.0,37.0,24.0,37,1146.0,square3,i,0.0608,2,V,5.0
V5,41.0,9.0,14.0,38.0,31.0,31,1177.0,square4,j,0.7776,3,V,5.0
V5,42.0,14.0,17.0,43.0,31.0,31,1208.0,square4,j,0.0939,3,V,5.0
V5,43.0,10.0,18.0,39.0,23.0,10,1218.0,square1,f,0.1759,0,V,5.0
V5,44.0,10.0,20.0,33.0,32.0,10,1228.0,square1,f,0.1856,0,V,5.0
V5,45.0,16.0,17.0,37.0,29.0,29,1257.0,square4,j,0.8277,3,V,5.0
V5,46.0,9.0,22.0,37.0,25.0,25,1282.0,square4,j,0.0608,3,V,5.0
V5,47.0,10.0,22.0,35.0,26.0,35,1317.0,square3,i,0.0766,2,V,5.0
V5,48.0,11.0,16.0,39.0,23.0,16,1333.0,square2,r,0.1949,1,V,5.0
V5,49.0,13.0,16.0,33.0,27.0,16,1349.0,square2,r,0.0765,1,V,5.0
V5,50.0,12.0,16.0,39.0,24.0,12,1361.0,square1,f,0.5654,0,V,5.0
V5,51.0,10.0,21.0,43.0,28.0,10,1371.0,square1,f,0.1602,0,V,5.0
V5,52.0,8.0,15.0,36.0,28.0,8,1379.0,square1,f,0.1766,0,V,5.0
V5,53.0,38.0,20.0,31.0,54.0,38,1417.0,square1,f,0.1781,0,V,5.0
V5,54.0,39.0,20.0,35.0,51.0,35,1452.0,square3,i,0.3101,2,V,5.0
V5,55.0,41.0,21.0,27.0,50.0,27,1479.0,square3,i,0.0273,2,V,5.0
V5,56.0,39.0,23.0,28.0,49.0,49,1528.0,square4,j,0.1143,3,V,5.0
V5,57.0,36.0,28.0,29.0,59.0,59,1587.0,square4,j,0.0354,3,V,5.0
V5,58.0,38.0,22.0,28.0,49.0,99999,1587.0,invalid,,,-1,V,5.0
V5,59.0,44.0,23.0,30.0,51.0,51,1638.0,square4,j,0.8016,3,V,5.0
V5,60.0,43.0,21.0,31.0,48.0,48,1686.0,square4,j,0.051,3,V,5.0
V5,61.0,39.0,24.0,35.0,50.0,50,1736.0,square4,j,0.0102,3,V,5.0
V5,62.0,38.0,25.0,31.0,52.0,31,1767.0,square3,i,0.1804,2,V,5.0
V5,63.0,41.0,14.0,31.0,52.0,31,1798.0,square3,i,0.1927,2,V,5.0
V5,64.0,43.0,23.0,30.0,51.0,99999,1798.0,invalid,,,-1,V,5.0
V5,65.0,41.0,23.0,35.0,52.0,23,1821.0,square2,r,0.1193,1,V,5.0
V5,66.0,41.0,17.0,33.0,47.0,41,1862.0,square1,f,0.0202,0,V,5.0
V5,67.0,44.0,23.0,32.0,49.0,44,1906.0,square1,f,0.0098,0,V,5.0
V5,68.0,44.0,24.0,31.0,44.0,99999,1906.0,invalid,,,-1,V,5.0
V5,69.0,43.0,28.0,27.0,48.0,99999,1906.0,invalid,,,-1,V,5.0
V5,70.0,38.0,22.0,26.0,50.0,99999,1906.0,invalid,,,-1,V,5.0
V5,71.0,41.0,29.0,26.0,53.0,99999,1906.0,invalid,,,-1,V,5.0
V5,72.0,40.0,20.0,28.0,51.0,20,1926.0,square2,r,0.0019,1,V,5.0
V5,73.0,59.0,44.0,51.0,35.0,51,1977.0,square3,i,0.3444,2,V,5.0
V5,74.0,60.0,38.0,55.0,43.0,55,2032.0,square3,i,0.0765,2,V,5.0
V5,75.0,63.0,45.0,50.0,37.0,63,2095.0,square1,f,0.0772,0,V,5.0
V5,76.0,62.0,42.0,50.0,37.0,37,2132.0,square4,j,0.0016,3,V,5.0
V5,77.0,57.0,37.0,52.0,35.0,37,2169.0,square2,r,0.7303,1,V,5.0
V5,78.0,66.0,45.0,54.0,37.0,45,2214.0,square2,r,0.0441,1,V,5.0
V5,79.0,64.0,37.0,48.0,35.0,37,2251.0,square2,r,0.1315,1,V,5.0
V5,80.0,63.0,40.0,56.0,38.0,56,2307.0,square3,i,0.4598,2,V,5.0
V5,81.0,62.0,41.0,54.0,32.0,32,2339.0,square4,j,0.5925,3,V,5.0
V5,82.0,58.0,41.0,59.0,39.0,58,2397.0,square1,f,0.6322,0,V,5.0
V5,83.0,66.0,46.0,54.0,35.0,66,2463.0,square1,f,1.3276,0,V,5.0
V5,84.0,67.0,44.0,52.0,33.0,67,2530.0,square1,f,0.1004,0,V,5.0
V5,85.0,67.0,45.0,46.0,36.0,36,2566.0,square4,j,0.943,3,V,5.0
V5,86.0,65.0,44.0,51.0,38.0,38,2604.0,square4,j,0.032,3,V,5.0
V5,87.0,64.0,49.0,48.0,35.0,64,2668.0,square1,f,0.635,0,V,5.0
V5,88.0,68.0,47.0,56.0,36.0,68,2736.0,square1,f,0.0017,0,V,5.0
V5,89.0,60.0,42.0,57.0,32.0,60,2796.0,square1,f,0.1118,0,V,5.0
V5,90.0,59.0,43.0,53.0,34.0,43,2839.0,square2,r,0.1606,1,V,5.0
V5,91.0,64.0,43.0,51.0,34.0,43,2882.0,square2,r,0.0111,1,V,5.0
V5,92.0,65.0,41.0,57.0,38.0,57,2939.0,square3,i,0.0027,2,V,5.0
V5,93.0,59.0,48.0,54.0,40.0,54,2993.0,square3,i,0.0107,2,V,5.0
V5,94.0,66.0,44.0,53.0,43.0,44,3037.0,square2,r,0.3938,1,V,5.0
V5,95.0,63.0,43.0,50.0,40.0,43,3080.0,square2,r,0.0616,1,V,5.0
V5,96.0,62.0,44.0,50.0,33.0,44,3124.0,square2,r,0.0019,1,V,5.0
V5,97.0,64.0,49.0,55.0,37.0,49,3173.0,square2,r,0.3195,1,V,5.0
V5,98.0,65.0,44.0,53.0,36.0,44,3217.0,square2,r,1.4488,1,V,5.0
V5,99.0,65.0,42.0,55.0,35.0,42,3259.0,square2,r,1.6436,1,V,5.0
